NumberLetter,corrAns,StimFile,Correct_StimFile,False_StimFile,DurationTrial,trials.thisRepN,trials.thisTrialN,trials.thisN,trials.thisIndex,trials_2.thisRepN,trials_2.thisTrialN,trials_2.thisN,trials_2.thisIndex,Instruct.started,Instruct.stopped,text_2.started,text_2.stopped,Stim.started,Stim.stopped,key_resp_2.keys,key_resp_2.corr,key_resp_2.rt,key_resp_2.started,key_resp_2.stopped,polygon.started,polygon.stopped,participant,session,date,expName,psychopyVersion,frameRate,
1,['2'],TMTstop-control_1_1.png,TMTstop-control_1_1.png,TMTstop-control_1_1.png,10,0,0,0,0,,,,,6.54207700000552,None,6.54207700000552,None,7.548443099993165,None,['2'],1,[1.3972207000042545],7.548443099993165,None,,,,001,2021_Nov_17_1338,TMTAB,2021.2.3,144.31888702832734,
2,['1'],TMTstop-control_1_1.png,TMTstop-control_1_1firstgreen.png,TMTstop-control_1_1firstred.png,10,0,1,1,1,,,,,,,,,9.034816999992472,None,['1'],1,[0.6651291000016499],9.034816999992472,None,,,,001,2021_Nov_17_1338,TMTAB,2021.2.3,144.31888702832734,
3,['2'],TMTstop-control_1_1linestimulus0.png,TMTstop-control_1_1greenlinestimulus0.png,TMTstop-control_1_1redlinestimulus0.png,10,0,2,2,2,,,,,,,,,9.771069700000226,None,['2'],1,[0.26416900000185706],9.771069700000226,None,,,,001,2021_Nov_17_1338,TMTAB,2021.2.3,144.31888702832734,
4,['3'],TMTstop-control_1_1linestimulus1.png,TMTstop-control_1_1greenlinestimulus1.png,TMTstop-control_1_1redlinestimulus1.png,10,0,3,3,3,,,,,,,,,10.10433240000566,None,['3'],1,[0.2139368999924045],10.10433240000566,None,,,,001,2021_Nov_17_1338,TMTAB,2021.2.3,144.31888702832734,
5,['2'],TMTstop-control_1_1linestimulus2.png,TMTstop-control_1_1greenlinestimulus2.png,TMTstop-control_1_1redlinestimulus2.png,10,0,4,4,4,,,,,,,,,10.403582200000528,None,"['1', '2']",1,"[0.0890306000073906, 0.1867952000029618]",10.403582200000528,None,,,,001,2021_Nov_17_1338,TMTAB,2021.2.3,144.31888702832734,
6,['1'],TMTstop-control_1_1linestimulus3.png,TMTstop-control_1_1greenlinestimulus3.png,TMTstop-control_1_1redlinestimulus3.png,10,0,5,5,5,,,,,,,,,10.701245000003837,None,"['3', '1']",1,"[0.014597999994293787, 0.16788540000561625]",10.701245000003837,None,,,,001,2021_Nov_17_1338,TMTAB,2021.2.3,144.31888702832734,
7,['3'],TMTstop-control_1_1linestimulus4.png,TMTstop-control_1_1greenlinestimulus4.png,TMTstop-control_1_1redlinestimulus4.png,10,0,6,6,6,,,,,,,,,10.965465300003416,None,"['2', '3']",1,"[-0.044977199999266304, 0.12401749999844469]",10.965465300003416,None,,,,001,2021_Nov_17_1338,TMTAB,2021.2.3,144.31888702832734,
8,['2'],TMTstop-control_1_1linestimulus4.png,TMTstop-control_1_1greenlinestimulus5.png,TMTstop-control_1_1redlinestimulus5.png,10,0,7,7,7,,,,,,,,,11.160328600002686,None,"['1', '2']",1,"[0.10816089999570977, 0.1887847000034526]",11.160328600002686,None,,,,001,2021_Nov_17_1338,TMTAB,2021.2.3,144.31888702832734,
9,['3'],TMTstop-control_1_1linestimulus6.png,TMTstop-control_1_1greenlinestimulus6.png,TMTstop-control_1_1redlinestimulus6.png,10,0,8,8,8,,,,,,,,,11.430593600001885,None,['3'],1,[0.08280160000140313],11.430593600001885,None,,,,001,2021_Nov_17_1338,TMTAB,2021.2.3,144.31888702832734,
10,['2'],TMTstop-control_1_1linestimulus7.png,TMTstop-control_1_1greenlinestimulus7.png,TMTstop-control_1_1redlinestimulus7.png,10,0,9,9,9,,,,,,,,,11.583464499999536,None,"['1', '2']",1,"[0.08975270000519231, 0.15441430000646506]",11.583464499999536,None,,,,001,2021_Nov_17_1338,TMTAB,2021.2.3,144.31888702832734,
11,['3'],TMTstop-control_1_1linestimulus8.png,TMTstop-control_1_1greenlinestimulus8.png,TMTstop-control_1_1redlinestimulus8.png,10,0,10,10,10,,,,,,,,,11.826474599991343,None,['3'],1,[0.04273709999688435],11.826474599991343,None,,,,001,2021_Nov_17_1338,TMTAB,2021.2.3,144.31888702832734,
12,['1'],TMTstop-control_1_1linestimulus9.png,TMTstop-control_1_1greenlinestimulus9.png,TMTstop-control_1_1redlinestimulus9.png,10,0,11,11,11,,,,,,,,,11.95155589999922,None,['1'],1,[0.08569290000014007],11.95155589999922,None,,,,001,2021_Nov_17_1338,TMTAB,2021.2.3,144.31888702832734,
13,['3'],TMTstop-control_1_1linestimulus10.png,TMTstop-control_1_1greenlinestimulus10.png,TMTstop-control_1_1redlinestimulus10.png,1,0,12,12,12,,,,,,,,,12.118263199998182,None,"['2', '3']",1,"[-0.020716700004413724, 0.10085899999830872]",12.118263199998182,None,,,,001,2021_Nov_17_1338,TMTAB,2021.2.3,144.31888702832734,
14,['1'],TMTstop-control_1_1linestimulus11.png,TMTstop-control_1_1greenlinestimulus11.png,TMTstop-control_1_1redlinestimulus11.png,None,0,13,13,13,,,,,,,,,12.312632100001792,None,['1'],1,[0.06860020000021905],12.312632100001792,None,,,,001,2021_Nov_17_1338,TMTAB,2021.2.3,144.31888702832734,
15,['3'],TMTstop-control_1_1linestimulus12.png,TMTstop-control_1_1greenlinestimulus12.png,TMTstop-control_1_1redlinestimulus12.png,None,0,14,14,14,,,,,,,,,12.458355199996731,None,"['2', '3']",1,"[0.004811199993127957, 0.1273626000038348]",12.458355199996731,None,,,,001,2021_Nov_17_1338,TMTAB,2021.2.3,144.31888702832734,
16,['1'],TMTstop-control_1_1linestimulus13.png,TMTstop-control_1_1greenlinestimulus13.png,TMTstop-control_1_1redlinestimulus13.png,None,0,15,15,15,,,,,,,,,12.666489399998682,None,['1'],1,[0.0683504000044195],12.666489399998682,None,,,,001,2021_Nov_17_1338,TMTAB,2021.2.3,144.31888702832734,
17,['2'],TMTstop-control_1_1linestimulus14.png,TMTstop-control_1_1greenlinestimulus14.png,TMTstop-control_1_1redlinestimulus14.png,None,0,16,16,16,,,,,,,,,12.805670000001555,None,['2'],1,[0.007697699998971075],12.805670000001555,None,,,,001,2021_Nov_17_1338,TMTAB,2021.2.3,144.31888702832734,
18,['1'],TMTstop-control_1_1linestimulus15.png,TMTstop-control_1_1greenlinestimulus15.png,TMTstop-control_1_1redlinestimulus15.png,None,0,17,17,17,,,,,,,,,12.889005000004545,None,"['3', '1']",1,"[0.06124900000577327, 0.23949209999409504]",12.889005000004545,None,,,,001,2021_Nov_17_1338,TMTAB,2021.2.3,144.31888702832734,
19,['3'],TMTstop-control_1_1linestimulus16.png,TMTstop-control_1_1greenlinestimulus16.png,TMTstop-control_1_1redlinestimulus16.png,None,0,18,18,18,,,,,,,,,13.236269300003187,None,"['2', '3']",1,"[-0.0260466999898199, 0.08301940000092145]",13.236269300003187,None,,,,001,2021_Nov_17_1338,TMTAB,2021.2.3,144.31888702832734,
20,['1'],TMTstop-control_1_1linestimulus17.png,TMTstop-control_1_1greenlinestimulus17.png,TMTstop-control_1_1redlinestimulus17.png,None,0,19,19,19,,,,,,,,,13.388730899998336,None,['1'],1,[0.11697479999565985],13.388730899998336,None,,,,001,2021_Nov_17_1338,TMTAB,2021.2.3,144.31888702832734,
21,['3'],TMTstop-control_1_1linestimulus18.png,TMTstop-control_1_1greenlinestimulus18.png,TMTstop-control_1_1redlinestimulus18.png,None,0,20,20,20,,,,,,,,,13.576342799991835,None,"['2', '3']",1,"[-0.036389800006872974, 0.12755799999285955]",13.576342799991835,None,,,,001,2021_Nov_17_1338,TMTAB,2021.2.3,144.31888702832734,
22,['1'],TMTstop-control_1_1linestimulus19.png,TMTstop-control_1_1greenlinestimulus19.png,TMTstop-control_1_1redlinestimulus19.png,None,0,21,21,21,,,,,,,,,13.812424000003375,None,['1'],1,[0.06499720001011156],13.812424000003375,None,,,,001,2021_Nov_17_1338,TMTAB,2021.2.3,144.31888702832734,
23,['3'],TMTstop-control_1_1linestimulus20.png,TMTstop-control_1_1greenlinestimulus20.png,TMTstop-control_1_1redlinestimulus20.png,None,0,22,22,22,,,,,,,,,13.958430300001055,None,"['2', '3']",1,"[-0.05553469998994842, 0.09913420000521]",13.958430300001055,None,,,,001,2021_Nov_17_1338,TMTAB,2021.2.3,144.31888702832734,
24,['1'],TMTstop-control_1_1linestimulus21.png,TMTstop-control_1_1greenlinestimulus21.png,TMTstop-control_1_1redlinestimulus21.png,None,0,23,23,23,,,,,,,,,14.152857099994435,None,['1'],1,[0.05208999999740627],14.152857099994435,None,,,,001,2021_Nov_17_1338,TMTAB,2021.2.3,144.31888702832734,
25,['3'],TMTstop-control_1_1linestimulus22.png,TMTstop-control_1_1greenlinestimulus22.png,TMTstop-control_1_1redlinestimulus22.png,None,0,24,24,24,,,,,,,,,14.277898400003323,None,['3'],1,[0.44992649999039713],14.277898400003323,None,,,,001,2021_Nov_17_1338,TMTAB,2021.2.3,144.31888702832734,
None,None,TMTstop-control_1_1linestimulus23.png,TMTstop-control_1_1greenlinestimulus23.png,TMTstop-control_1_1redlinestimulus23.png,None,0,25,25,25,,,,,,,,,14.80572079999547,None,None,1,,14.80572079999547,None,,,,001,2021_Nov_17_1338,TMTAB,2021.2.3,144.31888702832734,
A,['3'],TMTstop-control_1_a.png,TMTstop-control_1_a.png,TMTstop-control_1_a.png,10,,,,,0,0,0,0,,,,,18.860892099997727,None,"['2', '1', '3']",1,"[1.123349600005895, 1.1320592000120087, 1.3511699000082444]",18.860892099997727,None,15.803243599992129,None,,001,2021_Nov_17_1338,TMTAB,2021.2.3,144.31888702832734,
B,['1'],TMTstop-control_1_a.png,TMTstop-control_1_afirstgreen.png,TMTstop-control_1_afirstred.png,10,,,,,0,1,1,1,,,,,20.285067499993602,None,['1'],1,[0.32588630000827834],20.285067499993602,None,,,,001,2021_Nov_17_1338,TMTAB,2021.2.3,144.31888702832734,
C,['3'],TMTstop-control_1_alinestimulus0.png,TMTstop-control_1_agreenlinestimulus0.png,TMTstop-control_1_aredlinestimulus0.png,10,,,,,0,2,2,2,,,,,20.68816770000558,None,"['2', '3']",1,"[0.03863380000984762, 0.13829480001004413]",20.68816770000558,None,,,,001,2021_Nov_17_1338,TMTAB,2021.2.3,144.31888702832734,
D,['2'],TMTstop-control_1_alinestimulus1.png,TMTstop-control_1_agreenlinestimulus1.png,TMTstop-control_1_aredlinestimulus1.png,10,,,,,0,3,3,3,,,,,20.931219999998575,None,"['1', '2']",1,"[0.07873609999660403, 0.150410499991267]",20.931219999998575,None,,,,001,2021_Nov_17_1338,TMTAB,2021.2.3,144.31888702832734,
E,['1'],TMTstop-control_1_alinestimulus2.png,TMTstop-control_1_agreenlinestimulus2.png,TMTstop-control_1_aredlinestimulus2.png,10,,,,,0,4,4,4,,,,,21.166293000002042,None,"['3', '1']",1,"[0.029930599994258955, 0.19240839999110904]",21.166293000002042,None,,,,001,2021_Nov_17_1338,TMTAB,2021.2.3,144.31888702832734,
F,['3'],TMTstop-control_1_alinestimulus3.png,TMTstop-control_1_agreenlinestimulus3.png,TMTstop-control_1_aredlinestimulus3.png,10,,,,,0,5,5,5,,,,,21.437428599994746,None,"['2', '3']",1,"[-0.02343839999230113, 0.12288780001108535]",21.437428599994746,None,,,,001,2021_Nov_17_1338,TMTAB,2021.2.3,144.31888702832734,
G,['2'],TMTstop-control_1_alinestimulus4.png,TMTstop-control_1_agreenlinestimulus4.png,TMTstop-control_1_aredlinestimulus4.png,10,,,,,0,6,6,6,,,,,21.66651009999623,None,"['1', '2']",1,"[0.06241139999474399, 0.09521689999382943]",21.66651009999623,None,,,,001,2021_Nov_17_1338,TMTAB,2021.2.3,144.31888702832734,
H,['3'],TMTstop-control_1_alinestimulus5.png,TMTstop-control_1_agreenlinestimulus5.png,TMTstop-control_1_aredlinestimulus5.png,10,,,,,0,7,7,7,,,,,21.840150299991365,None,['3'],1,[0.07291709999844898],21.840150299991365,None,,,,001,2021_Nov_17_1338,TMTAB,2021.2.3,144.31888702832734,
I,['1'],TMTstop-control_1_alinestimulus6.png,TMTstop-control_1_agreenlinestimulus6.png,TMTstop-control_1_aredlinestimulus6.png,10,,,,,0,8,8,8,,,,,21.99289530000533,None,['1'],1,[0.08892619999824092],21.99289530000533,None,,,,001,2021_Nov_17_1338,TMTAB,2021.2.3,144.31888702832734,
J,['2'],TMTstop-control_1_alinestimulus7.png,TMTstop-control_1_agreenlinestimulus7.png,TMTstop-control_1_aredlinestimulus7.png,10,,,,,0,9,9,9,,,,,22.15949649999675,None,['2'],1,[-0.029192999994847924],22.15949649999675,None,,,,001,2021_Nov_17_1338,TMTAB,2021.2.3,144.31888702832734,
K,['3'],TMTstop-control_1_alinestimulus8.png,TMTstop-control_1_agreenlinestimulus8.png,TMTstop-control_1_aredlinestimulus8.png,10,,,,,0,10,10,10,,,,,22.235670199996093,None,['3'],1,[0.05122900000424124],22.235670199996093,None,,,,001,2021_Nov_17_1338,TMTAB,2021.2.3,144.31888702832734,
L,['1'],TMTstop-control_1_alinestimulus9.png,TMTstop-control_1_agreenlinestimulus9.png,TMTstop-control_1_aredlinestimulus9.png,10,,,,,0,11,11,11,,,,,22.368054299993673,None,['1'],1,[0.06754289999662433],22.368054299993673,None,,,,001,2021_Nov_17_1338,TMTAB,2021.2.3,144.31888702832734,
M,['3'],TMTstop-control_1_alinestimulus10.png,TMTstop-control_1_agreenlinestimulus10.png,TMTstop-control_1_aredlinestimulus10.png,1,,,,,0,12,12,12,,,,,22.513913100003265,None,"['2', '3']",1,"[-0.001612000007298775, 0.10902249999344349]",22.513913100003265,None,,,,001,2021_Nov_17_1338,TMTAB,2021.2.3,144.31888702832734,
N,['2'],TMTstop-control_1_alinestimulus11.png,TMTstop-control_1_agreenlinestimulus11.png,TMTstop-control_1_aredlinestimulus11.png,None,,,,,0,13,13,13,,,,,22.708814099998563,None,"['1', '2']",1,"[0.07548379999934696, 0.15224309999030083]",22.708814099998563,None,,,,001,2021_Nov_17_1338,TMTAB,2021.2.3,144.31888702832734,
O,['1'],TMTstop-control_1_alinestimulus12.png,TMTstop-control_1_agreenlinestimulus12.png,TMTstop-control_1_aredlinestimulus12.png,None,,,,,0,14,14,14,,,,,22.9374947000033,None,"['3', '1']",1,"[0.03423439999460243, 0.6728973999997834]",22.9374947000033,None,,,,001,2021_Nov_17_1338,TMTAB,2021.2.3,144.31888702832734,
P,['3'],TMTstop-control_1_alinestimulus13.png,TMTstop-control_1_agreenlinestimulus13.png,TMTstop-control_1_aredlinestimulus13.png,None,,,,,0,15,15,15,,,,,23.70817869999155,None,"['1', '1', '2', '3']",1,"[0.2225066999963019, 0.6518914999905974, 0.6783388999901945, 0.7964191999926697]",23.70817869999155,None,,,,001,2021_Nov_17_1338,TMTAB,2021.2.3,144.31888702832734,
Q,['2'],TMTstop-control_1_alinestimulus14.png,TMTstop-control_1_agreenlinestimulus14.png,TMTstop-control_1_aredlinestimulus14.png,None,,,,,0,16,16,16,,,,,24.603836399997817,None,"['1', '2']",1,"[0.05771600001025945, 0.17178780000540428]",24.603836399997817,None,,,,001,2021_Nov_17_1338,TMTAB,2021.2.3,144.31888702832734,
R,['3'],TMTstop-control_1_alinestimulus15.png,TMTstop-control_1_agreenlinestimulus15.png,TMTstop-control_1_aredlinestimulus15.png,None,,,,,0,17,17,17,,,,,24.847078599996166,None,['3'],1,[0.031110999989323318],24.847078599996166,None,,,,001,2021_Nov_17_1338,TMTAB,2021.2.3,144.31888702832734,
S,['2'],TMTstop-control_1_alinestimulus16.png,TMTstop-control_1_agreenlinestimulus16.png,TMTstop-control_1_aredlinestimulus16.png,None,,,,,0,18,18,18,,,,,24.958073500005412,None,"['1', '2']",1,"[0.09015129999897908, 0.13894479999726173]",24.958073500005412,None,,,,001,2021_Nov_17_1338,TMTAB,2021.2.3,144.31888702832734,
T,['1'],TMTstop-control_1_alinestimulus17.png,TMTstop-control_1_agreenlinestimulus17.png,TMTstop-control_1_aredlinestimulus17.png,None,,,,,0,19,19,19,,,,,25.201208600003156,None,"['3', '1']",1,"[0.05484890000661835, 0.18910459999460727]",25.201208600003156,None,,,,001,2021_Nov_17_1338,TMTAB,2021.2.3,144.31888702832734,
U,['3'],TMTstop-control_1_alinestimulus18.png,TMTstop-control_1_agreenlinestimulus18.png,TMTstop-control_1_aredlinestimulus18.png,None,,,,,0,20,20,20,,,,,25.49951539999165,None,"['2', '3']",1,"[-0.04566670001077, 0.08209589999751188]",25.49951539999165,None,,,,001,2021_Nov_17_1338,TMTAB,2021.2.3,144.31888702832734,
V,['2'],TMTstop-control_1_alinestimulus19.png,TMTstop-control_1_agreenlinestimulus19.png,TMTstop-control_1_aredlinestimulus19.png,None,,,,,0,21,21,21,,,,,25.68027019999863,None,"['1', '2']",1,"[0.0513585000007879, 0.13409809999575373]",25.68027019999863,None,,,,001,2021_Nov_17_1338,TMTAB,2021.2.3,144.31888702832734,
W,['1'],TMTstop-control_1_alinestimulus20.png,TMTstop-control_1_agreenlinestimulus20.png,TMTstop-control_1_aredlinestimulus20.png,None,,,,,0,22,22,22,,,,,25.888780699999188,None,"['3', '1']",1,"[0.04022969999641646, 0.1682543000060832]",25.888780699999188,None,,,,001,2021_Nov_17_1338,TMTAB,2021.2.3,144.31888702832734,
X,['2'],TMTstop-control_1_alinestimulus21.png,TMTstop-control_1_agreenlinestimulus21.png,TMTstop-control_1_aredlinestimulus21.png,None,,,,,0,23,23,23,,,,,26.159453200001735,None,['2'],1,[-0.03484069999831263],26.159453200001735,None,,,,001,2021_Nov_17_1338,TMTAB,2021.2.3,144.31888702832734,
Y,['1'],TMTstop-control_1_alinestimulus22.png,TMTstop-control_1_agreenlinestimulus22.png,TMTstop-control_1_aredlinestimulus22.png,None,,,,,0,24,24,24,,,,,26.22902489999251,None,"['3', '1']",1,"[0.027524099990841933, 0.14769149999483489]",26.22902489999251,None,,,,001,2021_Nov_17_1338,TMTAB,2021.2.3,144.31888702832734,
