NumberLetter,corrAns,StimFile,Correct_StimFile,False_StimFile,DurationTrial,restartpractice.thisRepN,restartpractice.thisTrialN,restartpractice.thisN,restartpractice.thisIndex,trials_practice.thisRepN,trials_practice.thisTrialN,trials_practice.thisN,trials_practice.thisIndex,trials.thisRepN,trials.thisTrialN,trials.thisN,trials.thisIndex,trials_2.thisRepN,trials_2.thisTrialN,trials_2.thisN,trials_2.thisIndex,trials_3.thisRepN,trials_3.thisTrialN,trials_3.thisN,trials_3.thisIndex,trials_4.thisRepN,trials_4.thisTrialN,trials_4.thisN,trials_4.thisIndex,trials_5.thisRepN,trials_5.thisTrialN,trials_5.thisN,trials_5.thisIndex,trials_6.thisRepN,trials_6.thisTrialN,trials_6.thisN,trials_6.thisIndex,trials_7.thisRepN,trials_7.thisTrialN,trials_7.thisN,trials_7.thisIndex,trials_8.thisRepN,trials_8.thisTrialN,trials_8.thisN,trials_8.thisIndex,Instruct.started,Instruct.stopped,image_2.started,image_2.stopped,key_resp_6.keys,key_resp_6.rt,key_resp_6.started,key_resp_6.stopped,polygon.started,polygon.stopped,Stim_practice.started,Stim_practice.stopped,key_resp_practice.keys,key_resp_practice.rt,key_resp_practice.started,key_resp_practice.stopped,text_5.started,text_5.stopped,key_resp_5.keys,key_resp_5.rt,key_resp_5.started,key_resp_5.stopped,Stim.started,Stim.stopped,key_resp_2.keys,key_resp_2.corr,key_resp_2.rt,key_resp_2.started,key_resp_2.stopped,text.started,text.stopped,participant,session,date,expName,psychopyVersion,frameRate,
,,,,,,,,,,,,,,,,,,,,,,,,,,,,,,,,,,,,,,,,,,,,,,6.361722000001464,None,6.861792600000626,None,2,0.36019749999104533,6.861792600000626,None,,,,,,,,,,,,,,,,,,,,,,,,,001,2021_Nov_17_1507,TMTAB,2021.2.3,144.07976256678637,
1,['2'],TMTstop-Control_1_practice.png,TMTstop-Control_1_practice.png,TMTstop-Control_1_practice.png,10,0,0,0,0,0,0,0,0,,,,,,,,,,,,,,,,,,,,,,,,,,,,,,,,,,,,,,,,,7.246515699996962,None,10.286550999997417,None,2,0.6830916999897454,10.286550999997417,None,,,,,,,,,,,,,,,,,001,2021_Nov_17_1507,TMTAB,2021.2.3,144.07976256678637,
2,['3'],TMTstop-Control_1_practice.png,TMTstop-Control_1_practicefirstgreen.png,TMTstop-Control_1_practicefirstred.png,10,0,0,0,0,0,1,1,1,,,,,,,,,,,,,,,,,,,,,,,,,,,,,,,,,,,,,,,,,,,11.051120599993737,None,3,0.21587619998899754,11.051120599993737,None,,,,,,,,,,,,,,,,,001,2021_Nov_17_1507,TMTAB,2021.2.3,144.07976256678637,
3,['2'],TMTstop-Control_1_practicelinestimulus0.png,TMTstop-Control_1_practicegreenlinestimulus0.png,TMTstop-Control_1_practiceredlinestimulus0.png,10,0,0,0,0,0,2,2,2,,,,,,,,,,,,,,,,,,,,,,,,,,,,,,,,,,,,,,,,,,,11.34947459999239,None,2,0.19085670000640675,11.34947459999239,None,,,,,,,,,,,,,,,,,001,2021_Nov_17_1507,TMTAB,2021.2.3,144.07976256678637,
4,['1'],TMTstop-Control_1_practicelinestimulus1.png,TMTstop-Control_1_practicegreenlinestimulus1.png,TMTstop-Control_1_practiceredlinestimulus1.png,10,0,0,0,0,0,3,3,3,,,,,,,,,,,,,,,,,,,,,,,,,,,,,,,,,,,,,,,,,,,11.620024499992724,None,1,0.1566883999912534,11.620024499992724,None,,,,,,,,,,,,,,,,,001,2021_Nov_17_1507,TMTAB,2021.2.3,144.07976256678637,
5,['2'],TMTstop-Control_1_practicelinestimulus2.png,TMTstop-Control_1_practicegreenlinestimulus2.png,TMTstop-Control_1_practiceredlinestimulus2.png,10,0,0,0,0,0,4,4,4,,,,,,,,,,,,,,,,,,,,,,,,,,,,,,,,,,,,,,,,,,,11.863001999998232,None,2,0.003983700007665902,11.863001999998232,None,,,,,,,,,,,,,,,,,001,2021_Nov_17_1507,TMTAB,2021.2.3,144.07976256678637,
6,['1'],TMTstop-Control_1_practicelinestimulus3.png,TMTstop-Control_1_practicegreenlinestimulus3.png,TMTstop-Control_1_practiceredlinestimulus3.png,10,0,0,0,0,0,5,5,5,,,,,,,,,,,,,,,,,,,,,,,,,,,,,,,,,,,,,,,,,,,11.94687580000027,None,1,0.13947160000680014,11.94687580000027,None,,,,,,,,,,,,,,,,,001,2021_Nov_17_1507,TMTAB,2021.2.3,144.07976256678637,
7,['2'],TMTstop-Control_1_practicelinestimulus4.png,TMTstop-Control_1_practicegreenlinestimulus4.png,TMTstop-Control_1_practiceredlinestimulus4.png,10,0,0,0,0,0,6,6,6,,,,,,,,,,,,,,,,,,,,,,,,,,,,,,,,,,,,,,,,,,,12.197241300003952,None,2,0.2506520000024466,12.197241300003952,None,,,,,,,,,,,,,,,,,001,2021_Nov_17_1507,TMTAB,2021.2.3,144.07976256678637,
8,['1'],TMTstop-Control_1_practicelinestimulus5.png,TMTstop-Control_1_practicegreenlinestimulus5.png,TMTstop-Control_1_practiceredlinestimulus5.png,10,0,0,0,0,0,7,7,7,,,,,,,,,,,,,,,,,,,,,,,,,,,,,,,,,,,,,,,,,,,12.529953200006275,None,1,0.1403062999888789,12.529953200006275,None,,,,,,,,,,,,,,,,,001,2021_Nov_17_1507,TMTAB,2021.2.3,144.07976256678637,
9,['3'],TMTstop-Control_1_practicelinestimulus6.png,TMTstop-Control_1_practicegreenlinestimulus6.png,TMTstop-Control_1_practiceredlinestimulus6.png,10,0,0,0,0,0,8,8,8,,,,,,,,,,,,,,,,,,,,,,,,,,,,,,,,,,,,,,,,,,,12.759154400002444,None,3,0.08587869998882525,12.759154400002444,None,,,,,,,,,,,,,,,,,001,2021_Nov_17_1507,TMTAB,2021.2.3,144.07976256678637,
10,['1'],TMTstop-Control_1_practicelinestimulus7.png,TMTstop-Control_1_practicegreenlinestimulus7.png,TMTstop-Control_1_practiceredlinestimulus7.png,10,0,0,0,0,0,9,9,9,,,,,,,,,,,,,,,,,,,,,,,,,,,,,,,,,,,,,,,,,,,12.925803199992515,None,1,0.05255439999746159,12.925803199992515,None,,,,,,,,,,,,,,,,,001,2021_Nov_17_1507,TMTAB,2021.2.3,144.07976256678637,
11,['3'],TMTstop-Control_1_practicelinestimulus8.png,TMTstop-Control_1_practicegreenlinestimulus8.png,TMTstop-Control_1_practiceredlinestimulus8.png,10,0,0,0,0,0,10,10,10,,,,,,,,,,,,,,,,,,,,,,,,,,,,,,,,,,,,,,,,,,,13.050743800005876,None,3,0.1137458000011975,13.050743800005876,None,,,,,,,,,,,,,,,,,001,2021_Nov_17_1507,TMTAB,2021.2.3,144.07976256678637,
12,['1'],TMTstop-Control_1_practicelinestimulus9.png,TMTstop-Control_1_practicegreenlinestimulus9.png,TMTstop-Control_1_practiceredlinestimulus9.png,10,0,0,0,0,0,11,11,11,,,,,,,,,,,,,,,,,,,,,,,,,,,,,,,,,,,,,,,,,,,13.251863199999207,None,1,0.023578100008307956,13.251863199999207,None,,,,,,,,,,,,,,,,,001,2021_Nov_17_1507,TMTAB,2021.2.3,144.07976256678637,
None,None,TMTstop-Control_1_practicelinestimulus10.png,TMTstop-Control_1_practicegreenlinestimulus10.png,TMTstop-Control_1_practiceredlinestimulus10.png,None,0,0,0,0,0,12,12,12,,,,,,,,,,,,,,,,,,,,,,,,,,,,,,,,,,,,,,,,,,,13.349414800002705,None,2,0.012010399994323961,13.349414800002705,None,,,,,,,,,,,,,,,,,001,2021_Nov_17_1507,TMTAB,2021.2.3,144.07976256678637,
,,,,,,0,0,0,0,,,,,,,,,,,,,,,,,,,,,,,,,,,,,,,,,,,,,,,,,,,,,,,,,,,,,14.4371775000036,None,x,2.679155699996045,14.4371775000036,None,,,,,,,,,,,001,2021_Nov_17_1507,TMTAB,2021.2.3,144.07976256678637,
1,['2'],TMTstop-Control_1_practice.png,TMTstop-Control_1_practice.png,TMTstop-Control_1_practice.png,10,1,0,1,0,0,0,0,0,,,,,,,,,,,,,,,,,,,,,,,,,,,,,,,,,,,,,,,,,,,17.168369499995606,None,2,1.2736080000031507,17.168369499995606,None,,,,,,,,,,,,,,,,,001,2021_Nov_17_1507,TMTAB,2021.2.3,144.07976256678637,
2,['3'],TMTstop-Control_1_practice.png,TMTstop-Control_1_practicefirstgreen.png,TMTstop-Control_1_practicefirstred.png,10,1,0,1,0,0,1,1,1,,,,,,,,,,,,,,,,,,,,,,,,,,,,,,,,,,,,,,,,,,,18.523635699995793,None,3,0.243376200000057,18.523635699995793,None,,,,,,,,,,,,,,,,,001,2021_Nov_17_1507,TMTAB,2021.2.3,144.07976256678637,
3,['2'],TMTstop-Control_1_practicelinestimulus0.png,TMTstop-Control_1_practicegreenlinestimulus0.png,TMTstop-Control_1_practiceredlinestimulus0.png,10,1,0,1,0,0,2,2,2,,,,,,,,,,,,,,,,,,,,,,,,,,,,,,,,,,,,,,,,,,,18.8350894000032,None,2,0.5943411999905948,18.8350894000032,None,,,,,,,,,,,,,,,,,001,2021_Nov_17_1507,TMTAB,2021.2.3,144.07976256678637,
4,['1'],TMTstop-Control_1_practicelinestimulus1.png,TMTstop-Control_1_practicegreenlinestimulus1.png,TMTstop-Control_1_practiceredlinestimulus1.png,10,1,0,1,0,0,3,3,3,,,,,,,,,,,,,,,,,,,,,,,,,,,,,,,,,,,,,,,,,,,19.501931499995408,None,1,2.164972200000193,19.501931499995408,None,,,,,,,,,,,,,,,,,001,2021_Nov_17_1507,TMTAB,2021.2.3,144.07976256678637,
,,,,,,1,0,1,0,,,,,,,,,,,,,,,,,,,,,,,,,,,,,,,,,,,,,,,,,,,,,,,,,,,,,21.68702850000409,None,1,1.56512160001148,21.68702850000409,None,,,,,,,,,,,001,2021_Nov_17_1507,TMTAB,2021.2.3,144.07976256678637,
1,['2'],TMTstop-control_1_1.png,TMTstop-control_1_1.png,TMTstop-control_1_1.png,10,,,,,,,,,0,0,0,0,,,,,,,,,,,,,,,,,,,,,,,,,,,,,,,,,,,,,23.270396599997184,None,,,,,,,,,,,,,26.314025200001197,None,"['1', '2']",1,"[1.9198689999902854, 2.2458825999929104]",26.314025200001197,None,,,,001,2021_Nov_17_1507,TMTAB,2021.2.3,144.07976256678637,
2,['1'],TMTstop-control_1_1.png,TMTstop-control_1_1firstgreen.png,TMTstop-control_1_1firstred.png,10,,,,,,,,,0,1,1,1,,,,,,,,,,,,,,,,,,,,,,,,,,,,,,,,,,,,,,,,,,,,,,,,,,,28.661227100004908,None,"['3', '1']",1,"[0.20539459999417886, 0.35351319999608677]",28.661227100004908,None,,,,001,2021_Nov_17_1507,TMTAB,2021.2.3,144.07976256678637,
3,['2'],TMTstop-control_1_1linestimulus0.png,TMTstop-control_1_1greenlinestimulus0.png,TMTstop-control_1_1redlinestimulus0.png,10,,,,,,,,,0,2,2,2,,,,,,,,,,,,,,,,,,,,,,,,,,,,,,,,,,,,,,,,,,,,,,,,,,,29.1200189999945,None,['2'],1,[-0.023091999988537282],29.1200189999945,None,,,,001,2021_Nov_17_1507,TMTAB,2021.2.3,144.07976256678637,
4,['3'],TMTstop-control_1_1linestimulus1.png,TMTstop-control_1_1greenlinestimulus1.png,TMTstop-control_1_1redlinestimulus1.png,10,,,,,,,,,0,3,3,3,,,,,,,,,,,,,,,,,,,,,,,,,,,,,,,,,,,,,,,,,,,,,,,,,,,29.195715900001233,None,['3'],1,[0.006986100008361973],29.195715900001233,None,,,,001,2021_Nov_17_1507,TMTAB,2021.2.3,144.07976256678637,
5,['2'],TMTstop-control_1_1linestimulus2.png,TMTstop-control_1_1greenlinestimulus2.png,TMTstop-control_1_1redlinestimulus2.png,10,,,,,,,,,0,4,4,4,,,,,,,,,,,,,,,,,,,,,,,,,,,,,,,,,,,,,,,,,,,,,,,,,,,29.272752100005164,None,"['1', '2']",1,"[0.06717969999590423, 0.11322829998971429]",29.272752100005164,None,,,,001,2021_Nov_17_1507,TMTAB,2021.2.3,144.07976256678637,
6,['1'],TMTstop-control_1_1linestimulus3.png,TMTstop-control_1_1greenlinestimulus3.png,TMTstop-control_1_1redlinestimulus3.png,10,,,,,,,,,0,5,5,5,,,,,,,,,,,,,,,,,,,,,,,,,,,,,,,,,,,,,,,,,,,,,,,,,,,29.487887800001772,None,"['3', '1']",1,"[0.0031249000021489337, 0.14620859999558888]",29.487887800001772,None,,,,001,2021_Nov_17_1507,TMTAB,2021.2.3,144.07976256678637,
7,['3'],TMTstop-control_1_1linestimulus4.png,TMTstop-control_1_1greenlinestimulus4.png,TMTstop-control_1_1redlinestimulus4.png,10,,,,,,,,,0,6,6,6,,,,,,,,,,,,,,,,,,,,,,,,,,,,,,,,,,,,,,,,,,,,,,,,,,,29.72385999999824,None,"['2', '3']",1,"[-0.04387989999668207, 0.061526799996499904]",29.72385999999824,None,,,,001,2021_Nov_17_1507,TMTAB,2021.2.3,144.07976256678637,
8,['2'],TMTstop-control_1_1linestimulus4.png,TMTstop-control_1_1greenlinestimulus5.png,TMTstop-control_1_1redlinestimulus5.png,10,,,,,,,,,0,7,7,7,,,,,,,,,,,,,,,,,,,,,,,,,,,,,,,,,,,,,,,,,,,,,,,,,,,29.876646499993512,None,"['1', '2']",1,"[0.04045300000871066, 0.08702659999835305]",29.876646499993512,None,,,,001,2021_Nov_17_1507,TMTAB,2021.2.3,144.07976256678637,
9,['3'],TMTstop-control_1_1linestimulus6.png,TMTstop-control_1_1greenlinestimulus6.png,TMTstop-control_1_1redlinestimulus6.png,10,,,,,,,,,0,8,8,8,,,,,,,,,,,,,,,,,,,,,,,,,,,,,,,,,,,,,,,,,,,,,,,,,,,30.036284100002376,None,['3'],1,[0.03960930000175722],30.036284100002376,None,,,,001,2021_Nov_17_1507,TMTAB,2021.2.3,144.07976256678637,
10,['2'],TMTstop-control_1_1linestimulus7.png,TMTstop-control_1_1greenlinestimulus7.png,TMTstop-control_1_1redlinestimulus7.png,10,,,,,,,,,0,9,9,9,,,,,,,,,,,,,,,,,,,,,,,,,,,,,,,,,,,,,,,,,,,,,,,,,,,30.154911599995103,None,"['1', '2']",1,"[0.04923320001398679, 0.10977360000833869]",30.154911599995103,None,,,,001,2021_Nov_17_1507,TMTAB,2021.2.3,144.07976256678637,
11,['3'],TMTstop-control_1_1linestimulus8.png,TMTstop-control_1_1greenlinestimulus8.png,TMTstop-control_1_1redlinestimulus8.png,10,,,,,,,,,0,10,10,10,,,,,,,,,,,,,,,,,,,,,,,,,,,,,,,,,,,,,,,,,,,,,,,,,,,30.35600450000493,None,['3'],1,[0.00888660000055097],30.35600450000493,None,,,,001,2021_Nov_17_1507,TMTAB,2021.2.3,144.07976256678637,
12,['1'],TMTstop-control_1_1linestimulus9.png,TMTstop-control_1_1greenlinestimulus9.png,TMTstop-control_1_1redlinestimulus9.png,10,,,,,,,,,0,11,11,11,,,,,,,,,,,,,,,,,,,,,,,,,,,,,,,,,,,,,,,,,,,,,,,,,,,30.43906390000484,None,['1'],1,[0.043443599992315285],30.43906390000484,None,,,,001,2021_Nov_17_1507,TMTAB,2021.2.3,144.07976256678637,
13,['3'],TMTstop-control_1_1linestimulus10.png,TMTstop-control_1_1greenlinestimulus10.png,TMTstop-control_1_1redlinestimulus10.png,1,,,,,,,,,0,12,12,12,,,,,,,,,,,,,,,,,,,,,,,,,,,,,,,,,,,,,,,,,,,,,,,,,,,30.55744639999466,None,"['2', '3']",1,"[-0.007613600013428368, 0.08568769998964854]",30.55744639999466,None,,,,001,2021_Nov_17_1507,TMTAB,2021.2.3,144.07976256678637,
14,['1'],TMTstop-control_1_1linestimulus11.png,TMTstop-control_1_1greenlinestimulus11.png,TMTstop-control_1_1redlinestimulus11.png,None,,,,,,,,,0,13,13,13,,,,,,,,,,,,,,,,,,,,,,,,,,,,,,,,,,,,,,,,,,,,,,,,,,,30.751835899995058,None,['1'],1,[0.015869300012127496],30.751835899995058,None,,,,001,2021_Nov_17_1507,TMTAB,2021.2.3,144.07976256678637,
15,['3'],TMTstop-control_1_1linestimulus12.png,TMTstop-control_1_1greenlinestimulus12.png,TMTstop-control_1_1redlinestimulus12.png,None,,,,,,,,,0,14,14,14,,,,,,,,,,,,,,,,,,,,,,,,,,,,,,,,,,,,,,,,,,,,,,,,,,,30.84940619999543,None,"['2', '3']",1,"[-0.010165400002733804, 0.06990899999800604]",30.84940619999543,None,,,,001,2021_Nov_17_1507,TMTAB,2021.2.3,144.07976256678637,
16,['1'],TMTstop-control_1_1linestimulus13.png,TMTstop-control_1_1greenlinestimulus13.png,TMTstop-control_1_1redlinestimulus13.png,None,,,,,,,,,0,15,15,15,,,,,,,,,,,,,,,,,,,,,,,,,,,,,,,,,,,,,,,,,,,,,,,,,,,31.00184050000098,None,['1'],1,[0.04395589999330696],31.00184050000098,None,,,,001,2021_Nov_17_1507,TMTAB,2021.2.3,144.07976256678637,
17,['2'],TMTstop-control_1_1linestimulus14.png,TMTstop-control_1_1greenlinestimulus14.png,TMTstop-control_1_1redlinestimulus14.png,None,,,,,,,,,0,16,16,16,,,,,,,,,,,,,,,,,,,,,,,,,,,,,,,,,,,,,,,,,,,,,,,,,,,31.141733399999794,None,['2'],1,[-0.028408400001353584],31.141733399999794,None,,,,001,2021_Nov_17_1507,TMTAB,2021.2.3,144.07976256678637,
18,['1'],TMTstop-control_1_1linestimulus15.png,TMTstop-control_1_1greenlinestimulus15.png,TMTstop-control_1_1redlinestimulus15.png,None,,,,,,,,,0,17,17,17,,,,,,,,,,,,,,,,,,,,,,,,,,,,,,,,,,,,,,,,,,,,,,,,,,,31.217210100003285,None,"['3', '1']",1,"[-0.000836199993500486, 0.11563390000083018]",31.217210100003285,None,,,,001,2021_Nov_17_1507,TMTAB,2021.2.3,144.07976256678637,
19,['3'],TMTstop-control_1_1linestimulus16.png,TMTstop-control_1_1greenlinestimulus16.png,TMTstop-control_1_1redlinestimulus16.png,None,,,,,,,,,0,18,18,18,,,,,,,,,,,,,,,,,,,,,,,,,,,,,,,,,,,,,,,,,,,,,,,,,,,31.411143799996353,None,"['2', '3']",1,"[-0.014139999999315478, 0.09070929999870714]",31.411143799996353,None,,,,001,2021_Nov_17_1507,TMTAB,2021.2.3,144.07976256678637,
20,['1'],TMTstop-control_1_1linestimulus17.png,TMTstop-control_1_1greenlinestimulus17.png,TMTstop-control_1_1redlinestimulus17.png,None,,,,,,,,,0,19,19,19,,,,,,,,,,,,,,,,,,,,,,,,,,,,,,,,,,,,,,,,,,,,,,,,,,,31.605719500003033,None,['1'],1,[0.02012299999478273],31.605719500003033,None,,,,001,2021_Nov_17_1507,TMTAB,2021.2.3,144.07976256678637,
21,['3'],TMTstop-control_1_1linestimulus18.png,TMTstop-control_1_1greenlinestimulus18.png,TMTstop-control_1_1redlinestimulus18.png,None,,,,,,,,,0,20,20,20,,,,,,,,,,,,,,,,,,,,,,,,,,,,,,,,,,,,,,,,,,,,,,,,,,,31.70431169999938,None,"['2', '3']",1,"[-0.021586099988780916, 0.09256350000214297]",31.70431169999938,None,,,,001,2021_Nov_17_1507,TMTAB,2021.2.3,144.07976256678637,
22,['1'],TMTstop-control_1_1linestimulus19.png,TMTstop-control_1_1greenlinestimulus19.png,TMTstop-control_1_1redlinestimulus19.png,None,,,,,,,,,0,21,21,21,,,,,,,,,,,,,,,,,,,,,,,,,,,,,,,,,,,,,,,,,,,,,,,,,,,31.869749499994214,None,['1'],1,[0.06410580000374466],31.869749499994214,None,,,,001,2021_Nov_17_1507,TMTAB,2021.2.3,144.07976256678637,
23,['3'],TMTstop-control_1_1linestimulus20.png,TMTstop-control_1_1greenlinestimulus20.png,TMTstop-control_1_1redlinestimulus20.png,None,,,,,,,,,0,22,22,22,,,,,,,,,,,,,,,,,,,,,,,,,,,,,,,,,,,,,,,,,,,,,,,,,,,32.00881149999623,None,"['2', '3']",1,"[0.012553900000057183, 0.10623000000487082]",32.00881149999623,None,,,,001,2021_Nov_17_1507,TMTAB,2021.2.3,144.07976256678637,
24,['1'],TMTstop-control_1_1linestimulus21.png,TMTstop-control_1_1greenlinestimulus21.png,TMTstop-control_1_1redlinestimulus21.png,None,,,,,,,,,0,23,23,23,,,,,,,,,,,,,,,,,,,,,,,,,,,,,,,,,,,,,,,,,,,,,,,,,,,32.21006729999499,None,['1'],1,[0.05184320000989828],32.21006729999499,None,,,,001,2021_Nov_17_1507,TMTAB,2021.2.3,144.07976256678637,
25,['3'],TMTstop-control_1_1linestimulus22.png,TMTstop-control_1_1greenlinestimulus22.png,TMTstop-control_1_1redlinestimulus22.png,None,,,,,,,,,0,24,24,24,,,,,,,,,,,,,,,,,,,,,,,,,,,,,,,,,,,,,,,,,,,,,,,,,,,32.34896089999529,None,"['2', '3']",1,"[-0.03474580000329297, 0.0832512999913888]",32.34896089999529,None,,,,001,2021_Nov_17_1507,TMTAB,2021.2.3,144.07976256678637,
None,None,TMTstop-control_1_1linestimulus23.png,TMTstop-control_1_1greenlinestimulus23.png,TMTstop-control_1_1redlinestimulus23.png,None,,,,,,,,,0,25,25,25,,,,,,,,,,,,,,,,,,,,,,,,,,,,,,,,,,,,,,,,,,,,,,,,,,,32.501813399998355,None,"['1', '2']",0,"[0.0721068999991985, 0.10855889999947976]",32.501813399998355,None,,,,001,2021_Nov_17_1507,TMTAB,2021.2.3,144.07976256678637,
A,['3'],TMTstop-control_1_a.png,TMTstop-control_1_a.png,TMTstop-control_1_a.png,10,,,,,,,,,,,,,0,0,0,0,,,,,,,,,,,,,,,,,,,,,,,,,,,,,,,,,33.548164399995585,None,,,,,,,,,,,,,36.584667400005856,None,"['1', '2', '3']",1,"[0.47535759999300353, 0.5552350999932969, 0.6702702999900794]",36.584667400005856,None,,,,001,2021_Nov_17_1507,TMTAB,2021.2.3,144.07976256678637,
B,['1'],TMTstop-control_1_a.png,TMTstop-control_1_afirstgreen.png,TMTstop-control_1_afirstred.png,10,,,,,,,,,,,,,0,1,1,1,,,,,,,,,,,,,,,,,,,,,,,,,,,,,,,,,,,,,,,,,,,,,,,37.32845400000224,None,['1'],1,[0.2818515999970259],37.32845400000224,None,,,,001,2021_Nov_17_1507,TMTAB,2021.2.3,144.07976256678637,
C,['3'],TMTstop-control_1_alinestimulus0.png,TMTstop-control_1_agreenlinestimulus0.png,TMTstop-control_1_aredlinestimulus0.png,10,,,,,,,,,,,,,0,2,2,2,,,,,,,,,,,,,,,,,,,,,,,,,,,,,,,,,,,,,,,,,,,,,,,37.703584100003354,None,"['2', '3']",1,"[-0.005415700012235902, 0.08518759999424219]",37.703584100003354,None,,,,001,2021_Nov_17_1507,TMTAB,2021.2.3,144.07976256678637,
D,['2'],TMTstop-control_1_alinestimulus1.png,TMTstop-control_1_agreenlinestimulus1.png,TMTstop-control_1_aredlinestimulus1.png,10,,,,,,,,,,,,,0,3,3,3,,,,,,,,,,,,,,,,,,,,,,,,,,,,,,,,,,,,,,,,,,,,,,,37.86957599999732,None,"['1', '2']",1,"[0.07111520000034943, 0.13787030000821687]",37.86957599999732,None,,,,001,2021_Nov_17_1507,TMTAB,2021.2.3,144.07976256678637,
E,['1'],TMTstop-control_1_alinestimulus2.png,TMTstop-control_1_agreenlinestimulus2.png,TMTstop-control_1_aredlinestimulus2.png,10,,,,,,,,,,,,,0,4,4,4,,,,,,,,,,,,,,,,,,,,,,,,,,,,,,,,,,,,,,,,,,,,,,,38.098752999998396,None,"['3', '1']",1,"[0.010888899996643886, 0.14191439999558497]",38.098752999998396,None,,,,001,2021_Nov_17_1507,TMTAB,2021.2.3,144.07976256678637,
F,['3'],TMTstop-control_1_alinestimulus3.png,TMTstop-control_1_agreenlinestimulus3.png,TMTstop-control_1_aredlinestimulus3.png,10,,,,,,,,,,,,,0,5,5,5,,,,,,,,,,,,,,,,,,,,,,,,,,,,,,,,,,,,,,,,,,,,,,,38.34175740000501,None,"['2', '3']",1,"[-0.046403700005612336, 0.07519039999169763]",38.34175740000501,None,,,,001,2021_Nov_17_1507,TMTAB,2021.2.3,144.07976256678637,
G,['2'],TMTstop-control_1_alinestimulus4.png,TMTstop-control_1_agreenlinestimulus4.png,TMTstop-control_1_aredlinestimulus4.png,10,,,,,,,,,,,,,0,6,6,6,,,,,,,,,,,,,,,,,,,,,,,,,,,,,,,,,,,,,,,,,,,,,,,38.48770460000378,None,"['1', '2']",1,"[0.051949999993667006, 0.12093029999232385]",38.48770460000378,None,,,,001,2021_Nov_17_1507,TMTAB,2021.2.3,144.07976256678637,
H,['3'],TMTstop-control_1_alinestimulus5.png,TMTstop-control_1_agreenlinestimulus5.png,TMTstop-control_1_aredlinestimulus5.png,10,,,,,,,,,,,,,0,7,7,7,,,,,,,,,,,,,,,,,,,,,,,,,,,,,,,,,,,,,,,,,,,,,,,38.70296809999854,None,['3'],1,[0.015474400002858602],38.70296809999854,None,,,,001,2021_Nov_17_1507,TMTAB,2021.2.3,144.07976256678637,
I,['1'],TMTstop-control_1_alinestimulus6.png,TMTstop-control_1_agreenlinestimulus6.png,TMTstop-control_1_aredlinestimulus6.png,10,,,,,,,,,,,,,0,8,8,8,,,,,,,,,,,,,,,,,,,,,,,,,,,,,,,,,,,,,,,,,,,,,,,38.800229400003445,None,['1'],1,[0.04821010000887327],38.800229400003445,None,,,,001,2021_Nov_17_1507,TMTAB,2021.2.3,144.07976256678637,
J,['2'],TMTstop-control_1_alinestimulus7.png,TMTstop-control_1_agreenlinestimulus7.png,TMTstop-control_1_aredlinestimulus7.png,10,,,,,,,,,,,,,0,9,9,9,,,,,,,,,,,,,,,,,,,,,,,,,,,,,,,,,,,,,,,,,,,,,,,38.91843360000348,None,['2'],1,[-0.008947900001658127],38.91843360000348,None,,,,001,2021_Nov_17_1507,TMTAB,2021.2.3,144.07976256678637,
K,['3'],TMTstop-control_1_alinestimulus8.png,TMTstop-control_1_agreenlinestimulus8.png,TMTstop-control_1_aredlinestimulus8.png,10,,,,,,,,,,,,,0,10,10,10,,,,,,,,,,,,,,,,,,,,,,,,,,,,,,,,,,,,,,,,,,,,,,,38.987782700001844,None,['3'],1,[0.030782300003920682],38.987782700001844,None,,,,001,2021_Nov_17_1507,TMTAB,2021.2.3,144.07976256678637,
L,['1'],TMTstop-control_1_alinestimulus9.png,TMTstop-control_1_agreenlinestimulus9.png,TMTstop-control_1_aredlinestimulus9.png,10,,,,,,,,,,,,,0,11,11,11,,,,,,,,,,,,,,,,,,,,,,,,,,,,,,,,,,,,,,,,,,,,,,,39.091868300005444,None,['1'],1,[0.04057260000263341],39.091868300005444,None,,,,001,2021_Nov_17_1507,TMTAB,2021.2.3,144.07976256678637,
M,['3'],TMTstop-control_1_alinestimulus10.png,TMTstop-control_1_agreenlinestimulus10.png,TMTstop-control_1_aredlinestimulus10.png,1,,,,,,,,,,,,,0,12,12,12,,,,,,,,,,,,,,,,,,,,,,,,,,,,,,,,,,,,,,,,,,,,,,,39.209992100004456,None,"['2', '3']",1,"[-0.008886900002835318, 0.08859899999515619]",39.209992100004456,None,,,,001,2021_Nov_17_1507,TMTAB,2021.2.3,144.07976256678637,
N,['2'],TMTstop-control_1_alinestimulus11.png,TMTstop-control_1_agreenlinestimulus11.png,TMTstop-control_1_aredlinestimulus11.png,None,,,,,,,,,,,,,0,13,13,13,,,,,,,,,,,,,,,,,,,,,,,,,,,,,,,,,,,,,,,,,,,,,,,39.39739119999285,None,"['1', '2']",1,"[0.04688870000245515, 0.1198729000025196]",39.39739119999285,None,,,,001,2021_Nov_17_1507,TMTAB,2021.2.3,144.07976256678637,
O,['1'],TMTstop-control_1_alinestimulus12.png,TMTstop-control_1_agreenlinestimulus12.png,TMTstop-control_1_aredlinestimulus12.png,None,,,,,,,,,,,,,0,14,14,14,,,,,,,,,,,,,,,,,,,,,,,,,,,,,,,,,,,,,,,,,,,,,,,39.59180779999588,None,['1'],1,[0.4111204000073485],39.59180779999588,None,,,,001,2021_Nov_17_1507,TMTAB,2021.2.3,144.07976256678637,
P,['3'],TMTstop-control_1_alinestimulus13.png,TMTstop-control_1_agreenlinestimulus13.png,TMTstop-control_1_aredlinestimulus13.png,None,,,,,,,,,,,,,0,15,15,15,,,,,,,,,,,,,,,,,,,,,,,,,,,,,,,,,,,,,,,,,,,,,,,40.084732699993765,None,"['1', '3']",1,"[0.302633599989349, 0.49042229999031406]",40.084732699993765,None,,,,001,2021_Nov_17_1507,TMTAB,2021.2.3,144.07976256678637,
Q,['2'],TMTstop-control_1_alinestimulus14.png,TMTstop-control_1_agreenlinestimulus14.png,TMTstop-control_1_aredlinestimulus14.png,None,,,,,,,,,,,,,0,16,16,16,,,,,,,,,,,,,,,,,,,,,,,,,,,,,,,,,,,,,,,,,,,,,,,40.66819310000574,None,"['1', '2']",1,"[0.0801497000065865, 0.16717380000045523]",40.66819310000574,None,,,,001,2021_Nov_17_1507,TMTAB,2021.2.3,144.07976256678637,
R,['3'],TMTstop-control_1_alinestimulus15.png,TMTstop-control_1_agreenlinestimulus15.png,TMTstop-control_1_aredlinestimulus15.png,None,,,,,,,,,,,,,0,17,17,17,,,,,,,,,,,,,,,,,,,,,,,,,,,,,,,,,,,,,,,,,,,,,,,40.904411499999696,None,['3'],1,[0.037171999996644445],40.904411499999696,None,,,,001,2021_Nov_17_1507,TMTAB,2021.2.3,144.07976256678637,
S,['2'],TMTstop-control_1_alinestimulus16.png,TMTstop-control_1_agreenlinestimulus16.png,TMTstop-control_1_aredlinestimulus16.png,None,,,,,,,,,,,,,0,18,18,18,,,,,,,,,,,,,,,,,,,,,,,,,,,,,,,,,,,,,,,,,,,,,,,41.01548420000472,None,"['1', '2']",1,"[0.06684300000779331, 0.1442723000072874]",41.01548420000472,None,,,,001,2021_Nov_17_1507,TMTAB,2021.2.3,144.07976256678637,
T,['1'],TMTstop-control_1_alinestimulus17.png,TMTstop-control_1_agreenlinestimulus17.png,TMTstop-control_1_aredlinestimulus17.png,None,,,,,,,,,,,,,0,19,19,19,,,,,,,,,,,,,,,,,,,,,,,,,,,,,,,,,,,,,,,,,,,,,,,41.237624899993534,None,"['3', '1']",1,"[0.019487900004605763, 0.15167310000106227]",41.237624899993534,None,,,,001,2021_Nov_17_1507,TMTAB,2021.2.3,144.07976256678637,
U,['3'],TMTstop-control_1_alinestimulus18.png,TMTstop-control_1_agreenlinestimulus18.png,TMTstop-control_1_aredlinestimulus18.png,None,,,,,,,,,,,,,0,20,20,20,,,,,,,,,,,,,,,,,,,,,,,,,,,,,,,,,,,,,,,,,,,,,,,41.494529499992495,None,"['2', '3']",1,"[-0.0271779000031529, 0.05970859999069944]",41.494529499992495,None,,,,001,2021_Nov_17_1507,TMTAB,2021.2.3,144.07976256678637,
V,['2'],TMTstop-control_1_alinestimulus19.png,TMTstop-control_1_agreenlinestimulus19.png,TMTstop-control_1_aredlinestimulus19.png,None,,,,,,,,,,,,,0,21,21,21,,,,,,,,,,,,,,,,,,,,,,,,,,,,,,,,,,,,,,,,,,,,,,,41.63335419999203,None,"['1', '2']",1,"[0.05206909999833442, 0.11540699999022763]",41.63335419999203,None,,,,001,2021_Nov_17_1507,TMTAB,2021.2.3,144.07976256678637,
W,['1'],TMTstop-control_1_alinestimulus20.png,TMTstop-control_1_agreenlinestimulus20.png,TMTstop-control_1_aredlinestimulus20.png,None,,,,,,,,,,,,,0,22,22,22,,,,,,,,,,,,,,,,,,,,,,,,,,,,,,,,,,,,,,,,,,,,,,,41.84885910000594,None,"['3', '1']",1,"[0.0035112999903503805, 0.13350709999212995]",41.84885910000594,None,,,,001,2021_Nov_17_1507,TMTAB,2021.2.3,144.07976256678637,
X,['2'],TMTstop-control_1_alinestimulus21.png,TMTstop-control_1_agreenlinestimulus21.png,TMTstop-control_1_aredlinestimulus21.png,None,,,,,,,,,,,,,0,23,23,23,,,,,,,,,,,,,,,,,,,,,,,,,,,,,,,,,,,,,,,,,,,,,,,42.08487389999209,None,['2'],1,[-0.024675000007846393],42.08487389999209,None,,,,001,2021_Nov_17_1507,TMTAB,2021.2.3,144.07976256678637,
Y,['1'],TMTstop-control_1_alinestimulus22.png,TMTstop-control_1_agreenlinestimulus22.png,TMTstop-control_1_aredlinestimulus22.png,None,,,,,,,,,,,,,0,24,24,24,,,,,,,,,,,,,,,,,,,,,,,,,,,,,,,,,,,,,,,,,,,,,,,42.15420400000585,None,"['3', '1']",1,"[-0.004417599993757904, 0.13149879999400582]",42.15420400000585,None,,,,001,2021_Nov_17_1507,TMTAB,2021.2.3,144.07976256678637,
None,None,TMTstop-control_1_alinestimulus23.png,TMTstop-control_1_agreenlinestimulus23.png,TMTstop-control_1_aredlinestimulus23.png,None,,,,,,,,,,,,,0,25,25,25,,,,,,,,,,,,,,,,,,,,,,,,,,,,,,,,,,,,,,,,,,,,,,,42.390251100005116,None,None,1,,42.390251100005116,None,,,,001,2021_Nov_17_1507,TMTAB,2021.2.3,144.07976256678637,
1,['1'],TMTstop-control_1_2.png,TMTstop-control_1_2.png,TMTstop-control_1_2.png,10,,,,,,,,,,,,,,,,,0,0,0,0,,,,,,,,,,,,,,,,,,,,,,,,,,,,,43.395023899996886,None,,,,,,,,,,,,,46.445855500001926,None,['1'],1,[1.6722133000002941],46.445855500001926,None,,,,001,2021_Nov_17_1507,TMTAB,2021.2.3,144.07976256678637,
2,['3'],TMTstop-control_1_2.png,TMTstop-control_1_2firstgreen.png,TMTstop-control_1_2firstred.png,10,,,,,,,,,,,,,,,,,0,1,1,1,,,,,,,,,,,,,,,,,,,,,,,,,,,,,,,,,,,,,,,,,,,48.203261899994686,None,"['2', '3']",1,"[0.05184120000922121, 0.12527350000164006]",48.203261899994686,None,,,,001,2021_Nov_17_1507,TMTAB,2021.2.3,144.07976256678637,
3,['2'],TMTstop-control_1_2linestimulus0.png,TMTstop-control_1_2greenlinestimulus0.png,TMTstop-control_1_2redlinestimulus0.png,10,,,,,,,,,,,,,,,,,0,2,2,2,,,,,,,,,,,,,,,,,,,,,,,,,,,,,,,,,,,,,,,,,,,48.41090210000402,None,"['1', '2']",1,"[0.09309500000381377, 0.16542040000786074]",48.41090210000402,None,,,,001,2021_Nov_17_1507,TMTAB,2021.2.3,144.07976256678637,
4,['3'],TMTstop-control_1_2linestimulus1.png,TMTstop-control_1_2greenlinestimulus1.png,TMTstop-control_1_2redlinestimulus1.png,10,,,,,,,,,,,,,,,,,0,3,3,3,,,,,,,,,,,,,,,,,,,,,,,,,,,,,,,,,,,,,,,,,,,48.661059499994735,None,['3'],1,[0.016630099999019876],48.661059499994735,None,,,,001,2021_Nov_17_1507,TMTAB,2021.2.3,144.07976256678637,
5,['1'],TMTstop-control_1_2linestimulus2.png,TMTstop-control_1_2greenlinestimulus2.png,TMTstop-control_1_2redlinestimulus2.png,10,,,,,,,,,,,,,,,,,0,4,4,4,,,,,,,,,,,,,,,,,,,,,,,,,,,,,,,,,,,,,,,,,,,48.75836969999364,None,['1'],1,[0.04112619999796152],48.75836969999364,None,,,,001,2021_Nov_17_1507,TMTAB,2021.2.3,144.07976256678637,
6,['3'],TMTstop-control_1_2linestimulus3.png,TMTstop-control_1_2greenlinestimulus3.png,TMTstop-control_1_2redlinestimulus3.png,10,,,,,,,,,,,,,,,,,0,5,5,5,,,,,,,,,,,,,,,,,,,,,,,,,,,,,,,,,,,,,,,,,,,48.87641280000389,None,"['2', '3']",1,"[-0.02341080000041984, 0.07833699999901]",48.87641280000389,None,,,,001,2021_Nov_17_1507,TMTAB,2021.2.3,144.07976256678637,
7,['2'],TMTstop-control_1_2linestimulus4.png,TMTstop-control_1_2greenlinestimulus4.png,TMTstop-control_1_2redlinestimulus4.png,10,,,,,,,,,,,,,,,,,0,6,6,6,,,,,,,,,,,,,,,,,,,,,,,,,,,,,,,,,,,,,,,,,,,49.063804299992626,None,"['1', '2']",1,"[0.03802510000241455, 0.08042440000281204]",49.063804299992626,None,,,,001,2021_Nov_17_1507,TMTAB,2021.2.3,144.07976256678637,
8,['1'],TMTstop-control_1_2linestimulus4.png,TMTstop-control_1_2greenlinestimulus5.png,TMTstop-control_1_2redlinestimulus5.png,10,,,,,,,,,,,,,,,,,0,7,7,7,,,,,,,,,,,,,,,,,,,,,,,,,,,,,,,,,,,,,,,,,,,49.23030799999833,None,"['3', '1']",1,"[0.040512999999918975, 0.18346859999292064]",49.23030799999833,None,,,,001,2021_Nov_17_1507,TMTAB,2021.2.3,144.07976256678637,
9,['2'],TMTstop-control_1_2linestimulus6.png,TMTstop-control_1_2greenlinestimulus6.png,TMTstop-control_1_2redlinestimulus6.png,10,,,,,,,,,,,,,,,,,0,8,8,8,,,,,,,,,,,,,,,,,,,,,,,,,,,,,,,,,,,,,,,,,,,49.501196600002004,None,['2'],1,[-0.05100320000201464],49.501196600002004,None,,,,001,2021_Nov_17_1507,TMTAB,2021.2.3,144.07976256678637,
10,['3'],TMTstop-control_1_2linestimulus7.png,TMTstop-control_1_2greenlinestimulus7.png,TMTstop-control_1_2redlinestimulus7.png,10,,,,,,,,,,,,,,,,,0,9,9,9,,,,,,,,,,,,,,,,,,,,,,,,,,,,,,,,,,,,,,,,,,,49.584736499993596,None,['3'],1,[-0.010242000003927387],49.584736499993596,None,,,,001,2021_Nov_17_1507,TMTAB,2021.2.3,144.07976256678637,
11,['1'],TMTstop-control_1_2linestimulus8.png,TMTstop-control_1_2greenlinestimulus8.png,TMTstop-control_1_2redlinestimulus8.png,10,,,,,,,,,,,,,,,,,0,10,10,10,,,,,,,,,,,,,,,,,,,,,,,,,,,,,,,,,,,,,,,,,,,49.660911099999794,None,['1'],1,[0.04974979998951312],49.660911099999794,None,,,,001,2021_Nov_17_1507,TMTAB,2021.2.3,144.07976256678637,
12,['2'],TMTstop-control_1_2linestimulus9.png,TMTstop-control_1_2greenlinestimulus9.png,TMTstop-control_1_2redlinestimulus9.png,10,,,,,,,,,,,,,,,,,0,11,11,11,,,,,,,,,,,,,,,,,,,,,,,,,,,,,,,,,,,,,,,,,,,49.78647779999301,None,['2'],1,[-0.01795459999993909],49.78647779999301,None,,,,001,2021_Nov_17_1507,TMTAB,2021.2.3,144.07976256678637,
13,['3'],TMTstop-control_1_2linestimulus10.png,TMTstop-control_1_2greenlinestimulus10.png,TMTstop-control_1_2redlinestimulus10.png,1,,,,,,,,,,,,,,,,,0,12,12,12,,,,,,,,,,,,,,,,,,,,,,,,,,,,,,,,,,,,,,,,,,,49.862140199998976,None,['3'],1,[0.00820279998879414],49.862140199998976,None,,,,001,2021_Nov_17_1507,TMTAB,2021.2.3,144.07976256678637,
14,['1'],TMTstop-control_1_2linestimulus11.png,TMTstop-control_1_2greenlinestimulus11.png,TMTstop-control_1_2redlinestimulus11.png,None,,,,,,,,,,,,,,,,,0,13,13,13,,,,,,,,,,,,,,,,,,,,,,,,,,,,,,,,,,,,,,,,,,,49.94588250000379,None,['1'],1,[0.06172320000769105],49.94588250000379,None,,,,001,2021_Nov_17_1507,TMTAB,2021.2.3,144.07976256678637,
15,['2'],TMTstop-control_1_2linestimulus12.png,TMTstop-control_1_2greenlinestimulus12.png,TMTstop-control_1_2redlinestimulus12.png,None,,,,,,,,,,,,,,,,,0,14,14,14,,,,,,,,,,,,,,,,,,,,,,,,,,,,,,,,,,,,,,,,,,,50.084422800005996,None,['2'],1,[-0.034976900002220646],50.084422800005996,None,,,,001,2021_Nov_17_1507,TMTAB,2021.2.3,144.07976256678637,
16,['1'],TMTstop-control_1_2linestimulus13.png,TMTstop-control_1_2greenlinestimulus13.png,TMTstop-control_1_2redlinestimulus13.png,None,,,,,,,,,,,,,,,,,0,15,15,15,,,,,,,,,,,,,,,,,,,,,,,,,,,,,,,,,,,,,,,,,,,50.15392179999617,None,"['3', '1']",1,"[0.03264350000245031, 0.16157440000097267]",50.15392179999617,None,,,,001,2021_Nov_17_1507,TMTAB,2021.2.3,144.07976256678637,
17,['2'],TMTstop-control_1_2linestimulus14.png,TMTstop-control_1_2greenlinestimulus14.png,TMTstop-control_1_2redlinestimulus14.png,None,,,,,,,,,,,,,,,,,0,16,16,16,,,,,,,,,,,,,,,,,,,,,,,,,,,,,,,,,,,,,,,,,,,50.39042339999287,None,['2'],1,[-0.016474299991386943],50.39042339999287,None,,,,001,2021_Nov_17_1507,TMTAB,2021.2.3,144.07976256678637,
18,['1'],TMTstop-control_1_2linestimulus15.png,TMTstop-control_1_2greenlinestimulus15.png,TMTstop-control_1_2redlinestimulus15.png,None,,,,,,,,,,,,,,,,,0,17,17,17,,,,,,,,,,,,,,,,,,,,,,,,,,,,,,,,,,,,,,,,,,,50.459547399994335,None,"['3', '1']",1,"[0.024101600007270463, 0.1540034000063315]",50.459547399994335,None,,,,001,2021_Nov_17_1507,TMTAB,2021.2.3,144.07976256678637,
19,['3'],TMTstop-control_1_2linestimulus16.png,TMTstop-control_1_2greenlinestimulus16.png,TMTstop-control_1_2redlinestimulus16.png,None,,,,,,,,,,,,,,,,,0,18,18,18,,,,,,,,,,,,,,,,,,,,,,,,,,,,,,,,,,,,,,,,,,,50.71659840000211,None,"['2', '3']",1,"[-0.05912710000120569, 0.07990369999606628]",50.71659840000211,None,,,,001,2021_Nov_17_1507,TMTAB,2021.2.3,144.07976256678637,
20,['1'],TMTstop-control_1_2linestimulus17.png,TMTstop-control_1_2greenlinestimulus17.png,TMTstop-control_1_2redlinestimulus17.png,None,,,,,,,,,,,,,,,,,0,19,19,19,,,,,,,,,,,,,,,,,,,,,,,,,,,,,,,,,,,,,,,,,,,50.86921029999212,None,['1'],1,[0.05828539999492932],50.86921029999212,None,,,,001,2021_Nov_17_1507,TMTAB,2021.2.3,144.07976256678637,
21,['2'],TMTstop-control_1_2linestimulus18.png,TMTstop-control_1_2greenlinestimulus18.png,TMTstop-control_1_2redlinestimulus18.png,None,,,,,,,,,,,,,,,,,0,20,20,20,,,,,,,,,,,,,,,,,,,,,,,,,,,,,,,,,,,,,,,,,,,51.00130809999246,None,['2'],1,[-0.02224249999562744],51.00130809999246,None,,,,001,2021_Nov_17_1507,TMTAB,2021.2.3,144.07976256678637,
22,['1'],TMTstop-control_1_2linestimulus19.png,TMTstop-control_1_2greenlinestimulus19.png,TMTstop-control_1_2redlinestimulus19.png,None,,,,,,,,,,,,,,,,,0,21,21,21,,,,,,,,,,,,,,,,,,,,,,,,,,,,,,,,,,,,,,,,,,,51.07096300000558,None,"['3', '1']",1,"[0.022809699992649257, 0.15389969998796005]",51.07096300000558,None,,,,001,2021_Nov_17_1507,TMTAB,2021.2.3,144.07976256678637,
23,['3'],TMTstop-control_1_2linestimulus20.png,TMTstop-control_1_2greenlinestimulus20.png,TMTstop-control_1_2redlinestimulus20.png,None,,,,,,,,,,,,,,,,,0,22,22,22,,,,,,,,,,,,,,,,,,,,,,,,,,,,,,,,,,,,,,,,,,,51.32058010000037,None,"['2', '3']",1,"[-0.036770599996089004, 0.08306249999441206]",51.32058010000037,None,,,,001,2021_Nov_17_1507,TMTAB,2021.2.3,144.07976256678637,
24,['1'],TMTstop-control_1_2linestimulus21.png,TMTstop-control_1_2greenlinestimulus21.png,TMTstop-control_1_2redlinestimulus21.png,None,,,,,,,,,,,,,,,,,0,23,23,23,,,,,,,,,,,,,,,,,,,,,,,,,,,,,,,,,,,,,,,,,,,51.47357319999719,None,['1'],1,[0.08129080000799149],51.47357319999719,None,,,,001,2021_Nov_17_1507,TMTAB,2021.2.3,144.07976256678637,
25,['3'],TMTstop-control_1_2linestimulus22.png,TMTstop-control_1_2greenlinestimulus22.png,TMTstop-control_1_2redlinestimulus22.png,None,,,,,,,,,,,,,,,,,0,24,24,24,,,,,,,,,,,,,,,,,,,,,,,,,,,,,,,,,,,,,,,,,,,51.62634329999855,None,"['2', '3']",1,"[-0.014825099991867319, 0.08913200000824872]",51.62634329999855,None,,,,001,2021_Nov_17_1507,TMTAB,2021.2.3,144.07976256678637,
None,None,TMTstop-control_1_2linestimulus23.png,TMTstop-control_1_2greenlinestimulus23.png,TMTstop-control_1_2redlinestimulus23.png,None,,,,,,,,,,,,,,,,,0,25,25,25,,,,,,,,,,,,,,,,,,,,,,,,,,,,,,,,,,,,,,,,,,,51.82052350000595,None,['1'],0,[0.03716190000704955],51.82052350000595,None,,,,001,2021_Nov_17_1507,TMTAB,2021.2.3,144.07976256678637,
A,['1'],TMTstop-control_1_b.png,TMTstop-control_1_b.png,TMTstop-control_1_b.png,10,,,,,,,,,,,,,,,,,,,,,0,0,0,0,,,,,,,,,,,,,,,,,,,,,,,,,52.86704230000032,None,,,,,,,,,,,,,55.896763500000816,None,['1'],1,[0.8072863999987021],55.896763500000816,None,,,,001,2021_Nov_17_1507,TMTAB,2021.2.3,144.07976256678637,
B,['2'],TMTstop-control_1_b.png,TMTstop-control_1_bfirstgreen.png,TMTstop-control_1_bfirstred.png,10,,,,,,,,,,,,,,,,,,,,,0,1,1,1,,,,,,,,,,,,,,,,,,,,,,,,,,,,,,,,,,,,,,,56.77895599999465,None,['2'],1,[0.014593100000638515],56.77895599999465,None,,,,001,2021_Nov_17_1507,TMTAB,2021.2.3,144.07976256678637,
C,['1'],TMTstop-control_1_blinestimulus0.png,TMTstop-control_1_bgreenlinestimulus0.png,TMTstop-control_1_bredlinestimulus0.png,10,,,,,,,,,,,,,,,,,,,,,0,2,2,2,,,,,,,,,,,,,,,,,,,,,,,,,,,,,,,,,,,,,,,56.86921550000261,None,"['3', '1']",1,"[0.02196479999111034, 0.16291289999207947]",56.86921550000261,None,,,,001,2021_Nov_17_1507,TMTAB,2021.2.3,144.07976256678637,
D,['3'],TMTstop-control_1_blinestimulus1.png,TMTstop-control_1_bgreenlinestimulus1.png,TMTstop-control_1_bredlinestimulus1.png,10,,,,,,,,,,,,,,,,,,,,,0,3,3,3,,,,,,,,,,,,,,,,,,,,,,,,,,,,,,,,,,,,,,,57.12622019999253,None,"['2', '3']",1,"[-0.03939890000037849, 0.06642920000012964]",57.12622019999253,None,,,,001,2021_Nov_17_1507,TMTAB,2021.2.3,144.07976256678637,
E,['1'],TMTstop-control_1_blinestimulus2.png,TMTstop-control_1_bgreenlinestimulus2.png,TMTstop-control_1_bredlinestimulus2.png,10,,,,,,,,,,,,,,,,,,,,,0,4,4,4,,,,,,,,,,,,,,,,,,,,,,,,,,,,,,,,,,,,,,,57.27905660000397,None,['1'],1,[0.020438299994566478],57.27905660000397,None,,,,001,2021_Nov_17_1507,TMTAB,2021.2.3,144.07976256678637,
F,['3'],TMTstop-control_1_blinestimulus3.png,TMTstop-control_1_bgreenlinestimulus3.png,TMTstop-control_1_bredlinestimulus3.png,10,,,,,,,,,,,,,,,,,,,,,0,5,5,5,,,,,,,,,,,,,,,,,,,,,,,,,,,,,,,,,,,,,,,57.376238900003955,None,"['2', '3']",1,"[-0.01588859999901615, 0.08228820000658743]",57.376238900003955,None,,,,001,2021_Nov_17_1507,TMTAB,2021.2.3,144.07976256678637,
G,['2'],TMTstop-control_1_blinestimulus4.png,TMTstop-control_1_bgreenlinestimulus4.png,TMTstop-control_1_bredlinestimulus4.png,10,,,,,,,,,,,,,,,,,,,,,0,6,6,6,,,,,,,,,,,,,,,,,,,,,,,,,,,,,,,,,,,,,,,57.563483299993095,None,"['1', '2']",1,"[0.005128999997396022, 0.06944239999575075]",57.563483299993095,None,,,,001,2021_Nov_17_1507,TMTAB,2021.2.3,144.07976256678637,
H,['1'],TMTstop-control_1_blinestimulus5.png,TMTstop-control_1_bgreenlinestimulus5.png,TMTstop-control_1_bredlinestimulus5.png,10,,,,,,,,,,,,,,,,,,,,,0,7,7,7,,,,,,,,,,,,,,,,,,,,,,,,,,,,,,,,,,,,,,,57.716556300001685,None,"['3', '1']",1,"[0.010063599998829886, 0.11975369999709073]",57.716556300001685,None,,,,001,2021_Nov_17_1507,TMTAB,2021.2.3,144.07976256678637,
I,['3'],TMTstop-control_1_blinestimulus6.png,TMTstop-control_1_bgreenlinestimulus6.png,TMTstop-control_1_bredlinestimulus6.png,10,,,,,,,,,,,,,,,,,,,,,0,8,8,8,,,,,,,,,,,,,,,,,,,,,,,,,,,,,,,,,,,,,,,57.91084569999657,None,"['2', '3']",1,"[0.0053552000026684254, 0.10121930000605062]",57.91084569999657,None,,,,001,2021_Nov_17_1507,TMTAB,2021.2.3,144.07976256678637,
J,['1'],TMTstop-control_1_blinestimulus7.png,TMTstop-control_1_bgreenlinestimulus7.png,TMTstop-control_1_bredlinestimulus7.png,10,,,,,,,,,,,,,,,,,,,,,0,9,9,9,,,,,,,,,,,,,,,,,,,,,,,,,,,,,,,,,,,,,,,58.11219840000558,None,['1'],1,[0.021948499997961335],58.11219840000558,None,,,,001,2021_Nov_17_1507,TMTAB,2021.2.3,144.07976256678637,
K,['2'],TMTstop-control_1_blinestimulus8.png,TMTstop-control_1_bgreenlinestimulus8.png,TMTstop-control_1_bredlinestimulus8.png,10,,,,,,,,,,,,,,,,,,,,,0,10,10,10,,,,,,,,,,,,,,,,,,,,,,,,,,,,,,,,,,,,,,,58.20254539999587,None,['2'],1,[-0.004403600003570318],58.20254539999587,None,,,,001,2021_Nov_17_1507,TMTAB,2021.2.3,144.07976256678637,
L,['1'],TMTstop-control_1_blinestimulus9.png,TMTstop-control_1_bgreenlinestimulus9.png,TMTstop-control_1_bredlinestimulus9.png,10,,,,,,,,,,,,,,,,,,,,,0,11,11,11,,,,,,,,,,,,,,,,,,,,,,,,,,,,,,,,,,,,,,,58.272271199995885,None,"['3', '1']",1,"[0.05175700000836514, 0.19720950000919402]",58.272271199995885,None,,,,001,2021_Nov_17_1507,TMTAB,2021.2.3,144.07976256678637,
M,['2'],TMTstop-control_1_blinestimulus10.png,TMTstop-control_1_bgreenlinestimulus10.png,TMTstop-control_1_bredlinestimulus10.png,1,,,,,,,,,,,,,,,,,,,,,0,12,12,12,,,,,,,,,,,,,,,,,,,,,,,,,,,,,,,,,,,,,,,58.571209000001545,None,['2'],1,[-0.04762549999577459],58.571209000001545,None,,,,001,2021_Nov_17_1507,TMTAB,2021.2.3,144.07976256678637,
N,['1'],TMTstop-control_1_blinestimulus11.png,TMTstop-control_1_bgreenlinestimulus11.png,TMTstop-control_1_bredlinestimulus11.png,None,,,,,,,,,,,,,,,,,,,,,0,13,13,13,,,,,,,,,,,,,,,,,,,,,,,,,,,,,,,,,,,,,,,58.64749180000217,None,"['3', '1']",1,"[0.006381700004567392, 0.2327069000020856]",58.64749180000217,None,,,,001,2021_Nov_17_1507,TMTAB,2021.2.3,144.07976256678637,
O,['3'],TMTstop-control_1_blinestimulus12.png,TMTstop-control_1_bgreenlinestimulus12.png,TMTstop-control_1_bredlinestimulus12.png,None,,,,,,,,,,,,,,,,,,,,,0,14,14,14,,,,,,,,,,,,,,,,,,,,,,,,,,,,,,,,,,,,,,,58.980344499999774,None,"['2', '3']",1,"[-0.0034694000059971586, 0.09264449999318458]",58.980344499999774,None,,,,001,2021_Nov_17_1507,TMTAB,2021.2.3,144.07976256678637,
P,['1'],TMTstop-control_1_blinestimulus13.png,TMTstop-control_1_bgreenlinestimulus13.png,TMTstop-control_1_bredlinestimulus13.png,None,,,,,,,,,,,,,,,,,,,,,0,15,15,15,,,,,,,,,,,,,,,,,,,,,,,,,,,,,,,,,,,,,,,59.167827500001295,None,['1'],1,[0.07968149999214802],59.167827500001295,None,,,,001,2021_Nov_17_1507,TMTAB,2021.2.3,144.07976256678637,
Q,['3'],TMTstop-control_1_blinestimulus14.png,TMTstop-control_1_bgreenlinestimulus14.png,TMTstop-control_1_bredlinestimulus14.png,None,,,,,,,,,,,,,,,,,,,,,0,16,16,16,,,,,,,,,,,,,,,,,,,,,,,,,,,,,,,,,,,,,,,59.32083640000201,None,"['2', '3']",1,"[-0.009270599999581464, 0.11383999999088701]",59.32083640000201,None,,,,001,2021_Nov_17_1507,TMTAB,2021.2.3,144.07976256678637,
R,['2'],TMTstop-control_1_blinestimulus15.png,TMTstop-control_1_bgreenlinestimulus15.png,TMTstop-control_1_bredlinestimulus15.png,None,,,,,,,,,,,,,,,,,,,,,0,17,17,17,,,,,,,,,,,,,,,,,,,,,,,,,,,,,,,,,,,,,,,59.51506180000433,None,"['1', '2']",1,"[0.06717009999556467, 0.12219009999535047]",59.51506180000433,None,,,,001,2021_Nov_17_1507,TMTAB,2021.2.3,144.07976256678637,
S,['1'],TMTstop-control_1_blinestimulus16.png,TMTstop-control_1_bgreenlinestimulus16.png,TMTstop-control_1_bredlinestimulus16.png,None,,,,,,,,,,,,,,,,,,,,,0,18,18,18,,,,,,,,,,,,,,,,,,,,,,,,,,,,,,,,,,,,,,,59.73081500000262,None,"['3', '1']",1,"[0.018928100005723536, 0.15951540000969544]",59.73081500000262,None,,,,001,2021_Nov_17_1507,TMTAB,2021.2.3,144.07976256678637,
T,['3'],TMTstop-control_1_blinestimulus17.png,TMTstop-control_1_bgreenlinestimulus17.png,TMTstop-control_1_bredlinestimulus17.png,None,,,,,,,,,,,,,,,,,,,,,0,19,19,19,,,,,,,,,,,,,,,,,,,,,,,,,,,,,,,,,,,,,,,59.97348179999972,None,"['2', '3']",1,"[-0.034943499995279126, 0.11215359999914654]",59.97348179999972,None,,,,001,2021_Nov_17_1507,TMTAB,2021.2.3,144.07976256678637,
U,['1'],TMTstop-control_1_blinestimulus18.png,TMTstop-control_1_bgreenlinestimulus18.png,TMTstop-control_1_bredlinestimulus18.png,None,,,,,,,,,,,,,,,,,,,,,0,20,20,20,,,,,,,,,,,,,,,,,,,,,,,,,,,,,,,,,,,,,,,60.16764109999349,None,['1'],1,[0.054105899995192885],60.16764109999349,None,,,,001,2021_Nov_17_1507,TMTAB,2021.2.3,144.07976256678637,
V,['2'],TMTstop-control_1_blinestimulus19.png,TMTstop-control_1_bgreenlinestimulus19.png,TMTstop-control_1_bredlinestimulus19.png,None,,,,,,,,,,,,,,,,,,,,,0,21,21,21,,,,,,,,,,,,,,,,,,,,,,,,,,,,,,,,,,,,,,,60.299663199999486,None,['2'],1,[-0.004894700003205799],60.299663199999486,None,,,,001,2021_Nov_17_1507,TMTAB,2021.2.3,144.07976256678637,
W,['1'],TMTstop-control_1_blinestimulus20.png,TMTstop-control_1_bgreenlinestimulus20.png,TMTstop-control_1_bredlinestimulus20.png,None,,,,,,,,,,,,,,,,,,,,,0,22,22,22,,,,,,,,,,,,,,,,,,,,,,,,,,,,,,,,,,,,,,,60.369116500005475,None,"['3', '1']",1,"[0.024660299997776747, 0.15934679999190848]",60.369116500005475,None,,,,001,2021_Nov_17_1507,TMTAB,2021.2.3,144.07976256678637,
X,['2'],TMTstop-control_1_blinestimulus21.png,TMTstop-control_1_bgreenlinestimulus21.png,TMTstop-control_1_bredlinestimulus21.png,None,,,,,,,,,,,,,,,,,,,,,0,23,23,23,,,,,,,,,,,,,,,,,,,,,,,,,,,,,,,,,,,,,,,60.63298090000171,None,['2'],1,[-0.03928250000171829],60.63298090000171,None,,,,001,2021_Nov_17_1507,TMTAB,2021.2.3,144.07976256678637,
Y,['3'],TMTstop-control_1_blinestimulus22.png,TMTstop-control_1_bgreenlinestimulus22.png,TMTstop-control_1_bredlinestimulus22.png,None,,,,,,,,,,,,,,,,,,,,,0,24,24,24,,,,,,,,,,,,,,,,,,,,,,,,,,,,,,,,,,,,,,,60.702520599996205,None,['3'],1,[0.008912999997846782],60.702520599996205,None,,,,001,2021_Nov_17_1507,TMTAB,2021.2.3,144.07976256678637,
None,None,TMTstop-control_1_blinestimulus23.png,TMTstop-control_1_bgreenlinestimulus23.png,TMTstop-control_1_bredlinestimulus23.png,None,,,,,,,,,,,,,,,,,,,,,0,25,25,25,,,,,,,,,,,,,,,,,,,,,,,,,,,,,,,,,,,,,,,60.78589919999649,None,None,1,,60.78589919999649,None,,,,001,2021_Nov_17_1507,TMTAB,2021.2.3,144.07976256678637,
1,['3'],TMTstop-control_1_3.png,TMTstop-control_1_3.png,TMTstop-control_1_3.png,10,,,,,,,,,,,,,,,,,,,,,,,,,0,0,0,0,,,,,,,,,,,,,,,,,,,,,61.782886999993934,None,,,,,,,,,,,,,64.83455280000635,None,"['1', '2', '3']",1,"[1.2957482000056189, 1.397321099997498, 1.49820109999564]",64.83455280000635,None,,,,001,2021_Nov_17_1507,TMTAB,2021.2.3,144.07976256678637,
2,['1'],TMTstop-control_1_3.png,TMTstop-control_1_3firstgreen.png,TMTstop-control_1_3firstred.png,10,,,,,,,,,,,,,,,,,,,,,,,,,0,1,1,1,,,,,,,,,,,,,,,,,,,,,,,,,,,,,,,,,,,66.41766769999231,None,['1'],1,[0.08849449999979697],66.41766769999231,None,,,,001,2021_Nov_17_1507,TMTAB,2021.2.3,144.07976256678637,
3,['3'],TMTstop-control_1_3linestimulus0.png,TMTstop-control_1_3greenlinestimulus0.png,TMTstop-control_1_3redlinestimulus0.png,10,,,,,,,,,,,,,,,,,,,,,,,,,0,2,2,2,,,,,,,,,,,,,,,,,,,,,,,,,,,,,,,,,,,66.57739120000042,None,"['2', '3']",1,"[-0.022114899998996407, 0.12012350000441074]",66.57739120000042,None,,,,001,2021_Nov_17_1507,TMTAB,2021.2.3,144.07976256678637,
4,['1'],TMTstop-control_1_3linestimulus1.png,TMTstop-control_1_3greenlinestimulus1.png,TMTstop-control_1_3redlinestimulus1.png,10,,,,,,,,,,,,,,,,,,,,,,,,,0,3,3,3,,,,,,,,,,,,,,,,,,,,,,,,,,,,,,,,,,,66.79960450000362,None,['1'],1,[0.03551409998908639],66.79960450000362,None,,,,001,2021_Nov_17_1507,TMTAB,2021.2.3,144.07976256678637,
5,['3'],TMTstop-control_1_3linestimulus2.png,TMTstop-control_1_3greenlinestimulus2.png,TMTstop-control_1_3redlinestimulus2.png,10,,,,,,,,,,,,,,,,,,,,,,,,,0,4,4,4,,,,,,,,,,,,,,,,,,,,,,,,,,,,,,,,,,,66.91073679999681,None,"['2', '3']",1,"[-0.028329099994152784, 0.0936022999958368]",66.91073679999681,None,,,,001,2021_Nov_17_1507,TMTAB,2021.2.3,144.07976256678637,
6,['2'],TMTstop-control_1_3linestimulus3.png,TMTstop-control_1_3greenlinestimulus3.png,TMTstop-control_1_3redlinestimulus3.png,10,,,,,,,,,,,,,,,,,,,,,,,,,0,5,5,5,,,,,,,,,,,,,,,,,,,,,,,,,,,,,,,,,,,67.0839391000045,None,"['1', '2']",1,"[0.5728726999950595, 0.6103402000007918]",67.0839391000045,None,,,,001,2021_Nov_17_1507,TMTAB,2021.2.3,144.07976256678637,
7,['1'],TMTstop-control_1_3linestimulus4.png,TMTstop-control_1_3greenlinestimulus4.png,TMTstop-control_1_3redlinestimulus4.png,10,,,,,,,,,,,,,,,,,,,,,,,,,0,6,6,6,,,,,,,,,,,,,,,,,,,,,,,,,,,,,,,,,,,67.77171879999514,None,['1'],1,[0.24473719998786692],67.77171879999514,None,,,,001,2021_Nov_17_1507,TMTAB,2021.2.3,144.07976256678637,
8,['3'],TMTstop-control_1_3linestimulus4.png,TMTstop-control_1_3greenlinestimulus5.png,TMTstop-control_1_3redlinestimulus5.png,10,,,,,,,,,,,,,,,,,,,,,,,,,0,7,7,7,,,,,,,,,,,,,,,,,,,,,,,,,,,,,,,,,,,68.08436720000464,None,"['2', '1', '2', '3']",1,"[-0.0627740000054473, 0.6813560999871697, 0.6900858999870252, 0.8605549999920186]",68.08436720000464,None,,,,001,2021_Nov_17_1507,TMTAB,2021.2.3,144.07976256678637,
9,['2'],TMTstop-control_1_3linestimulus6.png,TMTstop-control_1_3greenlinestimulus6.png,TMTstop-control_1_3redlinestimulus6.png,10,,,,,,,,,,,,,,,,,,,,,,,,,0,8,8,8,,,,,,,,,,,,,,,,,,,,,,,,,,,,,,,,,,,69.02246310000191,None,"['1', '2']",1,"[0.08250469999620691, 0.12870429999020416]",69.02246310000191,None,,,,001,2021_Nov_17_1507,TMTAB,2021.2.3,144.07976256678637,
10,['3'],TMTstop-control_1_3linestimulus7.png,TMTstop-control_1_3greenlinestimulus7.png,TMTstop-control_1_3redlinestimulus7.png,10,,,,,,,,,,,,,,,,,,,,,,,,,0,9,9,9,,,,,,,,,,,,,,,,,,,,,,,,,,,,,,,,,,,69.26461050000216,None,['3'],1,[0.020477500002016313],69.26461050000216,None,,,,001,2021_Nov_17_1507,TMTAB,2021.2.3,144.07976256678637,
11,['2'],TMTstop-control_1_3linestimulus8.png,TMTstop-control_1_3greenlinestimulus8.png,TMTstop-control_1_3redlinestimulus8.png,10,,,,,,,,,,,,,,,,,,,,,,,,,0,10,10,10,,,,,,,,,,,,,,,,,,,,,,,,,,,,,,,,,,,69.35499429999618,None,"['1', '2']",1,"[0.07519990000582766, 0.12053179999929853]",69.35499429999618,None,,,,001,2021_Nov_17_1507,TMTAB,2021.2.3,144.07976256678637,
12,['1'],TMTstop-control_1_3linestimulus9.png,TMTstop-control_1_3greenlinestimulus9.png,TMTstop-control_1_3redlinestimulus9.png,10,,,,,,,,,,,,,,,,,,,,,,,,,0,11,11,11,,,,,,,,,,,,,,,,,,,,,,,,,,,,,,,,,,,69.57726920000277,None,"['3', '1']",1,"[0.02272429999720771, 0.17863939999369904]",69.57726920000277,None,,,,001,2021_Nov_17_1507,TMTAB,2021.2.3,144.07976256678637,
13,['2'],TMTstop-control_1_3linestimulus10.png,TMTstop-control_1_3greenlinestimulus10.png,TMTstop-control_1_3redlinestimulus10.png,1,,,,,,,,,,,,,,,,,,,,,,,,,0,12,12,12,,,,,,,,,,,,,,,,,,,,,,,,,,,,,,,,,,,69.84786739999254,None,['2'],1,[-0.06137139999191277],69.84786739999254,None,,,,001,2021_Nov_17_1507,TMTAB,2021.2.3,144.07976256678637,
14,['3'],TMTstop-control_1_3linestimulus11.png,TMTstop-control_1_3greenlinestimulus11.png,TMTstop-control_1_3redlinestimulus11.png,None,,,,,,,,,,,,,,,,,,,,,,,,,0,13,13,13,,,,,,,,,,,,,,,,,,,,,,,,,,,,,,,,,,,69.91755870000634,None,['3'],1,[0.001844900005380623],69.91755870000634,None,,,,001,2021_Nov_17_1507,TMTAB,2021.2.3,144.07976256678637,
15,['2'],TMTstop-control_1_3linestimulus12.png,TMTstop-control_1_3greenlinestimulus12.png,TMTstop-control_1_3redlinestimulus12.png,None,,,,,,,,,,,,,,,,,,,,,,,,,0,14,14,14,,,,,,,,,,,,,,,,,,,,,,,,,,,,,,,,,,,70.00089110000408,None,"['1', '2']",1,"[0.0597979000012856, 0.09683730000688229]",70.00089110000408,None,,,,001,2021_Nov_17_1507,TMTAB,2021.2.3,144.07976256678637,
16,['1'],TMTstop-control_1_3linestimulus13.png,TMTstop-control_1_3greenlinestimulus13.png,TMTstop-control_1_3redlinestimulus13.png,None,,,,,,,,,,,,,,,,,,,,,,,,,0,15,15,15,,,,,,,,,,,,,,,,,,,,,,,,,,,,,,,,,,,70.17444299999624,None,"['3', '1']",1,"[0.051804200003971346, 0.18789220000326168]",70.17444299999624,None,,,,001,2021_Nov_17_1507,TMTAB,2021.2.3,144.07976256678637,
17,['2'],TMTstop-control_1_3linestimulus14.png,TMTstop-control_1_3greenlinestimulus14.png,TMTstop-control_1_3redlinestimulus14.png,None,,,,,,,,,,,,,,,,,,,,,,,,,0,16,16,16,,,,,,,,,,,,,,,,,,,,,,,,,,,,,,,,,,,70.44535449999967,None,['2'],1,[-0.036767300000065006],70.44535449999967,None,,,,001,2021_Nov_17_1507,TMTAB,2021.2.3,144.07976256678637,
18,['3'],TMTstop-control_1_3linestimulus15.png,TMTstop-control_1_3greenlinestimulus15.png,TMTstop-control_1_3redlinestimulus15.png,None,,,,,,,,,,,,,,,,,,,,,,,,,0,17,17,17,,,,,,,,,,,,,,,,,,,,,,,,,,,,,,,,,,,70.5145249000052,None,['3'],1,[0.015406400008942],70.5145249000052,None,,,,001,2021_Nov_17_1507,TMTAB,2021.2.3,144.07976256678637,
19,['1'],TMTstop-control_1_3linestimulus16.png,TMTstop-control_1_3greenlinestimulus16.png,TMTstop-control_1_3redlinestimulus16.png,None,,,,,,,,,,,,,,,,,,,,,,,,,0,18,18,18,,,,,,,,,,,,,,,,,,,,,,,,,,,,,,,,,,,70.60507520000101,None,['1'],1,[0.04723359999479726],70.60507520000101,None,,,,001,2021_Nov_17_1507,TMTAB,2021.2.3,144.07976256678637,
20,['2'],TMTstop-control_1_3linestimulus17.png,TMTstop-control_1_3greenlinestimulus17.png,TMTstop-control_1_3redlinestimulus17.png,None,,,,,,,,,,,,,,,,,,,,,,,,,0,19,19,19,,,,,,,,,,,,,,,,,,,,,,,,,,,,,,,,,,,70.73026070000196,None,['2'],1,[-0.042110499998671],70.73026070000196,None,,,,001,2021_Nov_17_1507,TMTAB,2021.2.3,144.07976256678637,
21,['3'],TMTstop-control_1_3linestimulus18.png,TMTstop-control_1_3greenlinestimulus18.png,TMTstop-control_1_3redlinestimulus18.png,None,,,,,,,,,,,,,,,,,,,,,,,,,0,20,20,20,,,,,,,,,,,,,,,,,,,,,,,,,,,,,,,,,,,70.7994347000058,None,['3'],1,[0.023398600009386428],70.7994347000058,None,,,,001,2021_Nov_17_1507,TMTAB,2021.2.3,144.07976256678637,
22,['2'],TMTstop-control_1_3linestimulus19.png,TMTstop-control_1_3greenlinestimulus19.png,TMTstop-control_1_3redlinestimulus19.png,None,,,,,,,,,,,,,,,,,,,,,,,,,0,21,21,21,,,,,,,,,,,,,,,,,,,,,,,,,,,,,,,,,,,70.90344090000144,None,"['1', '2']",1,"[0.061785199999576434, 0.0951061999949161]",70.90344090000144,None,,,,001,2021_Nov_17_1507,TMTAB,2021.2.3,144.07976256678637,
23,['1'],TMTstop-control_1_3linestimulus20.png,TMTstop-control_1_3greenlinestimulus20.png,TMTstop-control_1_3redlinestimulus20.png,None,,,,,,,,,,,,,,,,,,,,,,,,,0,22,22,22,,,,,,,,,,,,,,,,,,,,,,,,,,,,,,,,,,,71.07037099999434,None,"['3', '1']",1,"[0.062019100005272776, 0.1860060000035446]",71.07037099999434,None,,,,001,2021_Nov_17_1507,TMTAB,2021.2.3,144.07976256678637,
24,['3'],TMTstop-control_1_3linestimulus21.png,TMTstop-control_1_3greenlinestimulus21.png,TMTstop-control_1_3redlinestimulus21.png,None,,,,,,,,,,,,,,,,,,,,,,,,,0,23,23,23,,,,,,,,,,,,,,,,,,,,,,,,,,,,,,,,,,,71.32708329999878,None,"['2', '3']",1,"[-0.015601599996443838, 0.10939919999509584]",71.32708329999878,None,,,,001,2021_Nov_17_1507,TMTAB,2021.2.3,144.07976256678637,
25,['1'],TMTstop-control_1_3linestimulus22.png,TMTstop-control_1_3greenlinestimulus22.png,TMTstop-control_1_3redlinestimulus22.png,None,,,,,,,,,,,,,,,,,,,,,,,,,0,24,24,24,,,,,,,,,,,,,,,,,,,,,,,,,,,,,,,,,,,71.514809100001,None,['1'],1,[0.034157100002630614],71.514809100001,None,,,,001,2021_Nov_17_1507,TMTAB,2021.2.3,144.07976256678637,
None,None,TMTstop-control_1_3linestimulus23.png,TMTstop-control_1_3greenlinestimulus23.png,TMTstop-control_1_3redlinestimulus23.png,None,,,,,,,,,,,,,,,,,,,,,,,,,0,25,25,25,,,,,,,,,,,,,,,,,,,,,,,,,,,,,,,,,,,71.62620640000387,None,"['2', '3']",0,"[-0.01434410001093056, 0.1096008000022266]",71.62620640000387,None,,,,001,2021_Nov_17_1507,TMTAB,2021.2.3,144.07976256678637,
A,['2'],TMTstop-control_1_c.png,TMTstop-control_1_c.png,TMTstop-control_1_c.png,10,,,,,,,,,,,,,,,,,,,,,,,,,,,,,0,0,0,0,,,,,,,,,,,,,,,,,72.67914399999427,None,,,,,,,,,,,,,75.71576469999854,None,"['1', '2']",1,"[0.5855532999994466, 0.6309937000041828]",75.71576469999854,None,,,,001,2021_Nov_17_1507,TMTAB,2021.2.3,144.07976256678637,
B,['1'],TMTstop-control_1_c.png,TMTstop-control_1_cfirstgreen.png,TMTstop-control_1_cfirstred.png,10,,,,,,,,,,,,,,,,,,,,,,,,,,,,,0,1,1,1,,,,,,,,,,,,,,,,,,,,,,,,,,,,,,,76.43797129999439,None,"['3', '1']",1,"[0.03587570000672713, 0.1676138000038918]",76.43797129999439,None,,,,001,2021_Nov_17_1507,TMTAB,2021.2.3,144.07976256678637,
C,['2'],TMTstop-control_1_clinestimulus0.png,TMTstop-control_1_cgreenlinestimulus0.png,TMTstop-control_1_credlinestimulus0.png,10,,,,,,,,,,,,,,,,,,,,,,,,,,,,,0,2,2,2,,,,,,,,,,,,,,,,,,,,,,,,,,,,,,,76.69506480000564,None,['2'],1,[-0.04758620000211522],76.69506480000564,None,,,,001,2021_Nov_17_1507,TMTAB,2021.2.3,144.07976256678637,
D,['3'],TMTstop-control_1_clinestimulus1.png,TMTstop-control_1_cgreenlinestimulus1.png,TMTstop-control_1_credlinestimulus1.png,10,,,,,,,,,,,,,,,,,,,,,,,,,,,,,0,3,3,3,,,,,,,,,,,,,,,,,,,,,,,,,,,,,,,76.76457250000385,None,['3'],1,[-0.017484399999375455],76.76457250000385,None,,,,001,2021_Nov_17_1507,TMTAB,2021.2.3,144.07976256678637,
E,['2'],TMTstop-control_1_clinestimulus2.png,TMTstop-control_1_cgreenlinestimulus2.png,TMTstop-control_1_credlinestimulus2.png,10,,,,,,,,,,,,,,,,,,,,,,,,,,,,,0,4,4,4,,,,,,,,,,,,,,,,,,,,,,,,,,,,,,,76.83402049999859,None,"['1', '2']",1,"[0.04659529999480583, 0.0887529000028735]",76.83402049999859,None,,,,001,2021_Nov_17_1507,TMTAB,2021.2.3,144.07976256678637,
F,['3'],TMTstop-control_1_clinestimulus3.png,TMTstop-control_1_cgreenlinestimulus3.png,TMTstop-control_1_credlinestimulus3.png,10,,,,,,,,,,,,,,,,,,,,,,,,,,,,,0,5,5,5,,,,,,,,,,,,,,,,,,,,,,,,,,,,,,,76.99372220000078,None,['3'],1,[0.028354599999147467],76.99372220000078,None,,,,001,2021_Nov_17_1507,TMTAB,2021.2.3,144.07976256678637,
G,['1'],TMTstop-control_1_clinestimulus4.png,TMTstop-control_1_cgreenlinestimulus4.png,TMTstop-control_1_credlinestimulus4.png,10,,,,,,,,,,,,,,,,,,,,,,,,,,,,,0,6,6,6,,,,,,,,,,,,,,,,,,,,,,,,,,,,,,,77.09796689999348,None,['1'],1,[0.053476300003239885],77.09796689999348,None,,,,001,2021_Nov_17_1507,TMTAB,2021.2.3,144.07976256678637,
H,['3'],TMTstop-control_1_clinestimulus5.png,TMTstop-control_1_cgreenlinestimulus5.png,TMTstop-control_1_credlinestimulus5.png,10,,,,,,,,,,,,,,,,,,,,,,,,,,,,,0,7,7,7,,,,,,,,,,,,,,,,,,,,,,,,,,,,,,,77.22293610000634,None,"['2', '3']",1,"[-0.03050249999796506, 0.07039060001261532]",77.22293610000634,None,,,,001,2021_Nov_17_1507,TMTAB,2021.2.3,144.07976256678637,
I,['1'],TMTstop-control_1_clinestimulus6.png,TMTstop-control_1_cgreenlinestimulus6.png,TMTstop-control_1_credlinestimulus6.png,10,,,,,,,,,,,,,,,,,,,,,,,,,,,,,0,8,8,8,,,,,,,,,,,,,,,,,,,,,,,,,,,,,,,77.37552539999888,None,['1'],1,[0.04646880000655074],77.37552539999888,None,,,,001,2021_Nov_17_1507,TMTAB,2021.2.3,144.07976256678637,
J,['2'],TMTstop-control_1_clinestimulus7.png,TMTstop-control_1_cgreenlinestimulus7.png,TMTstop-control_1_credlinestimulus7.png,10,,,,,,,,,,,,,,,,,,,,,,,,,,,,,0,9,9,9,,,,,,,,,,,,,,,,,,,,,,,,,,,,,,,77.49361689999932,None,['2'],1,[-0.025500899995677173],77.49361689999932,None,,,,001,2021_Nov_17_1507,TMTAB,2021.2.3,144.07976256678637,
K,['3'],TMTstop-control_1_clinestimulus8.png,TMTstop-control_1_cgreenlinestimulus8.png,TMTstop-control_1_credlinestimulus8.png,10,,,,,,,,,,,,,,,,,,,,,,,,,,,,,0,10,10,10,,,,,,,,,,,,,,,,,,,,,,,,,,,,,,,77.56324380000297,None,['3'],1,[0.0049768999888328835],77.56324380000297,None,,,,001,2021_Nov_17_1507,TMTAB,2021.2.3,144.07976256678637,
L,['2'],TMTstop-control_1_clinestimulus9.png,TMTstop-control_1_cgreenlinestimulus9.png,TMTstop-control_1_credlinestimulus9.png,10,,,,,,,,,,,,,,,,,,,,,,,,,,,,,0,11,11,11,,,,,,,,,,,,,,,,,,,,,,,,,,,,,,,77.64654810000502,None,"['1', '2']",1,"[0.04536410000582691, 0.0933023000106914]",77.64654810000502,None,,,,001,2021_Nov_17_1507,TMTAB,2021.2.3,144.07976256678637,
M,['3'],TMTstop-control_1_clinestimulus10.png,TMTstop-control_1_cgreenlinestimulus10.png,TMTstop-control_1_credlinestimulus10.png,1,,,,,,,,,,,,,,,,,,,,,,,,,,,,,0,12,12,12,,,,,,,,,,,,,,,,,,,,,,,,,,,,,,,77.84074529999634,None,['3'],1,[-0.004226799996104091],77.84074529999634,None,,,,001,2021_Nov_17_1507,TMTAB,2021.2.3,144.07976256678637,
N,['1'],TMTstop-control_1_clinestimulus11.png,TMTstop-control_1_cgreenlinestimulus11.png,TMTstop-control_1_credlinestimulus11.png,None,,,,,,,,,,,,,,,,,,,,,,,,,,,,,0,13,13,13,,,,,,,,,,,,,,,,,,,,,,,,,,,,,,,77.91065510000044,None,['1'],1,[0.051710999992792495],77.91065510000044,None,,,,001,2021_Nov_17_1507,TMTAB,2021.2.3,144.07976256678637,
O,['3'],TMTstop-control_1_clinestimulus12.png,TMTstop-control_1_cgreenlinestimulus12.png,TMTstop-control_1_credlinestimulus12.png,None,,,,,,,,,,,,,,,,,,,,,,,,,,,,,0,14,14,14,,,,,,,,,,,,,,,,,,,,,,,,,,,,,,,78.03532330000598,None,"['2', '3']",1,"[-0.027808099999674596, 0.07742770000186283]",78.03532330000598,None,,,,001,2021_Nov_17_1507,TMTAB,2021.2.3,144.07976256678637,
P,['2'],TMTstop-control_1_clinestimulus13.png,TMTstop-control_1_cgreenlinestimulus13.png,TMTstop-control_1_credlinestimulus13.png,None,,,,,,,,,,,,,,,,,,,,,,,,,,,,,0,15,15,15,,,,,,,,,,,,,,,,,,,,,,,,,,,,,,,78.1812929000007,None,"['1', '2']",1,"[0.04468409999390133, 0.10443399999348912]",78.1812929000007,None,,,,001,2021_Nov_17_1507,TMTAB,2021.2.3,144.07976256678637,
Q,['3'],TMTstop-control_1_clinestimulus14.png,TMTstop-control_1_cgreenlinestimulus14.png,TMTstop-control_1_credlinestimulus14.png,None,,,,,,,,,,,,,,,,,,,,,,,,,,,,,0,16,16,16,,,,,,,,,,,,,,,,,,,,,,,,,,,,,,,78.3823948000063,None,['3'],1,[-0.004411299989442341],78.3823948000063,None,,,,001,2021_Nov_17_1507,TMTAB,2021.2.3,144.07976256678637,
R,['2'],TMTstop-control_1_clinestimulus15.png,TMTstop-control_1_cgreenlinestimulus15.png,TMTstop-control_1_credlinestimulus15.png,None,,,,,,,,,,,,,,,,,,,,,,,,,,,,,0,17,17,17,,,,,,,,,,,,,,,,,,,,,,,,,,,,,,,78.44485689999419,None,"['1', '2']",1,"[0.037328100006561726, 0.10692280001239851]",78.44485689999419,None,,,,001,2021_Nov_17_1507,TMTAB,2021.2.3,144.07976256678637,
S,['3'],TMTstop-control_1_clinestimulus16.png,TMTstop-control_1_cgreenlinestimulus16.png,TMTstop-control_1_credlinestimulus16.png,None,,,,,,,,,,,,,,,,,,,,,,,,,,,,,0,18,18,18,,,,,,,,,,,,,,,,,,,,,,,,,,,,,,,78.61869899999874,None,['3'],1,[0.02539480000268668],78.61869899999874,None,,,,001,2021_Nov_17_1507,TMTAB,2021.2.3,144.07976256678637,
T,['2'],TMTstop-control_1_clinestimulus17.png,TMTstop-control_1_cgreenlinestimulus17.png,TMTstop-control_1_credlinestimulus17.png,None,,,,,,,,,,,,,,,,,,,,,,,,,,,,,0,19,19,19,,,,,,,,,,,,,,,,,,,,,,,,,,,,,,,78.71591519999492,None,"['1', '2']",1,"[0.051833100005751476, 0.10496470000362024]",78.71591519999492,None,,,,001,2021_Nov_17_1507,TMTAB,2021.2.3,144.07976256678637,
U,['3'],TMTstop-control_1_clinestimulus18.png,TMTstop-control_1_cgreenlinestimulus18.png,TMTstop-control_1_credlinestimulus18.png,None,,,,,,,,,,,,,,,,,,,,,,,,,,,,,0,20,20,20,,,,,,,,,,,,,,,,,,,,,,,,,,,,,,,78.88956690000487,None,['3'],1,[0.04891580001276452],78.88956690000487,None,,,,001,2021_Nov_17_1507,TMTAB,2021.2.3,144.07976256678637,
V,['1'],TMTstop-control_1_clinestimulus19.png,TMTstop-control_1_cgreenlinestimulus19.png,TMTstop-control_1_credlinestimulus19.png,None,,,,,,,,,,,,,,,,,,,,,,,,,,,,,0,21,21,21,,,,,,,,,,,,,,,,,,,,,,,,,,,,,,,79.00788879999891,None,['1'],1,[0.03896189999068156],79.00788879999891,None,,,,001,2021_Nov_17_1507,TMTAB,2021.2.3,144.07976256678637,
W,['3'],TMTstop-control_1_clinestimulus20.png,TMTstop-control_1_cgreenlinestimulus20.png,TMTstop-control_1_credlinestimulus20.png,None,,,,,,,,,,,,,,,,,,,,,,,,,,,,,0,22,22,22,,,,,,,,,,,,,,,,,,,,,,,,,,,,,,,79.11875369999325,None,"['2', '3']",1,"[-0.0004442999925231561, 0.10429020000447053]",79.11875369999325,None,,,,001,2021_Nov_17_1507,TMTAB,2021.2.3,144.07976256678637,
X,['2'],TMTstop-control_1_clinestimulus21.png,TMTstop-control_1_cgreenlinestimulus21.png,TMTstop-control_1_credlinestimulus21.png,None,,,,,,,,,,,,,,,,,,,,,,,,,,,,,0,23,23,23,,,,,,,,,,,,,,,,,,,,,,,,,,,,,,,79.30668839999998,None,"['1', '2']",1,"[0.03255650000937749, 0.08320290000119712]",79.30668839999998,None,,,,001,2021_Nov_17_1507,TMTAB,2021.2.3,144.07976256678637,
Y,['3'],TMTstop-control_1_clinestimulus22.png,TMTstop-control_1_cgreenlinestimulus22.png,TMTstop-control_1_credlinestimulus22.png,None,,,,,,,,,,,,,,,,,,,,,,,,,,,,,0,24,24,24,,,,,,,,,,,,,,,,,,,,,,,,,,,,,,,79.4664308999927,None,['3'],1,[0.051952499998151325],79.4664308999927,None,,,,001,2021_Nov_17_1507,TMTAB,2021.2.3,144.07976256678637,
None,None,TMTstop-control_1_clinestimulus23.png,TMTstop-control_1_cgreenlinestimulus23.png,TMTstop-control_1_credlinestimulus23.png,None,,,,,,,,,,,,,,,,,,,,,,,,,,,,,0,25,25,25,,,,,,,,,,,,,,,,,,,,,,,,,,,,,,,79.59845989999303,None,None,1,,79.59845989999303,None,,,,001,2021_Nov_17_1507,TMTAB,2021.2.3,144.07976256678637,
1,['2'],TMTstop-control_1_4.png,TMTstop-control_1_4.png,TMTstop-control_1_4.png,10,,,,,,,,,,,,,,,,,,,,,,,,,,,,,,,,,0,0,0,0,,,,,,,,,,,,,80.59519819999696,None,,,,,,,,,,,,,83.6464205999946,None,"['1', '2']",1,"[0.35741490000509657, 0.3707961000036448]",83.6464205999946,None,,,,001,2021_Nov_17_1507,TMTAB,2021.2.3,144.07976256678637,
2,['1'],TMTstop-control_1_4.png,TMTstop-control_1_4firstgreen.png,TMTstop-control_1_4firstred.png,10,,,,,,,,,,,,,,,,,,,,,,,,,,,,,,,,,0,1,1,1,,,,,,,,,,,,,,,,,,,,,,,,,,,84.09781900000235,None,"['3', '1']",1,"[0.0924490000033984, 0.22603360000357497]",84.09781900000235,None,,,,001,2021_Nov_17_1507,TMTAB,2021.2.3,144.07976256678637,
3,['3'],TMTstop-control_1_4linestimulus0.png,TMTstop-control_1_4greenlinestimulus0.png,TMTstop-control_1_4redlinestimulus0.png,10,,,,,,,,,,,,,,,,,,,,,,,,,,,,,,,,,0,2,2,2,,,,,,,,,,,,,,,,,,,,,,,,,,,84.42417220000061,None,"['2', '3']",1,"[-0.050723499996820465, 0.04076360000181012]",84.42417220000061,None,,,,001,2021_Nov_17_1507,TMTAB,2021.2.3,144.07976256678637,
4,['1'],TMTstop-control_1_4linestimulus1.png,TMTstop-control_1_4greenlinestimulus1.png,TMTstop-control_1_4redlinestimulus1.png,10,,,,,,,,,,,,,,,,,,,,,,,,,,,,,,,,,0,3,3,3,,,,,,,,,,,,,,,,,,,,,,,,,,,84.53541500000574,None,['1'],1,[0.05608210001082625],84.53541500000574,None,,,,001,2021_Nov_17_1507,TMTAB,2021.2.3,144.07976256678637,
5,['2'],TMTstop-control_1_4linestimulus2.png,TMTstop-control_1_4greenlinestimulus2.png,TMTstop-control_1_4redlinestimulus2.png,10,,,,,,,,,,,,,,,,,,,,,,,,,,,,,,,,,0,4,4,4,,,,,,,,,,,,,,,,,,,,,,,,,,,84.66703149999375,None,['2'],1,[-0.0385865999996895],84.66703149999375,None,,,,001,2021_Nov_17_1507,TMTAB,2021.2.3,144.07976256678637,
6,['1'],TMTstop-control_1_4linestimulus3.png,TMTstop-control_1_4greenlinestimulus3.png,TMTstop-control_1_4redlinestimulus3.png,10,,,,,,,,,,,,,,,,,,,,,,,,,,,,,,,,,0,5,5,5,,,,,,,,,,,,,,,,,,,,,,,,,,,84.74316759999783,None,"['3', '1']",1,"[0.001600999996298924, 0.1341417000076035]",84.74316759999783,None,,,,001,2021_Nov_17_1507,TMTAB,2021.2.3,144.07976256678637,
7,['3'],TMTstop-control_1_4linestimulus4.png,TMTstop-control_1_4greenlinestimulus4.png,TMTstop-control_1_4redlinestimulus4.png,10,,,,,,,,,,,,,,,,,,,,,,,,,,,,,,,,,0,6,6,6,,,,,,,,,,,,,,,,,,,,,,,,,,,84.95202419999987,None,"['2', '3']",1,"[-0.026377700007287785, 0.07650239999929909]",84.95202419999987,None,,,,001,2021_Nov_17_1507,TMTAB,2021.2.3,144.07976256678637,
8,['1'],TMTstop-control_1_4linestimulus4.png,TMTstop-control_1_4greenlinestimulus5.png,TMTstop-control_1_4redlinestimulus5.png,10,,,,,,,,,,,,,,,,,,,,,,,,,,,,,,,,,0,7,7,7,,,,,,,,,,,,,,,,,,,,,,,,,,,85.09093239999493,None,['1'],1,[0.06408399999781977],85.09093239999493,None,,,,001,2021_Nov_17_1507,TMTAB,2021.2.3,144.07976256678637,
9,['2'],TMTstop-control_1_4linestimulus6.png,TMTstop-control_1_4greenlinestimulus6.png,TMTstop-control_1_4redlinestimulus6.png,10,,,,,,,,,,,,,,,,,,,,,,,,,,,,,,,,,0,8,8,8,,,,,,,,,,,,,,,,,,,,,,,,,,,85.22277419999591,None,['2'],1,[-0.008588500000769272],85.22277419999591,None,,,,001,2021_Nov_17_1507,TMTAB,2021.2.3,144.07976256678637,
10,['1'],TMTstop-control_1_4linestimulus7.png,TMTstop-control_1_4greenlinestimulus7.png,TMTstop-control_1_4redlinestimulus7.png,10,,,,,,,,,,,,,,,,,,,,,,,,,,,,,,,,,0,9,9,9,,,,,,,,,,,,,,,,,,,,,,,,,,,85.29236469999887,None,"['3', '1']",1,"[0.005267800006549805, 0.1326763000106439]",85.29236469999887,None,,,,001,2021_Nov_17_1507,TMTAB,2021.2.3,144.07976256678637,
11,['2'],TMTstop-control_1_4linestimulus8.png,TMTstop-control_1_4greenlinestimulus8.png,TMTstop-control_1_4redlinestimulus8.png,10,,,,,,,,,,,,,,,,,,,,,,,,,,,,,,,,,0,10,10,10,,,,,,,,,,,,,,,,,,,,,,,,,,,85.52835469999991,None,['2'],1,[-0.04882240000006277],85.52835469999991,None,,,,001,2021_Nov_17_1507,TMTAB,2021.2.3,144.07976256678637,
12,['1'],TMTstop-control_1_4linestimulus9.png,TMTstop-control_1_4greenlinestimulus9.png,TMTstop-control_1_4redlinestimulus9.png,10,,,,,,,,,,,,,,,,,,,,,,,,,,,,,,,,,0,11,11,11,,,,,,,,,,,,,,,,,,,,,,,,,,,85.59797839999374,None,"['3', '1']",1,"[-0.031718499987619, 0.1036486000084551]",85.59797839999374,None,,,,001,2021_Nov_17_1507,TMTAB,2021.2.3,144.07976256678637,
13,['2'],TMTstop-control_1_4linestimulus10.png,TMTstop-control_1_4greenlinestimulus10.png,TMTstop-control_1_4redlinestimulus10.png,1,,,,,,,,,,,,,,,,,,,,,,,,,,,,,,,,,0,12,12,12,,,,,,,,,,,,,,,,,,,,,,,,,,,85.79237619999913,None,['2'],1,[-0.05137139999715146],85.79237619999913,None,,,,001,2021_Nov_17_1507,TMTAB,2021.2.3,144.07976256678637,
14,['1'],TMTstop-control_1_4linestimulus11.png,TMTstop-control_1_4greenlinestimulus11.png,TMTstop-control_1_4redlinestimulus11.png,None,,,,,,,,,,,,,,,,,,,,,,,,,,,,,,,,,0,13,13,13,,,,,,,,,,,,,,,,,,,,,,,,,,,85.86158820000128,None,"['3', '1']",1,"[-0.029157099997974, 0.12224060000153258]",85.86158820000128,None,,,,001,2021_Nov_17_1507,TMTAB,2021.2.3,144.07976256678637,
15,['2'],TMTstop-control_1_4linestimulus12.png,TMTstop-control_1_4greenlinestimulus12.png,TMTstop-control_1_4redlinestimulus12.png,None,,,,,,,,,,,,,,,,,,,,,,,,,,,,,,,,,0,14,14,14,,,,,,,,,,,,,,,,,,,,,,,,,,,86.08399250000366,None,['2'],1,[-0.0638829999952577],86.08399250000366,None,,,,001,2021_Nov_17_1507,TMTAB,2021.2.3,144.07976256678637,
16,['3'],TMTstop-control_1_4linestimulus13.png,TMTstop-control_1_4greenlinestimulus13.png,TMTstop-control_1_4redlinestimulus13.png,None,,,,,,,,,,,,,,,,,,,,,,,,,,,,,,,,,0,15,15,15,,,,,,,,,,,,,,,,,,,,,,,,,,,86.15298139999504,None,['3'],1,[-0.01609669999743346],86.15298139999504,None,,,,001,2021_Nov_17_1507,TMTAB,2021.2.3,144.07976256678637,
17,['2'],TMTstop-control_1_4linestimulus14.png,TMTstop-control_1_4greenlinestimulus14.png,TMTstop-control_1_4redlinestimulus14.png,None,,,,,,,,,,,,,,,,,,,,,,,,,,,,,,,,,0,16,16,16,,,,,,,,,,,,,,,,,,,,,,,,,,,86.22273720000521,None,"['1', '2']",1,"[0.04449909999675583, 0.08708679999108426]",86.22273720000521,None,,,,001,2021_Nov_17_1507,TMTAB,2021.2.3,144.07976256678637,
18,['3'],TMTstop-control_1_4linestimulus15.png,TMTstop-control_1_4greenlinestimulus15.png,TMTstop-control_1_4redlinestimulus15.png,None,,,,,,,,,,,,,,,,,,,,,,,,,,,,,,,,,0,17,17,17,,,,,,,,,,,,,,,,,,,,,,,,,,,86.37554880000243,None,['3'],1,[0.03959019998728763],86.37554880000243,None,,,,001,2021_Nov_17_1507,TMTAB,2021.2.3,144.07976256678637,
19,['1'],TMTstop-control_1_4linestimulus16.png,TMTstop-control_1_4greenlinestimulus16.png,TMTstop-control_1_4redlinestimulus16.png,None,,,,,,,,,,,,,,,,,,,,,,,,,,,,,,,,,0,18,18,18,,,,,,,,,,,,,,,,,,,,,,,,,,,86.47947629999544,None,['1'],1,[0.06729030000860803],86.47947629999544,None,,,,001,2021_Nov_17_1507,TMTAB,2021.2.3,144.07976256678637,
20,['3'],TMTstop-control_1_4linestimulus17.png,TMTstop-control_1_4greenlinestimulus17.png,TMTstop-control_1_4redlinestimulus17.png,None,,,,,,,,,,,,,,,,,,,,,,,,,,,,,,,,,0,19,19,19,,,,,,,,,,,,,,,,,,,,,,,,,,,86.61858070000017,None,"['2', '3']",1,"[-0.02680829999735579, 0.08860350000031758]",86.61858070000017,None,,,,001,2021_Nov_17_1507,TMTAB,2021.2.3,144.07976256678637,
21,['2'],TMTstop-control_1_4linestimulus18.png,TMTstop-control_1_4greenlinestimulus18.png,TMTstop-control_1_4redlinestimulus18.png,None,,,,,,,,,,,,,,,,,,,,,,,,,,,,,,,,,0,20,20,20,,,,,,,,,,,,,,,,,,,,,,,,,,,86.80602770000405,None,"['1', '2']",1,"[0.05128290000720881, 0.06977810000535101]",86.80602770000405,None,,,,001,2021_Nov_17_1507,TMTAB,2021.2.3,144.07976256678637,
22,['3'],TMTstop-control_1_4linestimulus19.png,TMTstop-control_1_4greenlinestimulus19.png,TMTstop-control_1_4redlinestimulus19.png,None,,,,,,,,,,,,,,,,,,,,,,,,,,,,,,,,,0,21,21,21,,,,,,,,,,,,,,,,,,,,,,,,,,,86.96542659999977,None,['3'],1,[0.03983019999577664],86.96542659999977,None,,,,001,2021_Nov_17_1507,TMTAB,2021.2.3,144.07976256678637,
23,['2'],TMTstop-control_1_4linestimulus20.png,TMTstop-control_1_4greenlinestimulus20.png,TMTstop-control_1_4redlinestimulus20.png,None,,,,,,,,,,,,,,,,,,,,,,,,,,,,,,,,,0,22,22,22,,,,,,,,,,,,,,,,,,,,,,,,,,,87.0767693999951,None,"['1', '2']",1,"[0.10690430000249762, 0.15641999999934342]",87.0767693999951,None,,,,001,2021_Nov_17_1507,TMTAB,2021.2.3,144.07976256678637,
24,['1'],TMTstop-control_1_4linestimulus21.png,TMTstop-control_1_4greenlinestimulus21.png,TMTstop-control_1_4redlinestimulus21.png,None,,,,,,,,,,,,,,,,,,,,,,,,,,,,,,,,,0,23,23,23,,,,,,,,,,,,,,,,,,,,,,,,,,,87.34056219999911,None,"['3', '1']",1,"[0.015513399994233623, 0.15862139999808278]",87.34056219999911,None,,,,001,2021_Nov_17_1507,TMTAB,2021.2.3,144.07976256678637,
25,['3'],TMTstop-control_1_4linestimulus22.png,TMTstop-control_1_4greenlinestimulus22.png,TMTstop-control_1_4redlinestimulus22.png,None,,,,,,,,,,,,,,,,,,,,,,,,,,,,,,,,,0,24,24,24,,,,,,,,,,,,,,,,,,,,,,,,,,,87.58362839999609,None,"['2', '3']",1,"[-0.029773999995086342, 0.08051810000324622]",87.58362839999609,None,,,,001,2021_Nov_17_1507,TMTAB,2021.2.3,144.07976256678637,
None,None,TMTstop-control_1_4linestimulus23.png,TMTstop-control_1_4greenlinestimulus23.png,TMTstop-control_1_4redlinestimulus23.png,None,,,,,,,,,,,,,,,,,,,,,,,,,,,,,,,,,0,25,25,25,,,,,,,,,,,,,,,,,,,,,,,,,,,87.73676440000418,None,['1'],0,[0.06556329999875743],87.73676440000418,None,,,,001,2021_Nov_17_1507,TMTAB,2021.2.3,144.07976256678637,
A,['2'],TMTstop-control_1_d.png,TMTstop-control_1_d.png,TMTstop-control_1_d.png,10,,,,,,,,,,,,,,,,,,,,,,,,,,,,,,,,,,,,,0,0,0,0,,,,,,,,,88.7620551,None,,,,,,,,,,,,,91.79841259999375,None,"['1', '2']",1,"[0.4220494999899529, 0.47434799998882227]",91.79841259999375,None,,,,001,2021_Nov_17_1507,TMTAB,2021.2.3,144.07976256678637,
B,['1'],TMTstop-control_1_d.png,TMTstop-control_1_dfirstgreen.png,TMTstop-control_1_dfirstred.png,10,,,,,,,,,,,,,,,,,,,,,,,,,,,,,,,,,,,,,0,1,1,1,,,,,,,,,,,,,,,,,,,,,,,92.35449879999214,None,"['3', '1']",1,"[0.029851100000087172, 0.18156360001012217]",92.35449879999214,None,,,,001,2021_Nov_17_1507,TMTAB,2021.2.3,144.07976256678637,
C,['2'],TMTstop-control_1_dlinestimulus0.png,TMTstop-control_1_dgreenlinestimulus0.png,TMTstop-control_1_dredlinestimulus0.png,10,,,,,,,,,,,,,,,,,,,,,,,,,,,,,,,,,,,,,0,2,2,2,,,,,,,,,,,,,,,,,,,,,,,92.60424960000091,None,['2'],1,[-0.008477199997287244],92.60424960000091,None,,,,001,2021_Nov_17_1507,TMTAB,2021.2.3,144.07976256678637,
D,['1'],TMTstop-control_1_dlinestimulus1.png,TMTstop-control_1_dgreenlinestimulus1.png,TMTstop-control_1_dredlinestimulus1.png,10,,,,,,,,,,,,,,,,,,,,,,,,,,,,,,,,,,,,,0,3,3,3,,,,,,,,,,,,,,,,,,,,,,,92.66678769999999,None,"['3', '1']",1,"[0.03357210000103805, 0.15553150000050664]",92.66678769999999,None,,,,001,2021_Nov_17_1507,TMTAB,2021.2.3,144.07976256678637,
E,['3'],TMTstop-control_1_dlinestimulus2.png,TMTstop-control_1_dgreenlinestimulus2.png,TMTstop-control_1_dredlinestimulus2.png,10,,,,,,,,,,,,,,,,,,,,,,,,,,,,,,,,,,,,,0,4,4,4,,,,,,,,,,,,,,,,,,,,,,,92.91692190000322,None,"['2', '3']",1,"[-0.025045100002898835, 0.06506369999260642]",92.91692190000322,None,,,,001,2021_Nov_17_1507,TMTAB,2021.2.3,144.07976256678637,
F,['1'],TMTstop-control_1_dlinestimulus3.png,TMTstop-control_1_dgreenlinestimulus3.png,TMTstop-control_1_dredlinestimulus3.png,10,,,,,,,,,,,,,,,,,,,,,,,,,,,,,,,,,,,,,0,5,5,5,,,,,,,,,,,,,,,,,,,,,,,93.05577059999632,None,['1'],1,[0.060354500004905276],93.05577059999632,None,,,,001,2021_Nov_17_1507,TMTAB,2021.2.3,144.07976256678637,
G,['3'],TMTstop-control_1_dlinestimulus4.png,TMTstop-control_1_dgreenlinestimulus4.png,TMTstop-control_1_dredlinestimulus4.png,10,,,,,,,,,,,,,,,,,,,,,,,,,,,,,,,,,,,,,0,6,6,6,,,,,,,,,,,,,,,,,,,,,,,93.19472280000628,None,"['2', '3']",1,"[-0.026759000000311062, 0.07160509999084752]",93.19472280000628,None,,,,001,2021_Nov_17_1507,TMTAB,2021.2.3,144.07976256678637,
H,['2'],TMTstop-control_1_dlinestimulus5.png,TMTstop-control_1_dgreenlinestimulus5.png,TMTstop-control_1_dredlinestimulus5.png,10,,,,,,,,,,,,,,,,,,,,,,,,,,,,,,,,,,,,,0,7,7,7,,,,,,,,,,,,,,,,,,,,,,,93.34060060000047,None,"['1', '2']",1,"[0.08547029999317601, 0.1192012999963481]",93.34060060000047,None,,,,001,2021_Nov_17_1507,TMTAB,2021.2.3,144.07976256678637,
I,['3'],TMTstop-control_1_dlinestimulus6.png,TMTstop-control_1_dgreenlinestimulus6.png,TMTstop-control_1_dredlinestimulus6.png,10,,,,,,,,,,,,,,,,,,,,,,,,,,,,,,,,,,,,,0,8,8,8,,,,,,,,,,,,,,,,,,,,,,,93.53494929999579,None,['3'],1,[0.059013700010837056],93.53494929999579,None,,,,001,2021_Nov_17_1507,TMTAB,2021.2.3,144.07976256678637,
J,['1'],TMTstop-control_1_dlinestimulus7.png,TMTstop-control_1_dgreenlinestimulus7.png,TMTstop-control_1_dredlinestimulus7.png,10,,,,,,,,,,,,,,,,,,,,,,,,,,,,,,,,,,,,,0,9,9,9,,,,,,,,,,,,,,,,,,,,,,,93.6598679000017,None,['1'],1,[0.08691309999267105],93.6598679000017,None,,,,001,2021_Nov_17_1507,TMTAB,2021.2.3,144.07976256678637,
K,['2'],TMTstop-control_1_dlinestimulus8.png,TMTstop-control_1_dgreenlinestimulus8.png,TMTstop-control_1_dredlinestimulus8.png,10,,,,,,,,,,,,,,,,,,,,,,,,,,,,,,,,,,,,,0,10,10,10,,,,,,,,,,,,,,,,,,,,,,,93.82658639999863,None,['2'],1,[-0.0269622000050731],93.82658639999863,None,,,,001,2021_Nov_17_1507,TMTAB,2021.2.3,144.07976256678637,
L,['1'],TMTstop-control_1_dlinestimulus9.png,TMTstop-control_1_dgreenlinestimulus9.png,TMTstop-control_1_dredlinestimulus9.png,10,,,,,,,,,,,,,,,,,,,,,,,,,,,,,,,,,,,,,0,11,11,11,,,,,,,,,,,,,,,,,,,,,,,93.89600399999472,None,"['3', '1']",1,"[0.019434000001638196, 0.17716439999639988]",93.89600399999472,None,,,,001,2021_Nov_17_1507,TMTAB,2021.2.3,144.07976256678637,
M,['3'],TMTstop-control_1_dlinestimulus10.png,TMTstop-control_1_dgreenlinestimulus10.png,TMTstop-control_1_dredlinestimulus10.png,1,,,,,,,,,,,,,,,,,,,,,,,,,,,,,,,,,,,,,0,12,12,12,,,,,,,,,,,,,,,,,,,,,,,94.14603229999193,None,"['2', '3']",1,"[-0.019142599994665943, 0.0953503000055207]",94.14603229999193,None,,,,001,2021_Nov_17_1507,TMTAB,2021.2.3,144.07976256678637,
N,['2'],TMTstop-control_1_dlinestimulus11.png,TMTstop-control_1_dgreenlinestimulus11.png,TMTstop-control_1_dredlinestimulus11.png,None,,,,,,,,,,,,,,,,,,,,,,,,,,,,,,,,,,,,,0,13,13,13,,,,,,,,,,,,,,,,,,,,,,,94.33367219999491,None,"['1', '2']",1,"[0.07850129999860656, 0.12360570000601001]",94.33367219999491,None,,,,001,2021_Nov_17_1507,TMTAB,2021.2.3,144.07976256678637,
O,['1'],TMTstop-control_1_dlinestimulus12.png,TMTstop-control_1_dgreenlinestimulus12.png,TMTstop-control_1_dredlinestimulus12.png,None,,,,,,,,,,,,,,,,,,,,,,,,,,,,,,,,,,,,,0,14,14,14,,,,,,,,,,,,,,,,,,,,,,,94.52808259999438,None,"['3', '1']",1,"[0.060991100006503984, 0.20702370000071824]",94.52808259999438,None,,,,001,2021_Nov_17_1507,TMTAB,2021.2.3,144.07976256678637,
P,['3'],TMTstop-control_1_dlinestimulus13.png,TMTstop-control_1_dgreenlinestimulus13.png,TMTstop-control_1_dredlinestimulus13.png,None,,,,,,,,,,,,,,,,,,,,,,,,,,,,,,,,,,,,,0,15,15,15,,,,,,,,,,,,,,,,,,,,,,,94.80587029999879,None,"['2', '3']",1,"[0.018573199995444156, 0.10452300000179093]",94.80587029999879,None,,,,001,2021_Nov_17_1507,TMTAB,2021.2.3,144.07976256678637,
Q,['2'],TMTstop-control_1_dlinestimulus14.png,TMTstop-control_1_dgreenlinestimulus14.png,TMTstop-control_1_dredlinestimulus14.png,None,,,,,,,,,,,,,,,,,,,,,,,,,,,,,,,,,,,,,0,16,16,16,,,,,,,,,,,,,,,,,,,,,,,94.97950539999874,None,"['1', '2']",1,"[0.07703010000113863, 0.1639411999931326]",94.97950539999874,None,,,,001,2021_Nov_17_1507,TMTAB,2021.2.3,144.07976256678637,
R,['1'],TMTstop-control_1_dlinestimulus15.png,TMTstop-control_1_dgreenlinestimulus15.png,TMTstop-control_1_dredlinestimulus15.png,None,,,,,,,,,,,,,,,,,,,,,,,,,,,,,,,,,,,,,0,17,17,17,,,,,,,,,,,,,,,,,,,,,,,95.23624569999811,None,"['3', '1']",1,"[-0.01041720001376234, 0.13984189998882357]",95.23624569999811,None,,,,001,2021_Nov_17_1507,TMTAB,2021.2.3,144.07976256678637,
S,['3'],TMTstop-control_1_dlinestimulus16.png,TMTstop-control_1_dgreenlinestimulus16.png,TMTstop-control_1_dredlinestimulus16.png,None,,,,,,,,,,,,,,,,,,,,,,,,,,,,,,,,,,,,,0,18,18,18,,,,,,,,,,,,,,,,,,,,,,,95.45845530000224,None,"['2', '3']",1,"[-0.01731199999630917, 0.09584979999635834]",95.45845530000224,None,,,,001,2021_Nov_17_1507,TMTAB,2021.2.3,144.07976256678637,
T,['2'],TMTstop-control_1_dlinestimulus17.png,TMTstop-control_1_dgreenlinestimulus17.png,TMTstop-control_1_dredlinestimulus17.png,None,,,,,,,,,,,,,,,,,,,,,,,,,,,,,,,,,,,,,0,19,19,19,,,,,,,,,,,,,,,,,,,,,,,95.6392632000061,None,"['1', '2']",1,"[0.06630939999013208, 0.14624419999017846]",95.6392632000061,None,,,,001,2021_Nov_17_1507,TMTAB,2021.2.3,144.07976256678637,
U,['1'],TMTstop-control_1_dlinestimulus18.png,TMTstop-control_1_dgreenlinestimulus18.png,TMTstop-control_1_dredlinestimulus18.png,None,,,,,,,,,,,,,,,,,,,,,,,,,,,,,,,,,,,,,0,20,20,20,,,,,,,,,,,,,,,,,,,,,,,95.85448729999189,None,"['3', '1']",1,"[0.03924350001034327, 0.18603920000896323]",95.85448729999189,None,,,,001,2021_Nov_17_1507,TMTAB,2021.2.3,144.07976256678637,
V,['3'],TMTstop-control_1_dlinestimulus19.png,TMTstop-control_1_dgreenlinestimulus19.png,TMTstop-control_1_dredlinestimulus19.png,None,,,,,,,,,,,,,,,,,,,,,,,,,,,,,,,,,,,,,0,21,21,21,,,,,,,,,,,,,,,,,,,,,,,96.11833699999261,None,"['2', '3']",1,"[-0.018338000008952804, 0.1060760999971535]",96.11833699999261,None,,,,001,2021_Nov_17_1507,TMTAB,2021.2.3,144.07976256678637,
W,['2'],TMTstop-control_1_dlinestimulus20.png,TMTstop-control_1_dgreenlinestimulus20.png,TMTstop-control_1_dredlinestimulus20.png,None,,,,,,,,,,,,,,,,,,,,,,,,,,,,,,,,,,,,,0,22,22,22,,,,,,,,,,,,,,,,,,,,,,,96.29913980000129,None,"['1', '2']",1,"[0.06768029999511782, 0.11729159999231342]",96.29913980000129,None,,,,001,2021_Nov_17_1507,TMTAB,2021.2.3,144.07976256678637,
X,['1'],TMTstop-control_1_dlinestimulus21.png,TMTstop-control_1_dgreenlinestimulus21.png,TMTstop-control_1_dredlinestimulus21.png,None,,,,,,,,,,,,,,,,,,,,,,,,,,,,,,,,,,,,,0,23,23,23,,,,,,,,,,,,,,,,,,,,,,,96.51413919999322,None,"['3', '1']",1,"[0.04333950000000186, 0.17911779999849387]",96.51413919999322,None,,,,001,2021_Nov_17_1507,TMTAB,2021.2.3,144.07976256678637,
Y,['2'],TMTstop-control_1_dlinestimulus22.png,TMTstop-control_1_dgreenlinestimulus22.png,TMTstop-control_1_dredlinestimulus22.png,None,,,,,,,,,,,,,,,,,,,,,,,,,,,,,,,,,,,,,0,24,24,24,,,,,,,,,,,,,,,,,,,,,,,96.77778509999916,None,['2'],1,[0.36951309999858495],96.77778509999916,None,,,,001,2021_Nov_17_1507,TMTAB,2021.2.3,144.07976256678637,
None,None,TMTstop-control_1_dlinestimulus23.png,TMTstop-control_1_dgreenlinestimulus23.png,TMTstop-control_1_dredlinestimulus23.png,None,,,,,,,,,,,,,,,,,,,,,,,,,,,,,,,,,,,,,0,25,25,25,,,,,,,,,,,,,,,,,,,,,,,97.22252890000527,None,None,1,,97.22252890000527,None,,,,001,2021_Nov_17_1507,TMTAB,2021.2.3,144.07976256678637,
,,,,,,,,,,,,,,,,,,,,,,,,,,,,,,,,,,,,,,,,,,,,,,,,,,,,,,,,,,,,,,,,,,,,,,,,,,,98.22693780000554,None,,,,,,,
