NumberLetter,corrAns,StimFile,Correct_StimFile,False_StimFile,DurationTrial,trials.thisRepN,trials.thisTrialN,trials.thisN,trials.thisIndex,Instruct.started,Instruct.stopped,text_2.started,text_2.stopped,Stim.started,Stim.stopped,key_resp_2.keys,key_resp_2.corr,key_resp_2.rt,key_resp_2.started,key_resp_2.stopped,polygon.started,polygon.stopped,participant,session,date,expName,psychopyVersion,frameRate,
1,['2'],TMTstop-control_1_1.png,TMTstop-control_1_1.png,TMTstop-control_1_1.png,10,0,0,0,0,10.619408300030045,None,10.619408300030045,None,12.082640400039963,None,['2'],1,[0.33985330001451075],12.082640400039963,None,,,,001,2021_Nov_03_1824,TMTAB,2021.2.3,144.73183355999512,
2,['1'],TMTstop-control_1_1.png,TMTstop-control_1_1firstgreen.png,TMTstop-control_1_1firstred.png,10,0,1,1,1,,,,,12.51310010009911,None,"['3', '1']",1,"[0.10871259996201843, 0.29179139994084835]",12.51310010009911,None,,,,001,2021_Nov_03_1824,TMTAB,2021.2.3,144.73183355999512,
3,['2'],TMTstop-control_1_1linestimulus0.png,TMTstop-control_1_1greenlinestimulus0.png,TMTstop-control_1_1redlinestimulus0.png,10,0,2,2,2,,,,,12.916297900024801,None,"['3', '2']",1,"[-0.01980869995895773, 0.0482916000764817]",12.916297900024801,None,,,,001,2021_Nov_03_1824,TMTAB,2021.2.3,144.73183355999512,
4,['3'],TMTstop-control_1_1linestimulus1.png,TMTstop-control_1_1greenlinestimulus1.png,TMTstop-control_1_1redlinestimulus1.png,10,0,3,3,3,,,,,13.06920590007212,None,"['1', '3', '2', '1', '2', '3']",1,"[-0.006491200067102909, 0.10114839999005198, 0.11329969996586442, 0.2548442999832332, 0.3398903999477625, 0.34419710002839565]",13.06920590007212,None,,,,001,2021_Nov_03_1824,TMTAB,2021.2.3,144.73183355999512,
5,['2'],TMTstop-control_1_1linestimulus2.png,TMTstop-control_1_1greenlinestimulus2.png,TMTstop-control_1_1redlinestimulus2.png,10,0,4,4,4,,,,,13.513445800053887,None,"['1', '3', '2']",1,"[0.05631000001449138, 0.15946029999759048, 0.16718430002219975]",13.513445800053887,None,,,,001,2021_Nov_03_1824,TMTAB,2021.2.3,144.73183355999512,
6,['1'],TMTstop-control_1_1linestimulus3.png,TMTstop-control_1_1greenlinestimulus3.png,TMTstop-control_1_1redlinestimulus3.png,10,0,5,5,5,,,,,13.770256400108337,None,['1'],1,[0.061475499998778105],13.770256400108337,None,,,,001,2021_Nov_03_1824,TMTAB,2021.2.3,144.73183355999512,
7,['3'],TMTstop-control_1_1linestimulus4.png,TMTstop-control_1_1greenlinestimulus4.png,TMTstop-control_1_1redlinestimulus4.png,10,0,6,6,6,,,,,13.90948690008372,None,"['3', '2', '1', '3']",1,"[0.019345799926668406, 0.027051399927586317, 0.19908169994596392, 0.30815549998078495]",13.90948690008372,None,,,,001,2021_Nov_03_1824,TMTAB,2021.2.3,144.73183355999512,
8,['2'],TMTstop-control_1_1linestimulus4.png,TMTstop-control_1_1greenlinestimulus5.png,TMTstop-control_1_1redlinestimulus5.png,10,0,7,7,7,,,,,14.298358400003053,None,['2'],1,[-0.054167000111192465],14.298358400003053,None,,,,001,2021_Nov_03_1824,TMTAB,2021.2.3,144.73183355999512,
9,['3'],TMTstop-control_1_1linestimulus6.png,TMTstop-control_1_1greenlinestimulus6.png,TMTstop-control_1_1redlinestimulus6.png,10,0,8,8,8,,,,,14.381326100090519,None,"['1', '3', '2', '1', '3', '2', '1', '3']",1,"[0.03629369998816401, 0.14270440000109375, 0.1565402999985963, 0.3248752999352291, 0.46561009995639324, 0.47820209991186857, 0.6400553999701515, 0.7584673999808729]",14.381326100090519,None,,,,001,2021_Nov_03_1824,TMTAB,2021.2.3,144.73183355999512,
10,['2'],TMTstop-control_1_1linestimulus7.png,TMTstop-control_1_1greenlinestimulus7.png,TMTstop-control_1_1redlinestimulus7.png,10,0,9,9,9,,,,,15.22301190008875,None,['2'],1,[-0.040444000042043626],15.22301190008875,None,,,,001,2021_Nov_03_1824,TMTAB,2021.2.3,144.73183355999512,
11,['3'],TMTstop-control_1_1linestimulus8.png,TMTstop-control_1_1greenlinestimulus8.png,TMTstop-control_1_1redlinestimulus8.png,10,0,10,10,10,,,,,15.298143500112928,None,"['1', '3']",1,"[0.07091820007190108, 0.20939170010387897]",15.298143500112928,None,,,,001,2021_Nov_03_1824,TMTAB,2021.2.3,144.73183355999512,
12,['1'],TMTstop-control_1_1linestimulus9.png,TMTstop-control_1_1greenlinestimulus9.png,TMTstop-control_1_1redlinestimulus9.png,10,0,11,11,11,,,,,15.583037200034596,None,"['2', '1']",1,"[-0.053110099979676306, 0.10952369996812195]",15.583037200034596,None,,,,001,2021_Nov_03_1824,TMTAB,2021.2.3,144.73183355999512,
13,['3'],TMTstop-control_1_1linestimulus10.png,TMTstop-control_1_1greenlinestimulus10.png,TMTstop-control_1_1redlinestimulus10.png,1,0,12,12,12,,,,,15.777523000026122,None,['3'],1,[0.04060970002319664],15.777523000026122,None,,,,001,2021_Nov_03_1824,TMTAB,2021.2.3,144.73183355999512,
14,['1'],TMTstop-control_1_1linestimulus11.png,TMTstop-control_1_1greenlinestimulus11.png,TMTstop-control_1_1redlinestimulus11.png,None,0,13,13,13,,,,,15.889560400042683,None,"['2', '1']",1,"[-0.05516300001181662, 0.05415440001524985]",15.889560400042683,None,,,,001,2021_Nov_03_1824,TMTAB,2021.2.3,144.73183355999512,
15,['3'],TMTstop-control_1_1linestimulus12.png,TMTstop-control_1_1greenlinestimulus12.png,TMTstop-control_1_1redlinestimulus12.png,None,0,14,14,14,,,,,16.043801200110465,None,"['2', '3']",1,"[0.0357732999837026, 0.04393829999025911]",16.043801200110465,None,,,,001,2021_Nov_03_1824,TMTAB,2021.2.3,144.73183355999512,
16,['1'],TMTstop-control_1_1linestimulus13.png,TMTstop-control_1_1greenlinestimulus13.png,TMTstop-control_1_1redlinestimulus13.png,None,0,15,15,15,,,,,16.193834600038826,None,['1'],1,[0.06191240006592125],16.193834600038826,None,,,,001,2021_Nov_03_1824,TMTAB,2021.2.3,144.73183355999512,
17,['2'],TMTstop-control_1_1linestimulus14.png,TMTstop-control_1_1greenlinestimulus14.png,TMTstop-control_1_1redlinestimulus14.png,None,0,16,16,16,,,,,16.332772500114515,None,"['3', '2']",1,"[0.07983209996018559, 0.11673599993810058]",16.332772500114515,None,,,,001,2021_Nov_03_1824,TMTAB,2021.2.3,144.73183355999512,
18,['1'],TMTstop-control_1_1linestimulus15.png,TMTstop-control_1_1greenlinestimulus15.png,TMTstop-control_1_1redlinestimulus15.png,None,0,17,17,17,,,,,16.527437500073574,None,['1'],1,[0.03310180001426488],16.527437500073574,None,,,,001,2021_Nov_03_1824,TMTAB,2021.2.3,144.73183355999512,
19,['3'],TMTstop-control_1_1linestimulus16.png,TMTstop-control_1_1greenlinestimulus16.png,TMTstop-control_1_1redlinestimulus16.png,None,0,18,18,18,,,,,16.638554600067437,None,['3'],1,[0.06791189999785274],16.638554600067437,None,,,,001,2021_Nov_03_1824,TMTAB,2021.2.3,144.73183355999512,
20,['1'],TMTstop-control_1_1linestimulus17.png,TMTstop-control_1_1greenlinestimulus17.png,TMTstop-control_1_1redlinestimulus17.png,None,0,19,19,19,,,,,16.777214200003073,None,"['2', '1']",1,"[-0.053873500088229775, 0.09588409995194525]",16.777214200003073,None,,,,001,2021_Nov_03_1824,TMTAB,2021.2.3,144.73183355999512,
21,['3'],TMTstop-control_1_1linestimulus18.png,TMTstop-control_1_1greenlinestimulus18.png,TMTstop-control_1_1redlinestimulus18.png,None,0,20,20,20,,,,,16.972327600000426,None,['3'],1,[0.06998010003007948],16.972327600000426,None,,,,001,2021_Nov_03_1824,TMTAB,2021.2.3,144.73183355999512,
22,['1'],TMTstop-control_1_1linestimulus19.png,TMTstop-control_1_1greenlinestimulus19.png,TMTstop-control_1_1redlinestimulus19.png,None,0,21,21,21,,,,,17.11047190008685,None,"['2', '1']",1,"[-0.06051350000780076, 0.04884990002028644]",17.11047190008685,None,,,,001,2021_Nov_03_1824,TMTAB,2021.2.3,144.73183355999512,
23,['3'],TMTstop-control_1_1linestimulus20.png,TMTstop-control_1_1greenlinestimulus20.png,TMTstop-control_1_1redlinestimulus20.png,None,0,22,22,22,,,,,17.263672500033863,None,['3'],1,[0.3772824000334367],17.263672500033863,None,,,,001,2021_Nov_03_1824,TMTAB,2021.2.3,144.73183355999512,
24,['1'],TMTstop-control_1_1linestimulus21.png,TMTstop-control_1_1greenlinestimulus21.png,TMTstop-control_1_1redlinestimulus21.png,None,0,23,23,23,,,,,17.721955400076695,None,"['2', '2', '1']",1,"[-0.057724100071936846, 0.463531699962914, 0.7551268999231979]",17.721955400076695,None,,,,001,2021_Nov_03_1824,TMTAB,2021.2.3,144.73183355999512,
25,['3'],TMTstop-control_1_1linestimulus22.png,TMTstop-control_1_1greenlinestimulus22.png,TMTstop-control_1_1redlinestimulus22.png,None,0,24,24,24,,,,,18.58284360007383,None,"['2', '3']",1,"[0.547024599974975, 0.9294886999996379]",18.58284360007383,None,,,,001,2021_Nov_03_1824,TMTAB,2021.2.3,144.73183355999512,
None,None,TMTstop-control_1_1linestimulus23.png,TMTstop-control_1_1greenlinestimulus23.png,TMTstop-control_1_1redlinestimulus23.png,None,0,25,25,25,,,,,19.618488600011915,None,None,1,,19.618488600011915,None,,,,001,2021_Nov_03_1824,TMTAB,2021.2.3,144.73183355999512,
,,,,,,,,,,,,,,,,,,,,,20.61471510003321,None,,,,,,,
