NumberLetter,corrAns,StimFile,Correct_StimFile,False_StimFile,DurationTrial,trials.thisRepN,trials.thisTrialN,trials.thisN,trials.thisIndex,Instruct.started,Instruct.stopped,text_2.started,text_2.stopped,Stim.started,Stim.stopped,key_resp_2.keys,key_resp_2.corr,key_resp_2.rt,key_resp_2.started,key_resp_2.stopped,participant,session,date,expName,psychopyVersion,frameRate,
1,['2'],TMTstop-control_1_1.png,TMTstop-control_1_1.png,TMTstop-control_1_1.png,10,0,0,0,0,11.854130499996245,None,11.854130499996245,None,13.020728600095026,None,['2'],1,[1.379682100028731],13.020728600095026,None,,001,2021_Nov_03_2046,TMTAB,2021.2.3,None,
2,['1'],TMTstop-control_1_1.png,TMTstop-control_1_1firstgreen.png,TMTstop-control_1_1firstred.png,10,0,1,1,1,,,,,14.541544700041413,None,"['3', '1']",1,"[0.08703649998642504, 0.2338912000413984]",14.541544700041413,None,,001,2021_Nov_03_2046,TMTAB,2021.2.3,None,
3,['2'],TMTstop-control_1_1linestimulus0.png,TMTstop-control_1_1greenlinestimulus0.png,TMTstop-control_1_1redlinestimulus0.png,10,0,2,2,2,,,,,14.950867900042795,None,['2'],1,[-0.022045899997465312],14.950867900042795,None,,001,2021_Nov_03_2046,TMTAB,2021.2.3,None,
4,['3'],TMTstop-control_1_1linestimulus1.png,TMTstop-control_1_1greenlinestimulus1.png,TMTstop-control_1_1redlinestimulus1.png,10,0,3,3,3,,,,,15.08288270002231,None,['3'],1,[-0.05205060006119311],15.08288270002231,None,,001,2021_Nov_03_2046,TMTAB,2021.2.3,None,
5,['2'],TMTstop-control_1_1linestimulus2.png,TMTstop-control_1_1greenlinestimulus2.png,TMTstop-control_1_1redlinestimulus2.png,10,0,4,4,4,,,,,15.216456900001504,None,"['1', '2']",1,"[0.1351761999540031, 0.16730560001451522]",15.216456900001504,None,,001,2021_Nov_03_2046,TMTAB,2021.2.3,None,
6,['1'],TMTstop-control_1_1linestimulus3.png,TMTstop-control_1_1greenlinestimulus3.png,TMTstop-control_1_1redlinestimulus3.png,10,0,5,5,5,,,,,15.548962100059725,None,"['3', '1']",1,"[-0.05553090001922101, 0.10415370005648583]",15.548962100059725,None,,001,2021_Nov_03_2046,TMTAB,2021.2.3,None,
7,['3'],TMTstop-control_1_1linestimulus4.png,TMTstop-control_1_1greenlinestimulus4.png,TMTstop-control_1_1redlinestimulus4.png,10,0,6,6,6,,,,,15.800188400084153,None,"['2', '3']",1,"[-0.08381320000626147, 0.011175899999216199]",15.800188400084153,None,,001,2021_Nov_03_2046,TMTAB,2021.2.3,None,
8,['2'],TMTstop-control_1_1linestimulus4.png,TMTstop-control_1_1greenlinestimulus5.png,TMTstop-control_1_1redlinestimulus5.png,10,0,7,7,7,,,,,15.98680900002364,None,"['1', '2', '3', '1', '2']",1,"[-0.02710159996058792, 0.11924010002985597, 0.14047550002578646, 0.3055652000475675, 0.4081315000075847]",15.98680900002364,None,,001,2021_Nov_03_2046,TMTAB,2021.2.3,None,
9,['3'],TMTstop-control_1_1linestimulus6.png,TMTstop-control_1_1greenlinestimulus6.png,TMTstop-control_1_1redlinestimulus6.png,10,0,8,8,8,,,,,16.555666800006293,None,['3'],1,[0.001040700008161366],16.555666800006293,None,,001,2021_Nov_03_2046,TMTAB,2021.2.3,None,
10,['2'],TMTstop-control_1_1linestimulus7.png,TMTstop-control_1_1greenlinestimulus7.png,TMTstop-control_1_1redlinestimulus7.png,10,0,9,9,9,,,,,16.67322029999923,None,"['1', '2']",1,"[-0.04932809993624687, 0.03446920006535947]",16.67322029999923,None,,001,2021_Nov_03_2046,TMTAB,2021.2.3,None,
11,['3'],TMTstop-control_1_1linestimulus8.png,TMTstop-control_1_1greenlinestimulus8.png,TMTstop-control_1_1redlinestimulus8.png,10,0,10,10,10,,,,,16.86824780004099,None,['3'],1,[-0.0734334000153467],16.86824780004099,None,,001,2021_Nov_03_2046,TMTAB,2021.2.3,None,
12,['1'],TMTstop-control_1_1linestimulus9.png,TMTstop-control_1_1greenlinestimulus9.png,TMTstop-control_1_1redlinestimulus9.png,10,0,11,11,11,,,,,16.987744000041857,None,['1'],1,[-0.05774449999444187],16.987744000041857,None,,001,2021_Nov_03_2046,TMTAB,2021.2.3,None,
13,['3'],TMTstop-control_1_1linestimulus10.png,TMTstop-control_1_1greenlinestimulus10.png,TMTstop-control_1_1redlinestimulus10.png,1,0,12,12,12,,,,,17.11727080005221,None,"['2', '3']",1,"[-0.08958210004493594, 0.02739039994776249]",17.11727080005221,None,,001,2021_Nov_03_2046,TMTAB,2021.2.3,None,
14,['1'],TMTstop-control_1_1linestimulus11.png,TMTstop-control_1_1greenlinestimulus11.png,TMTstop-control_1_1redlinestimulus11.png,None,0,13,13,13,,,,,17.291063000098802,None,['1'],1,[-0.03528140007983893],17.291063000098802,None,,001,2021_Nov_03_2046,TMTAB,2021.2.3,None,
15,['3'],TMTstop-control_1_1linestimulus12.png,TMTstop-control_1_1greenlinestimulus12.png,TMTstop-control_1_1redlinestimulus12.png,None,0,14,14,14,,,,,17.423638500040397,None,"['2', '3']",1,"[-0.08452090003993362, -0.0035694000544026494]",17.423638500040397,None,,001,2021_Nov_03_2046,TMTAB,2021.2.3,None,
16,['1'],TMTstop-control_1_1linestimulus13.png,TMTstop-control_1_1greenlinestimulus13.png,TMTstop-control_1_1redlinestimulus13.png,None,0,15,15,15,,,,,17.569301500101574,None,['1'],1,[0.003404499962925911],17.569301500101574,None,,001,2021_Nov_03_2046,TMTAB,2021.2.3,None,
17,['2'],TMTstop-control_1_1linestimulus14.png,TMTstop-control_1_1greenlinestimulus14.png,TMTstop-control_1_1redlinestimulus14.png,None,0,16,16,16,,,,,17.716534800012596,None,['2'],1,[0.2682602000422776],17.716534800012596,None,,001,2021_Nov_03_2046,TMTAB,2021.2.3,None,
18,['1'],TMTstop-control_1_1linestimulus15.png,TMTstop-control_1_1greenlinestimulus15.png,TMTstop-control_1_1redlinestimulus15.png,None,0,17,17,17,,,,,18.112054100027308,None,"['3', '1']",1,"[0.1361312000080943, 1.1163786000106484]",18.112054100027308,None,,001,2021_Nov_03_2046,TMTAB,2021.2.3,None,
19,['3'],TMTstop-control_1_1linestimulus16.png,TMTstop-control_1_1greenlinestimulus16.png,TMTstop-control_1_1redlinestimulus16.png,None,0,18,18,18,,,,,19.359023500001058,None,"['2', '3']",1,"[-0.01737589994445443, 0.05838320008479059]",19.359023500001058,None,,001,2021_Nov_03_2046,TMTAB,2021.2.3,None,
20,['1'],TMTstop-control_1_1linestimulus17.png,TMTstop-control_1_1greenlinestimulus17.png,TMTstop-control_1_1redlinestimulus17.png,None,0,19,19,19,,,,,19.527253100066446,None,['1'],1,[0.04558549995999783],19.527253100066446,None,,001,2021_Nov_03_2046,TMTAB,2021.2.3,None,
21,['3'],TMTstop-control_1_1linestimulus18.png,TMTstop-control_1_1greenlinestimulus18.png,TMTstop-control_1_1redlinestimulus18.png,None,0,20,20,20,,,,,19.700426200055517,None,"['2', '3']",1,"[-0.03553900006227195, 0.05191659997217357]",19.700426200055517,None,,001,2021_Nov_03_2046,TMTAB,2021.2.3,None,
22,['1'],TMTstop-control_1_1linestimulus19.png,TMTstop-control_1_1greenlinestimulus19.png,TMTstop-control_1_1redlinestimulus19.png,None,0,21,21,21,,,,,19.882397500099614,None,['1'],1,[0.012287500081583858],19.882397500099614,None,,001,2021_Nov_03_2046,TMTAB,2021.2.3,None,
23,['3'],TMTstop-control_1_1linestimulus20.png,TMTstop-control_1_1greenlinestimulus20.png,TMTstop-control_1_1redlinestimulus20.png,None,0,22,22,22,,,,,20.00716060004197,None,"['2', '3']",1,"[-0.00784939993172884, 0.074571100063622]",20.00716060004197,None,,001,2021_Nov_03_2046,TMTAB,2021.2.3,None,
24,['1'],TMTstop-control_1_1linestimulus21.png,TMTstop-control_1_1greenlinestimulus21.png,TMTstop-control_1_1redlinestimulus21.png,None,0,23,23,23,,,,,20.235319700092077,None,['1'],1,[0.0025551000144332647],20.235319700092077,None,,001,2021_Nov_03_2046,TMTAB,2021.2.3,None,
25,['3'],TMTstop-control_1_1linestimulus22.png,TMTstop-control_1_1greenlinestimulus22.png,TMTstop-control_1_1redlinestimulus22.png,None,0,24,24,24,,,,,20.3883710000664,None,"['2', '3']",1,"[-0.08788300002925098, 0.007679299917072058]",20.3883710000664,None,,001,2021_Nov_03_2046,TMTAB,2021.2.3,None,
