NumberLetter,corrAns,StimFile,Correct_StimFile,False_StimFile,DurationTrial,restartpractice.thisRepN,restartpractice.thisTrialN,restartpractice.thisN,restartpractice.thisIndex,trials_practice.thisRepN,trials_practice.thisTrialN,trials_practice.thisN,trials_practice.thisIndex,trials.thisRepN,trials.thisTrialN,trials.thisN,trials.thisIndex,trials_2.thisRepN,trials_2.thisTrialN,trials_2.thisN,trials_2.thisIndex,Instruct.started,Instruct.stopped,image_2.started,image_2.stopped,key_resp_6.keys,key_resp_6.rt,key_resp_6.started,key_resp_6.stopped,polygon.started,polygon.stopped,Stim_practice.started,Stim_practice.stopped,key_resp_practice.keys,key_resp_practice.rt,key_resp_practice.started,key_resp_practice.stopped,text_5.started,text_5.stopped,key_resp_5.keys,key_resp_5.rt,key_resp_5.started,key_resp_5.stopped,Stim.started,Stim.stopped,key_resp_2.keys,key_resp_2.corr,key_resp_2.rt,key_resp_2.started,key_resp_2.stopped,participant,session,date,expName,psychopyVersion,frameRate,
,,,,,,,,,,,,,,,,,,,,,,11.059721700148657,None,14.66206380003132,None,2,0.4138793000020087,14.66206380003132,None,,,,,,,,,,,,,,,,,,,,,,,001,2022_Feb_02_1603,TMTAB,2021.2.3,133.0794182247798,
1,['2'],TMTstop-Control_1_practice.png,TMTstop-Control_1_practice.png,TMTstop-Control_1_practice.png,10,0,0,0,0,0,0,0,0,,,,,,,,,,,,,,,,,15.101142300060019,None,18.12899770005606,None,2,1.7973951001185924,18.12899770005606,None,,,,,,,,,,,,,,,001,2022_Feb_02_1603,TMTAB,2021.2.3,133.0794182247798,
2,['3'],TMTstop-Control_1_practice.png,TMTstop-Control_1_practicefirstgreen.png,TMTstop-Control_1_practicefirstred.png,10,0,0,0,0,0,1,1,1,,,,,,,,,,,,,,,,,,,20.004885600181296,None,3,0.29509379994124174,20.004885600181296,None,,,,,,,,,,,,,,,001,2022_Feb_02_1603,TMTAB,2021.2.3,133.0794182247798,
3,['2'],TMTstop-Control_1_practicelinestimulus0.png,TMTstop-Control_1_practicegreenlinestimulus0.png,TMTstop-Control_1_practiceredlinestimulus0.png,10,0,0,0,0,0,2,2,2,,,,,,,,,,,,,,,,,,,20.371998900081962,None,2,0.5051363999955356,20.371998900081962,None,,,,,,,,,,,,,,,001,2022_Feb_02_1603,TMTAB,2021.2.3,133.0794182247798,
4,['1'],TMTstop-Control_1_practicelinestimulus1.png,TMTstop-Control_1_practicegreenlinestimulus1.png,TMTstop-Control_1_practiceredlinestimulus1.png,10,0,0,0,0,0,3,3,3,,,,,,,,,,,,,,,,,,,20.94819250004366,None,1,0.6869210998993367,20.94819250004366,None,,,,,,,,,,,,,,,001,2022_Feb_02_1603,TMTAB,2021.2.3,133.0794182247798,
5,['2'],TMTstop-Control_1_practicelinestimulus2.png,TMTstop-Control_1_practicegreenlinestimulus2.png,TMTstop-Control_1_practiceredlinestimulus2.png,10,0,0,0,0,0,4,4,4,,,,,,,,,,,,,,,,,,,21.705777100054547,None,2,0.4241591999307275,21.705777100054547,None,,,,,,,,,,,,,,,001,2022_Feb_02_1603,TMTAB,2021.2.3,133.0794182247798,
6,['1'],TMTstop-Control_1_practicelinestimulus3.png,TMTstop-Control_1_practicegreenlinestimulus3.png,TMTstop-Control_1_practiceredlinestimulus3.png,10,0,0,0,0,0,5,5,5,,,,,,,,,,,,,,,,,,,22.227446900215,None,1,0.8261990998871624,22.227446900215,None,,,,,,,,,,,,,,,001,2022_Feb_02_1603,TMTAB,2021.2.3,133.0794182247798,
7,['2'],TMTstop-Control_1_practicelinestimulus4.png,TMTstop-Control_1_practicegreenlinestimulus4.png,TMTstop-Control_1_practiceredlinestimulus4.png,10,0,0,0,0,0,6,6,6,,,,,,,,,,,,,,,,,,,23.121741800103337,None,2,0.5046001998707652,23.121741800103337,None,,,,,,,,,,,,,,,001,2022_Feb_02_1603,TMTAB,2021.2.3,133.0794182247798,
8,['1'],TMTstop-Control_1_practicelinestimulus5.png,TMTstop-Control_1_practicegreenlinestimulus5.png,TMTstop-Control_1_practiceredlinestimulus5.png,10,0,0,0,0,0,7,7,7,,,,,,,,,,,,,,,,,,,23.69875070010312,None,1,0.7167374999262393,23.69875070010312,None,,,,,,,,,,,,,,,001,2022_Feb_02_1603,TMTAB,2021.2.3,133.0794182247798,
9,['3'],TMTstop-Control_1_practicelinestimulus6.png,TMTstop-Control_1_practicegreenlinestimulus6.png,TMTstop-Control_1_practiceredlinestimulus6.png,10,0,0,0,0,0,8,8,8,,,,,,,,,,,,,,,,,,,24.489890200085938,None,3,0.5726734998170286,24.489890200085938,None,,,,,,,,,,,,,,,001,2022_Feb_02_1603,TMTAB,2021.2.3,133.0794182247798,
10,['1'],TMTstop-Control_1_practicelinestimulus7.png,TMTstop-Control_1_practicegreenlinestimulus7.png,TMTstop-Control_1_practiceredlinestimulus7.png,10,0,0,0,0,0,9,9,9,,,,,,,,,,,,,,,,,,,25.135613800026476,None,1,0.7017073000315577,25.135613800026476,None,,,,,,,,,,,,,,,001,2022_Feb_02_1603,TMTAB,2021.2.3,133.0794182247798,
11,['3'],TMTstop-Control_1_practicelinestimulus8.png,TMTstop-Control_1_practicegreenlinestimulus8.png,TMTstop-Control_1_practiceredlinestimulus8.png,10,0,0,0,0,0,10,10,10,,,,,,,,,,,,,,,,,,,25.920198500156403,None,3,0.9511448000557721,25.920198500156403,None,,,,,,,,,,,,,,,001,2022_Feb_02_1603,TMTAB,2021.2.3,133.0794182247798,
12,['1'],TMTstop-Control_1_practicelinestimulus9.png,TMTstop-Control_1_practicegreenlinestimulus9.png,TMTstop-Control_1_practiceredlinestimulus9.png,10,0,0,0,0,0,11,11,11,,,,,,,,,,,,,,,,,,,26.96212760009803,None,1,0.5482365998905152,26.96212760009803,None,,,,,,,,,,,,,,,001,2022_Feb_02_1603,TMTAB,2021.2.3,133.0794182247798,
None,None,TMTstop-Control_1_practicelinestimulus10.png,TMTstop-Control_1_practicegreenlinestimulus10.png,TMTstop-Control_1_practiceredlinestimulus10.png,None,0,0,0,0,0,12,12,12,,,,,,,,,,,,,,,,,,,27.581891000038013,None,None,,27.581891000038013,None,,,,,,,,,,,,,,,001,2022_Feb_02_1603,TMTAB,2021.2.3,133.0794182247798,
,,,,,,0,0,0,0,,,,,,,,,,,,,,,,,,,,,,,,,,,,,28.619147200137377,None,2,0.7969050998799503,28.619147200137377,None,,,,,,,,,001,2022_Feb_02_1603,TMTAB,2021.2.3,133.0794182247798,
1,['2'],TMTstop-control_1_1.png,TMTstop-control_1_1.png,TMTstop-control_1_1.png,10,,,,,,,,,0,0,0,0,,,,,,,,,,,,,29.43833230016753,None,,,,,,,,,,,,,32.46874160016887,None,"['3', '2']",1,"[-2.8306416999548674, 1.593523500021547]",32.46874160016887,None,,001,2022_Feb_02_1603,TMTAB,2021.2.3,133.0794182247798,
2,['1'],TMTstop-control_1_1.png,TMTstop-control_1_1firstgreen.png,TMTstop-control_1_1firstred.png,10,,,,,,,,,0,1,1,1,,,,,,,,,,,,,,,,,,,,,,,,,,,34.16989340004511,None,"['3', '1']",1,"[0.09889909997582436, 0.2628665999509394]",34.16989340004511,None,,001,2022_Feb_02_1603,TMTAB,2021.2.3,133.0794182247798,
3,['2'],TMTstop-control_1_1linestimulus0.png,TMTstop-control_1_1greenlinestimulus0.png,TMTstop-control_1_1redlinestimulus0.png,10,,,,,,,,,0,2,2,2,,,,,,,,,,,,,,,,,,,,,,,,,,,34.519511600025,None,['2'],1,[-0.012839499861001968],34.519511600025,None,,001,2022_Feb_02_1603,TMTAB,2021.2.3,133.0794182247798,
4,['3'],TMTstop-control_1_1linestimulus1.png,TMTstop-control_1_1greenlinestimulus1.png,TMTstop-control_1_1redlinestimulus1.png,10,,,,,,,,,0,3,3,3,,,,,,,,,,,,,,,,,,,,,,,,,,,34.60049990005791,None,['3'],1,[0.015587299829348922],34.60049990005791,None,,001,2022_Feb_02_1603,TMTAB,2021.2.3,133.0794182247798,
5,['2'],TMTstop-control_1_1linestimulus2.png,TMTstop-control_1_1greenlinestimulus2.png,TMTstop-control_1_1redlinestimulus2.png,10,,,,,,,,,0,4,4,4,,,,,,,,,,,,,,,,,,,,,,,,,,,34.697896800003946,None,"['1', '2']",1,"[0.07069909991696477, 0.13109089992940426]",34.697896800003946,None,,001,2022_Feb_02_1603,TMTAB,2021.2.3,133.0794182247798,
6,['1'],TMTstop-control_1_1linestimulus3.png,TMTstop-control_1_1greenlinestimulus3.png,TMTstop-control_1_1redlinestimulus3.png,10,,,,,,,,,0,5,5,5,,,,,,,,,,,,,,,,,,,,,,,,,,,34.940839700168,None,"['3', '1']",1,"[-0.013183500152081251, 0.12353609991259873]",34.940839700168,None,,001,2022_Feb_02_1603,TMTAB,2021.2.3,133.0794182247798,
7,['3'],TMTstop-control_1_1linestimulus4.png,TMTstop-control_1_1greenlinestimulus4.png,TMTstop-control_1_1redlinestimulus4.png,10,,,,,,,,,0,6,6,6,,,,,,,,,,,,,,,,,,,,,,,,,,,35.14232820016332,None,"['2', '3']",1,"[-0.009978099958971143, 0.10567910014651716]",35.14232820016332,None,,001,2022_Feb_02_1603,TMTAB,2021.2.3,133.0794182247798,
8,['2'],TMTstop-control_1_1linestimulus4.png,TMTstop-control_1_1greenlinestimulus5.png,TMTstop-control_1_1redlinestimulus5.png,10,,,,,,,,,0,7,7,7,,,,,,,,,,,,,,,,,,,,,,,,,,,35.34448570013046,None,"['1', '2']",1,"[0.04642580007202923, 0.11335829994641244]",35.34448570013046,None,,001,2022_Feb_02_1603,TMTAB,2021.2.3,133.0794182247798,
9,['3'],TMTstop-control_1_1linestimulus6.png,TMTstop-control_1_1greenlinestimulus6.png,TMTstop-control_1_1redlinestimulus6.png,10,,,,,,,,,0,8,8,8,,,,,,,,,,,,,,,,,,,,,,,,,,,35.551899700192735,None,['3'],1,[0.018266099970787764],35.551899700192735,None,,001,2022_Feb_02_1603,TMTAB,2021.2.3,133.0794182247798,
10,['2'],TMTstop-control_1_1linestimulus7.png,TMTstop-control_1_1greenlinestimulus7.png,TMTstop-control_1_1redlinestimulus7.png,10,,,,,,,,,0,9,9,9,,,,,,,,,,,,,,,,,,,,,,,,,,,35.649173400131986,None,"['1', '2']",1,"[0.06765209999866784, 0.12344160000793636]",35.649173400131986,None,,001,2022_Feb_02_1603,TMTAB,2021.2.3,133.0794182247798,
11,['3'],TMTstop-control_1_1linestimulus8.png,TMTstop-control_1_1greenlinestimulus8.png,TMTstop-control_1_1redlinestimulus8.png,10,,,,,,,,,0,10,10,10,,,,,,,,,,,,,,,,,,,,,,,,,,,35.87846210016869,None,['3'],1,[0.020156400045379996],35.87846210016869,None,,001,2022_Feb_02_1603,TMTAB,2021.2.3,133.0794182247798,
12,['1'],TMTstop-control_1_1linestimulus9.png,TMTstop-control_1_1greenlinestimulus9.png,TMTstop-control_1_1redlinestimulus9.png,10,,,,,,,,,0,11,11,11,,,,,,,,,,,,,,,,,,,,,,,,,,,35.97671330021694,None,['1'],1,[0.051677299896255136],35.97671330021694,None,,001,2022_Feb_02_1603,TMTAB,2021.2.3,133.0794182247798,
13,['3'],TMTstop-control_1_1linestimulus10.png,TMTstop-control_1_1greenlinestimulus10.png,TMTstop-control_1_1redlinestimulus10.png,1,,,,,,,,,0,12,12,12,,,,,,,,,,,,,,,,,,,,,,,,,,,36.117965900106356,None,"['2', '3']",1,"[-0.021594499936327338, 0.08243239996954799]",36.117965900106356,None,,001,2022_Feb_02_1603,TMTAB,2021.2.3,133.0794182247798,
14,['1'],TMTstop-control_1_1linestimulus11.png,TMTstop-control_1_1greenlinestimulus11.png,TMTstop-control_1_1redlinestimulus11.png,None,,,,,,,,,0,13,13,13,,,,,,,,,,,,,,,,,,,,,,,,,,,36.281400700099766,None,['1'],1,[0.04857490002177656],36.281400700099766,None,,001,2022_Feb_02_1603,TMTAB,2021.2.3,133.0794182247798,
15,['3'],TMTstop-control_1_1linestimulus12.png,TMTstop-control_1_1greenlinestimulus12.png,TMTstop-control_1_1redlinestimulus12.png,None,,,,,,,,,0,14,14,14,,,,,,,,,,,,,,,,,,,,,,,,,,,36.40640080021694,None,"['2', '3']",1,"[0.06893229996785522, 0.10728709981776774]",36.40640080021694,None,,001,2022_Feb_02_1603,TMTAB,2021.2.3,133.0794182247798,
16,['1'],TMTstop-control_1_1linestimulus13.png,TMTstop-control_1_1greenlinestimulus13.png,TMTstop-control_1_1redlinestimulus13.png,None,,,,,,,,,0,15,15,15,,,,,,,,,,,,,,,,,,,,,,,,,,,36.600477400003,None,['1'],1,[0.17382450005970895],36.600477400003,None,,001,2022_Feb_02_1603,TMTAB,2021.2.3,133.0794182247798,
17,['2'],TMTstop-control_1_1linestimulus14.png,TMTstop-control_1_1greenlinestimulus14.png,TMTstop-control_1_1redlinestimulus14.png,None,,,,,,,,,0,16,16,16,,,,,,,,,,,,,,,,,,,,,,,,,,,36.8507424001582,None,['2'],1,[-0.027115099830552936],36.8507424001582,None,,001,2022_Feb_02_1603,TMTAB,2021.2.3,133.0794182247798,
18,['1'],TMTstop-control_1_1linestimulus15.png,TMTstop-control_1_1greenlinestimulus15.png,TMTstop-control_1_1redlinestimulus15.png,None,,,,,,,,,0,17,17,17,,,,,,,,,,,,,,,,,,,,,,,,,,,36.92684400011785,None,"['3', '1']",1,"[0.033270200015977025, 0.19159450009465218]",36.92684400011785,None,,001,2022_Feb_02_1603,TMTAB,2021.2.3,133.0794182247798,
19,['3'],TMTstop-control_1_1linestimulus16.png,TMTstop-control_1_1greenlinestimulus16.png,TMTstop-control_1_1redlinestimulus16.png,None,,,,,,,,,0,18,18,18,,,,,,,,,,,,,,,,,,,,,,,,,,,37.20509650022723,None,"['2', '3']",1,"[-0.013780399924144149, 0.07194840000011027]",37.20509650022723,None,,001,2022_Feb_02_1603,TMTAB,2021.2.3,133.0794182247798,
20,['1'],TMTstop-control_1_1linestimulus17.png,TMTstop-control_1_1greenlinestimulus17.png,TMTstop-control_1_1redlinestimulus17.png,None,,,,,,,,,0,19,19,19,,,,,,,,,,,,,,,,,,,,,,,,,,,37.36451780004427,None,['1'],1,[0.06090439995750785],37.36451780004427,None,,001,2022_Feb_02_1603,TMTAB,2021.2.3,133.0794182247798,
21,['3'],TMTstop-control_1_1linestimulus18.png,TMTstop-control_1_1greenlinestimulus18.png,TMTstop-control_1_1redlinestimulus18.png,None,,,,,,,,,0,20,20,20,,,,,,,,,,,,,,,,,,,,,,,,,,,37.50349270016886,None,"['2', '3']",1,"[0.009283100022003055, 0.08700930001214147]",37.50349270016886,None,,001,2022_Feb_02_1603,TMTAB,2021.2.3,133.0794182247798,
22,['1'],TMTstop-control_1_1linestimulus19.png,TMTstop-control_1_1greenlinestimulus19.png,TMTstop-control_1_1redlinestimulus19.png,None,,,,,,,,,0,21,21,21,,,,,,,,,,,,,,,,,,,,,,,,,,,37.67085010022856,None,['1'],1,[0.05292379995808005],37.67085010022856,None,,001,2022_Feb_02_1603,TMTAB,2021.2.3,133.0794182247798,
23,['3'],TMTstop-control_1_1linestimulus20.png,TMTstop-control_1_1greenlinestimulus20.png,TMTstop-control_1_1redlinestimulus20.png,None,,,,,,,,,0,22,22,22,,,,,,,,,,,,,,,,,,,,,,,,,,,37.79595550009981,None,"['2', '3']",1,"[0.022830599918961525, 0.11058750003576279]",37.79595550009981,None,,001,2022_Feb_02_1603,TMTAB,2021.2.3,133.0794182247798,
24,['1'],TMTstop-control_1_1linestimulus21.png,TMTstop-control_1_1greenlinestimulus21.png,TMTstop-control_1_1redlinestimulus21.png,None,,,,,,,,,0,23,23,23,,,,,,,,,,,,,,,,,,,,,,,,,,,37.9898515001405,None,['1'],1,[0.05354789993725717],37.9898515001405,None,,001,2022_Feb_02_1603,TMTAB,2021.2.3,133.0794182247798,
25,['3'],TMTstop-control_1_1linestimulus22.png,TMTstop-control_1_1greenlinestimulus22.png,TMTstop-control_1_1redlinestimulus22.png,None,,,,,,,,,0,24,24,24,,,,,,,,,,,,,,,,,,,,,,,,,,,38.1215111000929,None,"['2', '3']",1,"[-0.019953400129452348, 0.07739849993959069]",38.1215111000929,None,,001,2022_Feb_02_1603,TMTAB,2021.2.3,133.0794182247798,
None,None,TMTstop-control_1_1linestimulus23.png,TMTstop-control_1_1greenlinestimulus23.png,TMTstop-control_1_1redlinestimulus23.png,None,,,,,,,,,0,25,25,25,,,,,,,,,,,,,,,,,,,,,,,,,,,38.281805200036615,None,"['1', '2', '3']",0,"[0.05533010000362992, 0.12461739988066256, 0.2832557000219822]",38.281805200036615,None,,001,2022_Feb_02_1603,TMTAB,2021.2.3,133.0794182247798,
A,['3'],TMTstop-control_1_a.png,TMTstop-control_1_a.png,TMTstop-control_1_a.png,10,,,,,,,,,,,,,0,0,0,0,,,,,,,,,39.30663870018907,None,,,,,,,,,,,,,42.33610520022921,None,"['1', '2', '3']",1,"[4.257580800214782, 4.416012200061232, 4.509524200111628]",42.33610520022921,None,,001,2022_Feb_02_1603,TMTAB,2021.2.3,133.0794182247798,
B,['1'],TMTstop-control_1_a.png,TMTstop-control_1_afirstgreen.png,TMTstop-control_1_afirstred.png,10,,,,,,,,,,,,,0,1,1,1,,,,,,,,,,,,,,,,,,,,,,,46.933534800074995,None,['1'],1,[0.06041549984365702],46.933534800074995,None,,001,2022_Feb_02_1603,TMTAB,2021.2.3,133.0794182247798,
C,['3'],TMTstop-control_1_alinestimulus0.png,TMTstop-control_1_agreenlinestimulus0.png,TMTstop-control_1_aredlinestimulus0.png,10,,,,,,,,,,,,,0,2,2,2,,,,,,,,,,,,,,,,,,,,,,,47.065925100119784,None,"['2', '3']",1,"[0.024876700015738606, 0.09634290006943047]",47.065925100119784,None,,001,2022_Feb_02_1603,TMTAB,2021.2.3,133.0794182247798,
D,['2'],TMTstop-control_1_alinestimulus1.png,TMTstop-control_1_agreenlinestimulus1.png,TMTstop-control_1_aredlinestimulus1.png,10,,,,,,,,,,,,,0,3,3,3,,,,,,,,,,,,,,,,,,,,,,,47.254932900192216,None,"['1', '2']",1,"[0.05114610004238784, 0.12313259998336434]",47.254932900192216,None,,001,2022_Feb_02_1603,TMTAB,2021.2.3,133.0794182247798,
E,['1'],TMTstop-control_1_alinestimulus2.png,TMTstop-control_1_agreenlinestimulus2.png,TMTstop-control_1_aredlinestimulus2.png,10,,,,,,,,,,,,,0,4,4,4,,,,,,,,,,,,,,,,,,,,,,,47.46906270016916,None,"['3', '1']",1,"[-0.0035897998604923487, 0.12985070003196597]",47.46906270016916,None,,001,2022_Feb_02_1603,TMTAB,2021.2.3,133.0794182247798,
F,['3'],TMTstop-control_1_alinestimulus3.png,TMTstop-control_1_agreenlinestimulus3.png,TMTstop-control_1_aredlinestimulus3.png,10,,,,,,,,,,,,,0,5,5,5,,,,,,,,,,,,,,,,,,,,,,,47.7044603000395,None,"['2', '3']",1,"[-0.023130000103265047, 0.048951399978250265]",47.7044603000395,None,,001,2022_Feb_02_1603,TMTAB,2021.2.3,133.0794182247798,
G,['2'],TMTstop-control_1_alinestimulus4.png,TMTstop-control_1_agreenlinestimulus4.png,TMTstop-control_1_aredlinestimulus4.png,10,,,,,,,,,,,,,0,6,6,6,,,,,,,,,,,,,,,,,,,,,,,47.85724790021777,None,"['1', '2']",1,"[0.03940990008413792, 0.10189109994098544]",47.85724790021777,None,,001,2022_Feb_02_1603,TMTAB,2021.2.3,133.0794182247798,
H,['3'],TMTstop-control_1_alinestimulus5.png,TMTstop-control_1_agreenlinestimulus5.png,TMTstop-control_1_aredlinestimulus5.png,10,,,,,,,,,,,,,0,7,7,7,,,,,,,,,,,,,,,,,,,,,,,48.052232100162655,None,['3'],1,[0.013534799916669726],48.052232100162655,None,,001,2022_Feb_02_1603,TMTAB,2021.2.3,133.0794182247798,
I,['1'],TMTstop-control_1_alinestimulus6.png,TMTstop-control_1_agreenlinestimulus6.png,TMTstop-control_1_aredlinestimulus6.png,10,,,,,,,,,,,,,0,8,8,8,,,,,,,,,,,,,,,,,,,,,,,48.13513770001009,None,['1'],1,[0.061672399984672666],48.13513770001009,None,,001,2022_Feb_02_1603,TMTAB,2021.2.3,133.0794182247798,
J,['2'],TMTstop-control_1_alinestimulus7.png,TMTstop-control_1_agreenlinestimulus7.png,TMTstop-control_1_aredlinestimulus7.png,10,,,,,,,,,,,,,0,9,9,9,,,,,,,,,,,,,,,,,,,,,,,48.27402220014483,None,['2'],1,[0.0009171999990940094],48.27402220014483,None,,001,2022_Feb_02_1603,TMTAB,2021.2.3,133.0794182247798,
K,['3'],TMTstop-control_1_alinestimulus8.png,TMTstop-control_1_agreenlinestimulus8.png,TMTstop-control_1_aredlinestimulus8.png,10,,,,,,,,,,,,,0,10,10,10,,,,,,,,,,,,,,,,,,,,,,,48.357568100094795,None,['3'],1,[0.014652499929070473],48.357568100094795,None,,001,2022_Feb_02_1603,TMTAB,2021.2.3,133.0794182247798,
L,['1'],TMTstop-control_1_alinestimulus9.png,TMTstop-control_1_agreenlinestimulus9.png,TMTstop-control_1_aredlinestimulus9.png,10,,,,,,,,,,,,,0,11,11,11,,,,,,,,,,,,,,,,,,,,,,,48.45465200021863,None,['1'],1,[0.04651489993557334],48.45465200021863,None,,001,2022_Feb_02_1603,TMTAB,2021.2.3,133.0794182247798,
M,['3'],TMTstop-control_1_alinestimulus10.png,TMTstop-control_1_agreenlinestimulus10.png,TMTstop-control_1_aredlinestimulus10.png,1,,,,,,,,,,,,,0,12,12,12,,,,,,,,,,,,,,,,,,,,,,,48.57960250019096,None,"['2', '3']",1,"[-0.0026014000177383423, 0.08413189998827875]",48.57960250019096,None,,001,2022_Feb_02_1603,TMTAB,2021.2.3,133.0794182247798,
N,['2'],TMTstop-control_1_alinestimulus11.png,TMTstop-control_1_agreenlinestimulus11.png,TMTstop-control_1_aredlinestimulus11.png,None,,,,,,,,,,,,,0,13,13,13,,,,,,,,,,,,,,,,,,,,,,,48.73225320014171,None,"['1', '2']",1,"[0.06724820006638765, 0.1294698000419885]",48.73225320014171,None,,001,2022_Feb_02_1603,TMTAB,2021.2.3,133.0794182247798,
O,['1'],TMTstop-control_1_alinestimulus12.png,TMTstop-control_1_agreenlinestimulus12.png,TMTstop-control_1_aredlinestimulus12.png,None,,,,,,,,,,,,,0,14,14,14,,,,,,,,,,,,,,,,,,,,,,,48.96143940021284,None,"['3', '1']",1,"[0.011184300063177943, 0.13797049992717803]",48.96143940021284,None,,001,2022_Feb_02_1603,TMTAB,2021.2.3,133.0794182247798,
P,['3'],TMTstop-control_1_alinestimulus13.png,TMTstop-control_1_agreenlinestimulus13.png,TMTstop-control_1_aredlinestimulus13.png,None,,,,,,,,,,,,,0,15,15,15,,,,,,,,,,,,,,,,,,,,,,,49.16978500015102,None,"['2', '3']",1,"[0.0045785000547766685, 0.10214560013264418]",49.16978500015102,None,,001,2022_Feb_02_1603,TMTAB,2021.2.3,133.0794182247798,
Q,['2'],TMTstop-control_1_alinestimulus14.png,TMTstop-control_1_agreenlinestimulus14.png,TMTstop-control_1_aredlinestimulus14.png,None,,,,,,,,,,,,,0,16,16,16,,,,,,,,,,,,,,,,,,,,,,,49.37812820007093,None,"['1', '2']",1,"[0.01832140004262328, 0.08712660009041429]",49.37812820007093,None,,001,2022_Feb_02_1603,TMTAB,2021.2.3,133.0794182247798,
R,['3'],TMTstop-control_1_alinestimulus15.png,TMTstop-control_1_agreenlinestimulus15.png,TMTstop-control_1_aredlinestimulus15.png,None,,,,,,,,,,,,,0,17,17,17,,,,,,,,,,,,,,,,,,,,,,,49.56105600018054,None,['3'],1,[0.01050309999845922],49.56105600018054,None,,001,2022_Feb_02_1603,TMTAB,2021.2.3,133.0794182247798,
S,['2'],TMTstop-control_1_alinestimulus16.png,TMTstop-control_1_agreenlinestimulus16.png,TMTstop-control_1_aredlinestimulus16.png,None,,,,,,,,,,,,,0,18,18,18,,,,,,,,,,,,,,,,,,,,,,,49.64942260016687,None,"['1', '2']",1,"[0.04713930003345013, 0.11968539981171489]",49.64942260016687,None,,001,2022_Feb_02_1603,TMTAB,2021.2.3,133.0794182247798,
T,['1'],TMTstop-control_1_alinestimulus17.png,TMTstop-control_1_agreenlinestimulus17.png,TMTstop-control_1_aredlinestimulus17.png,None,,,,,,,,,,,,,0,19,19,19,,,,,,,,,,,,,,,,,,,,,,,49.857294800225645,None,"['3', '1']",1,"[0.021676599979400635, 0.14875049982219934]",49.857294800225645,None,,001,2022_Feb_02_1603,TMTAB,2021.2.3,133.0794182247798,
U,['3'],TMTstop-control_1_alinestimulus18.png,TMTstop-control_1_agreenlinestimulus18.png,TMTstop-control_1_aredlinestimulus18.png,None,,,,,,,,,,,,,0,20,20,20,,,,,,,,,,,,,,,,,,,,,,,50.121039900230244,None,"['2', '3']",1,"[-0.0393590999301523, 0.07257730001583695]",50.121039900230244,None,,001,2022_Feb_02_1603,TMTAB,2021.2.3,133.0794182247798,
V,['2'],TMTstop-control_1_alinestimulus19.png,TMTstop-control_1_agreenlinestimulus19.png,TMTstop-control_1_aredlinestimulus19.png,None,,,,,,,,,,,,,0,21,21,21,,,,,,,,,,,,,,,,,,,,,,,50.27395340008661,None,"['1', '2']",1,"[0.044804400065913796, 0.10754260001704097]",50.27395340008661,None,,001,2022_Feb_02_1603,TMTAB,2021.2.3,133.0794182247798,
W,['1'],TMTstop-control_1_alinestimulus20.png,TMTstop-control_1_agreenlinestimulus20.png,TMTstop-control_1_aredlinestimulus20.png,None,,,,,,,,,,,,,0,22,22,22,,,,,,,,,,,,,,,,,,,,,,,50.48253200016916,None,"['3', '1']",1,"[0.019084100145846605, 0.15184139995835721]",50.48253200016916,None,,001,2022_Feb_02_1603,TMTAB,2021.2.3,133.0794182247798,
X,['2'],TMTstop-control_1_alinestimulus21.png,TMTstop-control_1_agreenlinestimulus21.png,TMTstop-control_1_aredlinestimulus21.png,None,,,,,,,,,,,,,0,23,23,23,,,,,,,,,,,,,,,,,,,,,,,50.712088000029325,None,['2'],1,[0.015127800172194839],50.712088000029325,None,,001,2022_Feb_02_1603,TMTAB,2021.2.3,133.0794182247798,
Y,['1'],TMTstop-control_1_alinestimulus22.png,TMTstop-control_1_agreenlinestimulus22.png,TMTstop-control_1_aredlinestimulus22.png,None,,,,,,,,,,,,,0,24,24,24,,,,,,,,,,,,,,,,,,,,,,,50.8085840002168,None,"['3', '1']",1,"[0.021433499874547124, 0.18922739988192916]",50.8085840002168,None,,001,2022_Feb_02_1603,TMTAB,2021.2.3,133.0794182247798,
None,None,TMTstop-control_1_alinestimulus23.png,TMTstop-control_1_agreenlinestimulus23.png,TMTstop-control_1_aredlinestimulus23.png,None,,,,,,,,,,,,,0,25,25,25,,,,,,,,,,,,,,,,,,,,,,,51.07973670004867,None,"['2', '3']",0,"[-0.0067854998633265495, 0.10966440010815859]",51.07973670004867,None,,001,2022_Feb_02_1603,TMTAB,2021.2.3,133.0794182247798,
,,,,,,,,,,,,,,,,,,,,,,,,,,,,,,52.1258908000309,None,,,,,,,,,,,,,,,,,,,,,,,,,,
