NumberLetter,corrAns,StimFile,Correct_StimFile,False_StimFile,DurationTrial,trials.thisRepN,trials.thisTrialN,trials.thisN,trials.thisIndex,trials_2.thisRepN,trials_2.thisTrialN,trials_2.thisN,trials_2.thisIndex,Instruct.started,Instruct.stopped,text_2.started,text_2.stopped,Stim.started,Stim.stopped,key_resp_2.keys,key_resp_2.corr,key_resp_2.rt,key_resp_2.started,key_resp_2.stopped,polygon.started,polygon.stopped,text.started,text.stopped,participant,session,date,expName,psychopyVersion,frameRate,
1,['2'],TMTstop-control_1_1.png,TMTstop-control_1_1.png,TMTstop-control_1_1.png,10,0,0,0,0,,,,,6.064688400016166,None,6.064688400016166,None,6.4524795999750495,None,"['1', '3', '1', '2']",1,"[0.21311589994002134, 0.3488727000076324, 0.47683969989884645, 0.5313969999551773]",6.4524795999750495,None,,,,,,001,2021_Nov_03_1825,TMTAB,2021.2.3,143.66102894351258,
2,['1'],TMTstop-control_1_1.png,TMTstop-control_1_1firstgreen.png,TMTstop-control_1_1firstred.png,10,0,1,1,1,,,,,,,,,7.071019900031388,None,"['3', '1', '2', '3', '1']",1,"[0.0050107999704778194, 0.14182090002577752, 0.17399280006065965, 0.27504269999917597, 0.40219819999765605]",7.071019900031388,None,,,,,,001,2021_Nov_03_1825,TMTAB,2021.2.3,143.66102894351258,
3,['2'],TMTstop-control_1_1linestimulus0.png,TMTstop-control_1_1greenlinestimulus0.png,TMTstop-control_1_1redlinestimulus0.png,10,0,2,2,2,,,,,,,,,7.571534499991685,None,['2'],1,[-0.03907439997419715],7.571534499991685,None,,,,,,001,2021_Nov_03_1825,TMTAB,2021.2.3,143.66102894351258,
4,['3'],TMTstop-control_1_1linestimulus1.png,TMTstop-control_1_1greenlinestimulus1.png,TMTstop-control_1_1redlinestimulus1.png,10,0,3,3,3,,,,,,,,,7.65413909999188,None,['3'],1,[-0.0483198999427259],7.65413909999188,None,,,,,,001,2021_Nov_03_1825,TMTAB,2021.2.3,143.66102894351258,
5,['2'],TMTstop-control_1_1linestimulus2.png,TMTstop-control_1_1greenlinestimulus2.png,TMTstop-control_1_1redlinestimulus2.png,10,0,4,4,4,,,,,,,,,7.723756000050344,None,"['1', '2']",1,"[0.05801699997391552, 0.06953810004051775]",7.723756000050344,None,,,,,,001,2021_Nov_03_1825,TMTAB,2021.2.3,143.66102894351258,
6,['1'],TMTstop-control_1_1linestimulus3.png,TMTstop-control_1_1greenlinestimulus3.png,TMTstop-control_1_1redlinestimulus3.png,10,0,5,5,5,,,,,,,,,7.862608100054786,None,"['3', '1']",1,"[0.10150999994948506, 0.21982989995740354]",7.862608100054786,None,,,,,,001,2021_Nov_03_1825,TMTAB,2021.2.3,143.66102894351258,
7,['3'],TMTstop-control_1_1linestimulus4.png,TMTstop-control_1_1greenlinestimulus4.png,TMTstop-control_1_1redlinestimulus4.png,10,0,6,6,6,,,,,,,,,8.168204699992202,None,"['2', '3']",1,"[-0.03201919991988689, 0.046489100088365376]",8.168204699992202,None,,,,,,001,2021_Nov_03_1825,TMTAB,2021.2.3,143.66102894351258,
8,['2'],TMTstop-control_1_1linestimulus4.png,TMTstop-control_1_1greenlinestimulus5.png,TMTstop-control_1_1redlinestimulus5.png,10,0,7,7,7,,,,,,,,,8.321002900018357,None,"['1', '2']",1,"[0.027260800008662045, 0.08652080001775175]",8.321002900018357,None,,,,,,001,2021_Nov_03_1825,TMTAB,2021.2.3,143.66102894351258,
9,['3'],TMTstop-control_1_1linestimulus6.png,TMTstop-control_1_1greenlinestimulus6.png,TMTstop-control_1_1redlinestimulus6.png,10,0,8,8,8,,,,,,,,,8.501192299998365,None,['3'],1,[-0.016906199976801872],8.501192299998365,None,,,,,,001,2021_Nov_03_1825,TMTAB,2021.2.3,143.66102894351258,
10,['2'],TMTstop-control_1_1linestimulus7.png,TMTstop-control_1_1greenlinestimulus7.png,TMTstop-control_1_1redlinestimulus7.png,10,0,9,9,9,,,,,,,,,8.572737700073048,None,"['1', '3', '2']",1,"[0.06194679997861385, 0.27676929999142885, 0.3209348999662325]",8.572737700073048,None,,,,,,001,2021_Nov_03_1825,TMTAB,2021.2.3,143.66102894351258,
11,['3'],TMTstop-control_1_1linestimulus8.png,TMTstop-control_1_1greenlinestimulus8.png,TMTstop-control_1_1redlinestimulus8.png,10,0,10,10,10,,,,,,,,,9.001514600007795,None,"['1', '3']",1,"[-0.05035399994812906, 0.08801800000946969]",9.001514600007795,None,,,,,,001,2021_Nov_03_1825,TMTAB,2021.2.3,143.66102894351258,
12,['1'],TMTstop-control_1_1linestimulus9.png,TMTstop-control_1_1greenlinestimulus9.png,TMTstop-control_1_1redlinestimulus9.png,10,0,11,11,11,,,,,,,,,9.195784499985166,None,['1'],1,[0.005264800041913986],9.195784499985166,None,,,,,,001,2021_Nov_03_1825,TMTAB,2021.2.3,143.66102894351258,
13,['3'],TMTstop-control_1_1linestimulus10.png,TMTstop-control_1_1greenlinestimulus10.png,TMTstop-control_1_1redlinestimulus10.png,1,0,12,12,12,,,,,,,,,9.27960550005082,None,"['2', '3']",1,"[-0.0007375000277534127, 0.08736779994796962]",9.27960550005082,None,,,,,,001,2021_Nov_03_1825,TMTAB,2021.2.3,143.66102894351258,
14,['1'],TMTstop-control_1_1linestimulus11.png,TMTstop-control_1_1greenlinestimulus11.png,TMTstop-control_1_1redlinestimulus11.png,None,0,13,13,13,,,,,,,,,9.473651000065729,None,['1'],1,[0.024245899985544384],9.473651000065729,None,,,,,,001,2021_Nov_03_1825,TMTAB,2021.2.3,143.66102894351258,
15,['3'],TMTstop-control_1_1linestimulus12.png,TMTstop-control_1_1greenlinestimulus12.png,TMTstop-control_1_1redlinestimulus12.png,None,0,14,14,14,,,,,,,,,9.5710923000006,None,"['2', '3']",1,"[-0.002910899929702282, 0.09412590006832033]",9.5710923000006,None,,,,,,001,2021_Nov_03_1825,TMTAB,2021.2.3,143.66102894351258,
16,['1'],TMTstop-control_1_1linestimulus13.png,TMTstop-control_1_1greenlinestimulus13.png,TMTstop-control_1_1redlinestimulus13.png,None,0,15,15,15,,,,,,,,,9.765717300004326,None,['1'],1,[0.02577130007557571],9.765717300004326,None,,,,,,001,2021_Nov_03_1825,TMTAB,2021.2.3,143.66102894351258,
17,['2'],TMTstop-control_1_1linestimulus14.png,TMTstop-control_1_1greenlinestimulus14.png,TMTstop-control_1_1redlinestimulus14.png,None,0,16,16,16,,,,,,,,,9.862739100004546,None,['2'],1,[-0.011798999970778823],9.862739100004546,None,,,,,,001,2021_Nov_03_1825,TMTAB,2021.2.3,143.66102894351258,
18,['1'],TMTstop-control_1_1linestimulus15.png,TMTstop-control_1_1greenlinestimulus15.png,TMTstop-control_1_1redlinestimulus15.png,None,0,17,17,17,,,,,,,,,9.932500199996866,None,"['3', '1']",1,"[0.01140700001269579, 0.1370721000712365]",9.932500199996866,None,,,,,,001,2021_Nov_03_1825,TMTAB,2021.2.3,143.66102894351258,
19,['3'],TMTstop-control_1_1linestimulus16.png,TMTstop-control_1_1greenlinestimulus16.png,TMTstop-control_1_1redlinestimulus16.png,None,0,18,18,18,,,,,,,,,10.14043740008492,None,"['2', '3']",1,"[0.03944580000825226, 0.10081709991209209]",10.14043740008492,None,,,,,,001,2021_Nov_03_1825,TMTAB,2021.2.3,143.66102894351258,
20,['1'],TMTstop-control_1_1linestimulus17.png,TMTstop-control_1_1greenlinestimulus17.png,TMTstop-control_1_1redlinestimulus17.png,None,0,19,19,19,,,,,,,,,10.34358039998915,None,['1'],1,[0.025193999987095594],10.34358039998915,None,,,,,,001,2021_Nov_03_1825,TMTAB,2021.2.3,143.66102894351258,
21,['3'],TMTstop-control_1_1linestimulus18.png,TMTstop-control_1_1greenlinestimulus18.png,TMTstop-control_1_1redlinestimulus18.png,None,0,20,20,20,,,,,,,,,10.439283100073226,None,"['2', '3']",1,"[0.015905799926258624, 0.12002469995059073]",10.439283100073226,None,,,,,,001,2021_Nov_03_1825,TMTAB,2021.2.3,143.66102894351258,
22,['1'],TMTstop-control_1_1linestimulus19.png,TMTstop-control_1_1greenlinestimulus19.png,TMTstop-control_1_1redlinestimulus19.png,None,0,21,21,21,,,,,,,,,10.668522300082259,None,['1'],1,[0.048911399906501174],10.668522300082259,None,,,,,,001,2021_Nov_03_1825,TMTAB,2021.2.3,143.66102894351258,
23,['3'],TMTstop-control_1_1linestimulus20.png,TMTstop-control_1_1greenlinestimulus20.png,TMTstop-control_1_1redlinestimulus20.png,None,0,22,22,22,,,,,,,,,10.80067120003514,None,"['2', '3']",1,"[-0.04799250001087785, 0.05613619997166097]",10.80067120003514,None,,,,,,001,2021_Nov_03_1825,TMTAB,2021.2.3,143.66102894351258,
24,['1'],TMTstop-control_1_1linestimulus21.png,TMTstop-control_1_1greenlinestimulus21.png,TMTstop-control_1_1redlinestimulus21.png,None,0,23,23,23,,,,,,,,,10.96209450007882,None,['1'],1,[0.8566760999383405],10.96209450007882,None,,,,,,001,2021_Nov_03_1825,TMTAB,2021.2.3,143.66102894351258,
25,['3'],TMTstop-control_1_1linestimulus22.png,TMTstop-control_1_1greenlinestimulus22.png,TMTstop-control_1_1redlinestimulus22.png,None,0,24,24,24,,,,,,,,,11.8901130000595,None,['3'],1,[0.6255207000067458],11.8901130000595,None,,,,,,001,2021_Nov_03_1825,TMTAB,2021.2.3,143.66102894351258,
None,None,TMTstop-control_1_1linestimulus23.png,TMTstop-control_1_1greenlinestimulus23.png,TMTstop-control_1_1redlinestimulus23.png,None,0,25,25,25,,,,,,,,,12.585085800033994,None,None,1,,12.585085800033994,None,,,,,,001,2021_Nov_03_1825,TMTAB,2021.2.3,143.66102894351258,
A,['3'],TMTstop-control_1_a.png,TMTstop-control_1_a.png,TMTstop-control_1_a.png,10,,,,,0,0,0,0,,,,,16.653726699994877,None,['3'],1,[2.19024420005735],16.653726699994877,None,13.59596700000111,None,,,,001,2021_Nov_03_1825,TMTAB,2021.2.3,143.66102894351258,
B,['1'],TMTstop-control_1_a.png,TMTstop-control_1_afirstgreen.png,TMTstop-control_1_afirstred.png,10,,,,,0,1,1,1,,,,,18.924556500045583,None,['1'],1,[1.5204238999867812],18.924556500045583,None,,,,,,001,2021_Nov_03_1825,TMTAB,2021.2.3,143.66102894351258,
C,['3'],TMTstop-control_1_alinestimulus0.png,TMTstop-control_1_agreenlinestimulus0.png,TMTstop-control_1_aredlinestimulus0.png,10,,,,,0,2,2,2,,,,,20.52235580002889,None,['3'],1,[0.6659895000047982],20.52235580002889,None,,,,,,001,2021_Nov_03_1825,TMTAB,2021.2.3,143.66102894351258,
D,['2'],TMTstop-control_1_alinestimulus1.png,TMTstop-control_1_agreenlinestimulus1.png,TMTstop-control_1_aredlinestimulus1.png,10,,,,,0,3,3,3,,,,,21.258188100066036,None,"['1', '2']",1,"[0.6662377000320703, 1.04339110001456]",21.258188100066036,None,,,,,,001,2021_Nov_03_1825,TMTAB,2021.2.3,143.66102894351258,
E,['1'],TMTstop-control_1_alinestimulus2.png,TMTstop-control_1_agreenlinestimulus2.png,TMTstop-control_1_aredlinestimulus2.png,10,,,,,0,4,4,4,,,,,22.417402300052345,None,"['2', '1']",1,"[0.19037239998579025, 0.32377090002410114]",22.417402300052345,None,,,,,,001,2021_Nov_03_1825,TMTAB,2021.2.3,143.66102894351258,
F,['3'],TMTstop-control_1_alinestimulus3.png,TMTstop-control_1_agreenlinestimulus3.png,TMTstop-control_1_aredlinestimulus3.png,10,,,,,0,5,5,5,,,,,22.841477300040424,None,"['2', '3']",1,"[0.11720300000160933, 0.1694320000242442]",22.841477300040424,None,,,,,,001,2021_Nov_03_1825,TMTAB,2021.2.3,143.66102894351258,
G,['2'],TMTstop-control_1_alinestimulus4.png,TMTstop-control_1_agreenlinestimulus4.png,TMTstop-control_1_aredlinestimulus4.png,10,,,,,0,6,6,6,,,,,23.12615000002552,None,"['1', '2']",1,"[0.09667940007057041, 0.17244210001081228]",23.12615000002552,None,,,,,,001,2021_Nov_03_1825,TMTAB,2021.2.3,143.66102894351258,
H,['3'],TMTstop-control_1_alinestimulus5.png,TMTstop-control_1_agreenlinestimulus5.png,TMTstop-control_1_aredlinestimulus5.png,10,,,,,0,7,7,7,,,,,23.375936800031923,None,['3'],1,[0.042710999958217144],23.375936800031923,None,,,,,,001,2021_Nov_03_1825,TMTAB,2021.2.3,143.66102894351258,
I,['1'],TMTstop-control_1_alinestimulus6.png,TMTstop-control_1_agreenlinestimulus6.png,TMTstop-control_1_aredlinestimulus6.png,10,,,,,0,8,8,8,,,,,23.501081700087525,None,['1'],1,[0.07746259996201843],23.501081700087525,None,,,,,,001,2021_Nov_03_1825,TMTAB,2021.2.3,143.66102894351258,
J,['2'],TMTstop-control_1_alinestimulus7.png,TMTstop-control_1_agreenlinestimulus7.png,TMTstop-control_1_aredlinestimulus7.png,10,,,,,0,9,9,9,,,,,23.653859900077805,None,['2'],1,[-0.015622599981725216],23.653859900077805,None,,,,,,001,2021_Nov_03_1825,TMTAB,2021.2.3,143.66102894351258,
K,['3'],TMTstop-control_1_alinestimulus8.png,TMTstop-control_1_agreenlinestimulus8.png,TMTstop-control_1_aredlinestimulus8.png,10,,,,,0,10,10,10,,,,,23.737039100029506,None,['3'],1,[0.029187000007368624],23.737039100029506,None,,,,,,001,2021_Nov_03_1825,TMTAB,2021.2.3,143.66102894351258,
L,['1'],TMTstop-control_1_alinestimulus9.png,TMTstop-control_1_agreenlinestimulus9.png,TMTstop-control_1_aredlinestimulus9.png,10,,,,,0,11,11,11,,,,,23.84846450004261,None,['1'],1,[0.04923939995933324],23.84846450004261,None,,,,,,001,2021_Nov_03_1825,TMTAB,2021.2.3,143.66102894351258,
M,['3'],TMTstop-control_1_alinestimulus10.png,TMTstop-control_1_agreenlinestimulus10.png,TMTstop-control_1_aredlinestimulus10.png,1,,,,,0,12,12,12,,,,,23.973712900071405,None,"['2', '3']",1,"[-0.0014872000319883227, 0.10174279997590929]",23.973712900071405,None,,,,,,001,2021_Nov_03_1825,TMTAB,2021.2.3,143.66102894351258,
N,['2'],TMTstop-control_1_alinestimulus11.png,TMTstop-control_1_agreenlinestimulus11.png,TMTstop-control_1_aredlinestimulus11.png,None,,,,,0,13,13,13,,,,,24.1684751000721,None,"['1', '2']",1,"[0.0557738000061363, 0.10462190001271665]",24.1684751000721,None,,,,,,001,2021_Nov_03_1825,TMTAB,2021.2.3,143.66102894351258,
O,['1'],TMTstop-control_1_alinestimulus12.png,TMTstop-control_1_agreenlinestimulus12.png,TMTstop-control_1_aredlinestimulus12.png,None,,,,,0,14,14,14,,,,,24.34840520005673,None,"['3', '1']",1,"[0.057206799974665046, 0.2532210999634117]",24.34840520005673,None,,,,,,001,2021_Nov_03_1825,TMTAB,2021.2.3,143.66102894351258,
P,['3'],TMTstop-control_1_alinestimulus13.png,TMTstop-control_1_agreenlinestimulus13.png,TMTstop-control_1_aredlinestimulus13.png,None,,,,,0,15,15,15,,,,,24.69556919997558,None,"['2', '3']",1,"[-0.05291090009268373, 0.08996149990707636]",24.69556919997558,None,,,,,,001,2021_Nov_03_1825,TMTAB,2021.2.3,143.66102894351258,
Q,['2'],TMTstop-control_1_alinestimulus14.png,TMTstop-control_1_agreenlinestimulus14.png,TMTstop-control_1_aredlinestimulus14.png,None,,,,,0,16,16,16,,,,,24.88991230004467,None,"['1', '2']",1,"[0.03789589996449649, 0.10135460004676133]",24.88991230004467,None,,,,,,001,2021_Nov_03_1825,TMTAB,2021.2.3,143.66102894351258,
R,['3'],TMTstop-control_1_alinestimulus15.png,TMTstop-control_1_agreenlinestimulus15.png,TMTstop-control_1_aredlinestimulus15.png,None,,,,,0,17,17,17,,,,,25.084362299996428,None,['3'],1,[0.048917600070126355],25.084362299996428,None,,,,,,001,2021_Nov_03_1825,TMTAB,2021.2.3,143.66102894351258,
S,['2'],TMTstop-control_1_alinestimulus16.png,TMTstop-control_1_agreenlinestimulus16.png,TMTstop-control_1_aredlinestimulus16.png,None,,,,,0,18,18,18,,,,,25.209327100077644,None,"['1', '2']",1,"[0.07620789995416999, 0.1578292999183759]",25.209327100077644,None,,,,,,001,2021_Nov_03_1825,TMTAB,2021.2.3,143.66102894351258,
T,['1'],TMTstop-control_1_alinestimulus17.png,TMTstop-control_1_agreenlinestimulus17.png,TMTstop-control_1_aredlinestimulus17.png,None,,,,,0,19,19,19,,,,,25.452167300041765,None,"['3', '1']",1,"[0.050653700018301606, 0.3740149999503046]",25.452167300041765,None,,,,,,001,2021_Nov_03_1825,TMTAB,2021.2.3,143.66102894351258,
U,['3'],TMTstop-control_1_alinestimulus18.png,TMTstop-control_1_agreenlinestimulus18.png,TMTstop-control_1_aredlinestimulus18.png,None,,,,,0,20,20,20,,,,,25.903589399997145,None,"['2', '3']",1,"[0.03262030007317662, 0.13519400008954108]",25.903589399997145,None,,,,,,001,2021_Nov_03_1825,TMTAB,2021.2.3,143.66102894351258,
V,['2'],TMTstop-control_1_alinestimulus19.png,TMTstop-control_1_agreenlinestimulus19.png,TMTstop-control_1_aredlinestimulus19.png,None,,,,,0,21,21,21,,,,,26.1468320999993,None,"['1', '2']",1,"[0.1646879999898374, 0.2596622999990359]",26.1468320999993,None,,,,,,001,2021_Nov_03_1825,TMTAB,2021.2.3,143.66102894351258,
W,['1'],TMTstop-control_1_alinestimulus20.png,TMTstop-control_1_agreenlinestimulus20.png,TMTstop-control_1_aredlinestimulus20.png,None,,,,,0,22,22,22,,,,,26.51592460006941,None,"['3', '1']",1,"[-0.0070235999301075935, 0.8889189000474289]",26.51592460006941,None,,,,,,001,2021_Nov_03_1825,TMTAB,2021.2.3,143.66102894351258,
X,['2'],TMTstop-control_1_alinestimulus21.png,TMTstop-control_1_agreenlinestimulus21.png,TMTstop-control_1_aredlinestimulus21.png,None,,,,,0,23,23,23,,,,,27.480077999993227,None,['2'],1,[0.7559644000139087],27.480077999993227,None,,,,,,001,2021_Nov_03_1825,TMTAB,2021.2.3,143.66102894351258,
Y,['1'],TMTstop-control_1_alinestimulus22.png,TMTstop-control_1_agreenlinestimulus22.png,TMTstop-control_1_aredlinestimulus22.png,None,,,,,0,24,24,24,,,,,28.306241600075737,None,['1'],1,[0.8156442999606952],28.306241600075737,None,,,,,,001,2021_Nov_03_1825,TMTAB,2021.2.3,143.66102894351258,
None,None,TMTstop-control_1_alinestimulus23.png,TMTstop-control_1_agreenlinestimulus23.png,TMTstop-control_1_aredlinestimulus23.png,None,,,,,0,25,25,25,,,,,29.195537200081162,None,None,1,,29.195537200081162,None,,,,,,001,2021_Nov_03_1825,TMTAB,2021.2.3,143.66102894351258,
,,,,,,,,,,,,,,,,,,,,,,,,,,,30.199752400047146,None,,,,,,,
