Block_file,Condition_rows,NumberLetter,corrAns,Correct,StimFile,Correct_StimFile,False_StimFile,Block,TrialNumber_session,restartpractice.thisRepN,restartpractice.thisTrialN,restartpractice.thisN,restartpractice.thisIndex,trials_practice.thisRepN,trials_practice.thisTrialN,trials_practice.thisN,trials_practice.thisIndex,Blocks_loop.thisRepN,Blocks_loop.thisTrialN,Blocks_loop.thisN,Blocks_loop.thisIndex,trials.thisRepN,trials.thisTrialN,trials.thisN,trials.thisIndex,Attempts,First_attempt,Stim.started,Stim.stopped,key_resp_2.keys,key_resp_2.corr,key_resp_2.rt,key_resp_2.started,key_resp_2.stopped,participant,session,date,expName,psychopyVersion,frameRate,
TMTstop-A_1_1.xlsx,0:26,1,['2'],2,TMTstop-A_1_1.png,TMTstop-A_1_1.png,TMTstop-A_1_1.png,1,1,,,,,,,,,0,0,0,0,0,0,0,0,1,1,19.1136330999434,None,['2'],1,[0.6995703999418765],19.1136330999434,None,,001,2022_Feb_02_1510,TMTAstop-A,2021.2.3,144.16388549085815,
TMTstop-A_1_1.xlsx,0:26,2,['1'],1,TMTstop-A_1_1.png,TMTstop-A_1_1firstgreen.png,TMTstop-A_1_1firstred.png,1,2,,,,,,,,,0,0,0,0,0,1,1,1,1,1,19.89519129996188,None,['1'],1,[0.11256949999369681],19.89519129996188,None,,001,2022_Feb_02_1510,TMTAstop-A,2021.2.3,144.16388549085815,
TMTstop-A_1_1.xlsx,0:26,3,['2'],2,TMTstop-A_1_1linestimulus0.png,TMTstop-A_1_1greenlinestimulus0.png,TMTstop-A_1_1redlinestimulus0.png,1,3,,,,,,,,,0,0,0,0,0,2,2,2,3,0,20.08659729990177,None,"['3', '1', '2']",1,"[0.05371910007670522, 0.24207550007849932, 0.3034512000158429]",20.08659729990177,None,,001,2022_Feb_02_1510,TMTAstop-A,2021.2.3,144.16388549085815,
TMTstop-A_1_1.xlsx,0:26,4,['3'],3,TMTstop-A_1_1linestimulus1.png,TMTstop-A_1_1greenlinestimulus1.png,TMTstop-A_1_1redlinestimulus1.png,1,4,,,,,,,,,0,0,0,0,0,3,3,3,1,1,20.50982529995963,None,['3'],1,[-0.00287249987013638],20.50982529995963,None,,001,2022_Feb_02_1510,TMTAstop-A,2021.2.3,144.16388549085815,
TMTstop-A_1_1.xlsx,0:26,5,['2'],2,TMTstop-A_1_1linestimulus2.png,TMTstop-A_1_1greenlinestimulus2.png,TMTstop-A_1_1redlinestimulus2.png,1,5,,,,,,,,,0,0,0,0,0,4,4,4,2,0,20.593175600050017,None,"['1', '2']",1,"[0.10119040007703006, 0.15099270013161004]",20.593175600050017,None,,001,2022_Feb_02_1510,TMTAstop-A,2021.2.3,144.16388549085815,
TMTstop-A_1_1.xlsx,0:26,6,['3'],3,TMTstop-A_1_1linestimulus3.png,TMTstop-A_1_1greenlinestimulus3.png,TMTstop-A_1_1redlinestimulus3.png,1,6,,,,,,,,,0,0,0,0,0,5,5,5,1,1,20.822872699936852,None,['3'],1,[0.027851799968630075],20.822872699936852,None,,001,2022_Feb_02_1510,TMTAstop-A,2021.2.3,144.16388549085815,
TMTstop-A_1_1.xlsx,0:26,7,['2'],2,TMTstop-A_1_1linestimulus4.png,TMTstop-A_1_1greenlinestimulus4.png,TMTstop-A_1_1redlinestimulus4.png,1,7,,,,,,,,,0,0,0,0,0,6,6,6,2,0,20.934711399953812,None,"['1', '2']",1,"[0.0891327999997884, 0.13502139993943274]",20.934711399953812,None,,001,2022_Feb_02_1510,TMTAstop-A,2021.2.3,144.16388549085815,
TMTstop-A_1_1.xlsx,0:26,8,['1'],1,TMTstop-A_1_1linestimulus5.png,TMTstop-A_1_1greenlinestimulus5.png,TMTstop-A_1_1redlinestimulus5.png,1,8,,,,,,,,,0,0,0,0,0,7,7,7,2,0,21.183090599952266,None,"['3', '1']",1,"[0.0011859999503940344, 0.19317049998790026]",21.183090599952266,None,,001,2022_Feb_02_1510,TMTAstop-A,2021.2.3,144.16388549085815,
TMTstop-A_1_1.xlsx,0:26,9,['2'],2,TMTstop-A_1_1linestimulus6.png,TMTstop-A_1_1greenlinestimulus6.png,TMTstop-A_1_1redlinestimulus6.png,1,9,,,,,,,,,0,0,0,0,0,8,8,8,1,1,21.474853300023824,None,['2'],1,[-0.046157600125297904],21.474853300023824,None,,001,2022_Feb_02_1510,TMTAstop-A,2021.2.3,144.16388549085815,
TMTstop-A_1_1.xlsx,0:26,10,['1'],1,TMTstop-A_1_1linestimulus7.png,TMTstop-A_1_1greenlinestimulus7.png,TMTstop-A_1_1redlinestimulus7.png,1,10,,,,,,,,,0,0,0,0,0,9,9,9,2,0,21.55113649996929,None,"['3', '1']",1,"[0.004490999970585108, 0.17994169984012842]",21.55113649996929,None,,001,2022_Feb_02_1510,TMTAstop-A,2021.2.3,144.16388549085815,
TMTstop-A_1_1.xlsx,0:26,11,['2'],2,TMTstop-A_1_1linestimulus8.png,TMTstop-A_1_1greenlinestimulus8.png,TMTstop-A_1_1redlinestimulus8.png,1,11,,,,,,,,,0,0,0,0,0,10,10,10,1,1,21.815262699965388,None,['2'],1,[-0.03141230018809438],21.815262699965388,None,,001,2022_Feb_02_1510,TMTAstop-A,2021.2.3,144.16388549085815,
TMTstop-A_1_1.xlsx,0:26,12,['3'],3,TMTstop-A_1_1linestimulus9.png,TMTstop-A_1_1greenlinestimulus9.png,TMTstop-A_1_1redlinestimulus9.png,1,12,,,,,,,,,0,0,0,0,0,11,11,11,1,1,21.891749900067225,None,['3'],1,[0.021950199967250228],21.891749900067225,None,,001,2022_Feb_02_1510,TMTAstop-A,2021.2.3,144.16388549085815,
TMTstop-A_1_1.xlsx,0:26,13,['2'],2,TMTstop-A_1_1linestimulus10.png,TMTstop-A_1_1greenlinestimulus10.png,TMTstop-A_1_1redlinestimulus10.png,1,13,,,,,,,,,0,0,0,0,0,12,12,12,2,0,21.99561830004677,None,"['1', '2']",1,"[0.12295520002953708, 0.1886060000397265]",21.99561830004677,None,,001,2022_Feb_02_1510,TMTAstop-A,2021.2.3,144.16388549085815,
TMTstop-A_1_1.xlsx,0:26,14,['3'],3,TMTstop-A_1_1linestimulus11.png,TMTstop-A_1_1greenlinestimulus11.png,TMTstop-A_1_1redlinestimulus11.png,1,14,,,,,,,,,0,0,0,0,0,13,13,13,1,1,22.280410500010476,None,['3'],1,[0.02968659996986389],22.280410500010476,None,,001,2022_Feb_02_1510,TMTAstop-A,2021.2.3,144.16388549085815,
TMTstop-A_1_1.xlsx,0:26,15,['1'],1,TMTstop-A_1_1linestimulus12.png,TMTstop-A_1_1greenlinestimulus12.png,TMTstop-A_1_1redlinestimulus12.png,1,15,,,,,,,,,0,0,0,0,0,14,14,14,1,1,22.391811199951917,None,['1'],1,[0.08710190001875162],22.391811199951917,None,,001,2022_Feb_02_1510,TMTAstop-A,2021.2.3,144.16388549085815,
TMTstop-A_1_1.xlsx,0:26,16,['3'],3,TMTstop-A_1_1linestimulus13.png,TMTstop-A_1_1greenlinestimulus13.png,TMTstop-A_1_1redlinestimulus13.png,1,16,,,,,,,,,0,0,0,0,0,15,15,15,2,0,22.55831960006617,None,"['2', '3']",1,"[-0.0052235000766813755, 0.11482260003685951]",22.55831960006617,None,,001,2022_Feb_02_1510,TMTAstop-A,2021.2.3,144.16388549085815,
TMTstop-A_1_1.xlsx,0:26,17,['2'],2,TMTstop-A_1_1linestimulus14.png,TMTstop-A_1_1greenlinestimulus14.png,TMTstop-A_1_1redlinestimulus14.png,1,17,,,,,,,,,0,0,0,0,0,16,16,16,2,0,22.767447399906814,None,"['1', '2']",1,"[0.10854769987054169, 0.18013940006494522]",22.767447399906814,None,,001,2022_Feb_02_1510,TMTAstop-A,2021.2.3,144.16388549085815,
TMTstop-A_1_1.xlsx,0:26,18,['3'],3,TMTstop-A_1_1linestimulus15.png,TMTstop-A_1_1greenlinestimulus15.png,TMTstop-A_1_1redlinestimulus15.png,1,18,,,,,,,,,0,0,0,0,0,17,17,17,1,1,23.04418019996956,None,['3'],1,[0.042930399999022484],23.04418019996956,None,,001,2022_Feb_02_1510,TMTAstop-A,2021.2.3,144.16388549085815,
TMTstop-A_1_1.xlsx,0:26,19,['1'],1,TMTstop-A_1_1linestimulus16.png,TMTstop-A_1_1greenlinestimulus16.png,TMTstop-A_1_1redlinestimulus16.png,1,19,,,,,,,,,0,0,0,0,0,18,18,18,1,1,23.16385510005057,None,['1'],1,[0.10716110002249479],23.16385510005057,None,,001,2022_Feb_02_1510,TMTAstop-A,2021.2.3,144.16388549085815,
TMTstop-A_1_1.xlsx,0:26,20,['3'],3,TMTstop-A_1_1linestimulus17.png,TMTstop-A_1_1greenlinestimulus17.png,TMTstop-A_1_1redlinestimulus17.png,1,20,,,,,,,,,0,0,0,0,0,19,19,19,2,0,23.35683869989589,None,"['2', '3']",1,"[-0.02346099982969463, 0.0991793000139296]",23.35683869989589,None,,001,2022_Feb_02_1510,TMTAstop-A,2021.2.3,144.16388549085815,
TMTstop-A_1_1.xlsx,0:26,21,['1'],1,TMTstop-A_1_1linestimulus18.png,TMTstop-A_1_1greenlinestimulus18.png,TMTstop-A_1_1redlinestimulus18.png,1,21,,,,,,,,,0,0,0,0,0,20,20,20,1,1,23.561880700057372,None,['1'],1,[0.0667010999750346],23.561880700057372,None,,001,2022_Feb_02_1510,TMTAstop-A,2021.2.3,144.16388549085815,
TMTstop-A_1_1.xlsx,0:26,22,['3'],3,TMTstop-A_1_1linestimulus19.png,TMTstop-A_1_1greenlinestimulus19.png,TMTstop-A_1_1redlinestimulus19.png,1,22,,,,,,,,,0,0,0,0,0,21,21,21,2,0,23.71829320001416,None,"['2', '3']",1,"[-0.031035700114443898, 0.09152189991436899]",23.71829320001416,None,,001,2022_Feb_02_1510,TMTAstop-A,2021.2.3,144.16388549085815,
TMTstop-A_1_1.xlsx,0:26,23,['1'],1,TMTstop-A_1_1linestimulus20.png,TMTstop-A_1_1greenlinestimulus20.png,TMTstop-A_1_1redlinestimulus20.png,1,23,,,,,,,,,0,0,0,0,0,22,22,22,1,1,23.919843199895695,None,['1'],1,[0.017235000152140856],23.919843199895695,None,,001,2022_Feb_02_1510,TMTAstop-A,2021.2.3,144.16388549085815,
TMTstop-A_1_1.xlsx,0:26,24,['2'],2,TMTstop-A_1_1linestimulus21.png,TMTstop-A_1_1greenlinestimulus21.png,TMTstop-A_1_1redlinestimulus21.png,1,24,,,,,,,,,0,0,0,0,0,23,23,23,1,1,24.024422500049695,None,['2'],1,[-0.03675410011783242],24.024422500049695,None,,001,2022_Feb_02_1510,TMTAstop-A,2021.2.3,144.16388549085815,
TMTstop-A_1_1.xlsx,0:26,25,['3'],3,TMTstop-A_1_1linestimulus22.png,TMTstop-A_1_1greenlinestimulus22.png,TMTstop-A_1_1redlinestimulus22.png,1,25,,,,,,,,,0,0,0,0,0,24,24,24,1,1,24.100850299932063,None,['3'],1,[0.021238199900835752],24.100850299932063,None,,001,2022_Feb_02_1510,TMTAstop-A,2021.2.3,144.16388549085815,
TMTstop-A_1_1.xlsx,0:26,None,None,None,TMTstop-A_1_1linestimulus23.png,TMTstop-A_1_1greenlinestimulus23.png,TMTstop-A_1_1redlinestimulus23.png,1,None,,,,,,,,,0,0,0,0,0,25,25,25,2,0,24.204709900077432,None,"['1', '2']",0,"[0.046601600013673306, 0.1364009000826627]",24.204709900077432,None,,001,2022_Feb_02_1510,TMTAstop-A,2021.2.3,144.16388549085815,
TMTstop-A_1_2.xlsx,26:52,1,['3'],3,TMTstop-A_1_2.png,TMTstop-A_1_2.png,TMTstop-A_1_2.png,2,26,,,,,,,,,0,1,1,1,0,0,0,0,3,0,28.32875210000202,None,"['1', '2', '3']",1,"[0.3562183000613004, 0.4104421001393348, 0.5112181000877172]",28.32875210000202,None,,001,2022_Feb_02_1510,TMTAstop-A,2021.2.3,144.16388549085815,
TMTstop-A_1_2.xlsx,26:52,2,['2'],2,TMTstop-A_1_2.png,TMTstop-A_1_2firstgreen.png,TMTstop-A_1_2firstred.png,2,27,,,,,,,,,0,1,1,1,0,1,1,1,2,0,28.94207950006239,None,"['1', '2']",1,"[0.04851679992862046, 0.10511390003375709]",28.94207950006239,None,,001,2022_Feb_02_1510,TMTAstop-A,2021.2.3,144.16388549085815,
TMTstop-A_1_2.xlsx,26:52,3,['3'],3,TMTstop-A_1_2linestimulus0.png,TMTstop-A_1_2greenlinestimulus0.png,TMTstop-A_1_2redlinestimulus0.png,2,28,,,,,,,,,0,1,1,1,0,2,2,2,0,0,29.139168330025857,None,None,0,,29.139168330025857,None,,001,2022_Feb_02_1510,TMTAstop-A,2021.2.3,144.16388549085815,
