Condition_rows,NumberLetter,corrAns,Correct,StimFile,Correct_StimFile,False_StimFile,Block,restartpractice.thisRepN,restartpractice.thisTrialN,restartpractice.thisN,restartpractice.thisIndex,trials_practice.thisRepN,trials_practice.thisTrialN,trials_practice.thisN,trials_practice.thisIndex,Condition_trials.thisRepN,Condition_trials.thisTrialN,Condition_trials.thisN,Condition_trials.thisIndex,trials.thisRepN,trials.thisTrialN,trials.thisN,trials.thisIndex,Instruct.started,Instruct.stopped,image_2.started,image_2.stopped,key_resp_6.keys,key_resp_6.rt,key_resp_6.started,key_resp_6.stopped,polygon.started,polygon.stopped,Stim_practice.started,Stim_practice.stopped,key_resp_practice.keys,key_resp_practice.rt,key_resp_practice.started,key_resp_practice.stopped,text_5.started,text_5.stopped,key_resp_5.keys,key_resp_5.rt,key_resp_5.started,key_resp_5.stopped,Stim.started,Stim.stopped,key_resp_2.keys,key_resp_2.corr,key_resp_2.rt,key_resp_2.started,key_resp_2.stopped,participant,session,date,expName,psychopyVersion,frameRate,
,,,,,,,,,,,,,,,,,,,,,,,,7.97018829989247,None,9.414529599947855,None,2,0.4949936999473721,9.414529599947855,None,,,,,,,,,,,,,,,,,,,,,,,001,2022_Jan_12_1722,TMTAstop-A,2021.2.3,143.82425807632936,
0:26,1,['2'],2,TMTstop-A_1_1.png,TMTstop-A_1_1.png,TMTstop-A_1_1.png,1,,,,,,,,,0,0,0,0,0,0,0,0,,,,,,,,,33.35040390002541,None,30.34700579987839,None,3,0.10180329997092485,30.34700579987839,None,31.406937999883667,None,2,1.92146660014987,31.406937999883667,None,36.408855400048196,None,"['1', '2']",1,"[0.3614769000560045, 0.4867839999496937]",36.408855400048196,None,,001,2022_Jan_12_1722,TMTAstop-A,2021.2.3,143.82425807632936,
0:26,2,['1'],1,TMTstop-A_1_1.png,TMTstop-A_1_1firstgreen.png,TMTstop-A_1_1firstred.png,1,,,,,,,,,0,0,0,0,0,1,1,1,,,,,,,,,,,,,,,,,,,,,,,36.97791279992089,None,"['3', '1']",1,"[-0.020671000005677342, 0.23808309994637966]",36.97791279992089,None,,001,2022_Jan_12_1722,TMTAstop-A,2021.2.3,143.82425807632936,
0:26,3,['2'],2,TMTstop-A_1_1linestimulus0.png,TMTstop-A_1_1greenlinestimulus0.png,TMTstop-A_1_1redlinestimulus0.png,1,,,,,,,,,0,0,0,0,0,2,2,2,,,,,,,,,,,,,,,,,,,,,,,37.32515319995582,None,['2'],1,[-0.021311100106686354],37.32515319995582,None,,001,2022_Jan_12_1722,TMTAstop-A,2021.2.3,143.82425807632936,
0:26,4,['3'],3,TMTstop-A_1_1linestimulus1.png,TMTstop-A_1_1greenlinestimulus1.png,TMTstop-A_1_1redlinestimulus1.png,1,,,,,,,,,0,0,0,0,0,3,3,3,,,,,,,,,,,,,,,,,,,,,,,37.408147000009194,None,['3'],1,[0.0003825000021606684],37.408147000009194,None,,001,2022_Jan_12_1722,TMTAstop-A,2021.2.3,143.82425807632936,
0:26,5,['2'],2,TMTstop-A_1_1linestimulus2.png,TMTstop-A_1_1greenlinestimulus2.png,TMTstop-A_1_1redlinestimulus2.png,1,,,,,,,,,0,0,0,0,0,4,4,4,,,,,,,,,,,,,,,,,,,,,,,37.478901099879295,None,"['1', '2']",1,"[0.0490902999881655, 0.11643180018290877]",37.478901099879295,None,,001,2022_Jan_12_1722,TMTAstop-A,2021.2.3,143.82425807632936,
0:26,6,['3'],3,TMTstop-A_1_1linestimulus3.png,TMTstop-A_1_1greenlinestimulus3.png,TMTstop-A_1_1redlinestimulus3.png,1,,,,,,,,,0,0,0,0,0,5,5,5,,,,,,,,,,,,,,,,,,,,,,,37.679464400047436,None,['3'],1,[-0.0005900000687688589],37.679464400047436,None,,001,2022_Jan_12_1722,TMTAstop-A,2021.2.3,143.82425807632936,
0:26,7,['2'],2,TMTstop-A_1_1linestimulus4.png,TMTstop-A_1_1greenlinestimulus4.png,TMTstop-A_1_1redlinestimulus4.png,1,,,,,,,,,0,0,0,0,0,6,6,6,,,,,,,,,,,,,,,,,,,,,,,37.74901389982551,None,"['1', '2']",1,"[0.03985229996033013, 0.10272539989091456]",37.74901389982551,None,,001,2022_Jan_12_1722,TMTAstop-A,2021.2.3,143.82425807632936,
0:26,8,['1'],1,TMTstop-A_1_1linestimulus5.png,TMTstop-A_1_1greenlinestimulus5.png,TMTstop-A_1_1redlinestimulus5.png,1,,,,,,,,,0,0,0,0,0,7,7,7,,,,,,,,,,,,,,,,,,,,,,,37.94316819985397,None,"['3', '1']",1,"[-0.008134099887683988, 0.11155090015381575]",37.94316819985397,None,,001,2022_Jan_12_1722,TMTAstop-A,2021.2.3,143.82425807632936,
0:26,9,['2'],2,TMTstop-A_1_1linestimulus6.png,TMTstop-A_1_1greenlinestimulus6.png,TMTstop-A_1_1redlinestimulus6.png,1,,,,,,,,,0,0,0,0,0,8,8,8,,,,,,,,,,,,,,,,,,,,,,,38.13818240002729,None,['2'],1,[-0.0111521000508219],38.13818240002729,None,,001,2022_Jan_12_1722,TMTAstop-A,2021.2.3,143.82425807632936,
0:26,10,['1'],1,TMTstop-A_1_1linestimulus7.png,TMTstop-A_1_1greenlinestimulus7.png,TMTstop-A_1_1redlinestimulus7.png,1,,,,,,,,,0,0,0,0,0,9,9,9,,,,,,,,,,,,,,,,,,,,,,,38.21392959984951,None,"['3', '1']",1,"[-0.023685499792918563, 0.11428300011903048]",38.21392959984951,None,,001,2022_Jan_12_1722,TMTAstop-A,2021.2.3,143.82425807632936,
0:26,11,['2'],2,TMTstop-A_1_1linestimulus8.png,TMTstop-A_1_1greenlinestimulus8.png,TMTstop-A_1_1redlinestimulus8.png,1,,,,,,,,,0,0,0,0,0,10,10,10,,,,,,,,,,,,,,,,,,,,,,,38.40934229991399,None,['2'],1,[-0.026085699908435345],38.40934229991399,None,,001,2022_Jan_12_1722,TMTAstop-A,2021.2.3,143.82425807632936,
0:26,12,['3'],3,TMTstop-A_1_1linestimulus9.png,TMTstop-A_1_1greenlinestimulus9.png,TMTstop-A_1_1redlinestimulus9.png,1,,,,,,,,,0,0,0,0,0,11,11,11,,,,,,,,,,,,,,,,,,,,,,,38.484953599981964,None,['3'],1,[-0.014944100053980947],38.484953599981964,None,,001,2022_Jan_12_1722,TMTAstop-A,2021.2.3,143.82425807632936,
0:26,13,['2'],2,TMTstop-A_1_1linestimulus10.png,TMTstop-A_1_1greenlinestimulus10.png,TMTstop-A_1_1redlinestimulus10.png,1,,,,,,,,,0,0,0,0,0,12,12,12,,,,,,,,,,,,,,,,,,,,,,,38.554559299955145,None,"['1', '2']",1,"[0.04328420013189316, 0.11061340011656284]",38.554559299955145,None,,001,2022_Jan_12_1722,TMTAstop-A,2021.2.3,143.82425807632936,
0:26,14,['3'],3,TMTstop-A_1_1linestimulus11.png,TMTstop-A_1_1greenlinestimulus11.png,TMTstop-A_1_1redlinestimulus11.png,1,,,,,,,,,0,0,0,0,0,13,13,13,,,,,,,,,,,,,,,,,,,,,,,38.76271139993332,None,['3'],1,[-0.018392200116068125],38.76271139993332,None,,001,2022_Jan_12_1722,TMTAstop-A,2021.2.3,143.82425807632936,
0:26,15,['1'],1,TMTstop-A_1_1linestimulus12.png,TMTstop-A_1_1greenlinestimulus12.png,TMTstop-A_1_1redlinestimulus12.png,1,,,,,,,,,0,0,0,0,0,14,14,14,,,,,,,,,,,,,,,,,,,,,,,38.83250109991059,None,['1'],1,[0.04081909987144172],38.83250109991059,None,,001,2022_Jan_12_1722,TMTAstop-A,2021.2.3,143.82425807632936,
0:26,16,['3'],3,TMTstop-A_1_1linestimulus13.png,TMTstop-A_1_1greenlinestimulus13.png,TMTstop-A_1_1redlinestimulus13.png,1,,,,,,,,,0,0,0,0,0,15,15,15,,,,,,,,,,,,,,,,,,,,,,,38.950442399829626,None,"['2', '3']",1,"[-0.013064099941402674, 0.08158269990235567]",38.950442399829626,None,,001,2022_Jan_12_1722,TMTAstop-A,2021.2.3,143.82425807632936,
0:26,17,['2'],2,TMTstop-A_1_1linestimulus14.png,TMTstop-A_1_1greenlinestimulus14.png,TMTstop-A_1_1redlinestimulus14.png,1,,,,,,,,,0,0,0,0,0,16,16,16,,,,,,,,,,,,,,,,,,,,,,,39.103352499892935,None,"['1', '2']",1,"[0.0516975000500679, 0.1290856001432985]",39.103352499892935,None,,001,2022_Jan_12_1722,TMTAstop-A,2021.2.3,143.82425807632936,
0:26,18,['3'],3,TMTstop-A_1_1linestimulus15.png,TMTstop-A_1_1greenlinestimulus15.png,TMTstop-A_1_1redlinestimulus15.png,1,,,,,,,,,0,0,0,0,0,17,17,17,,,,,,,,,,,,,,,,,,,,,,,39.31824049982242,None,['3'],1,[-0.0029813998844474554],39.31824049982242,None,,001,2022_Jan_12_1722,TMTAstop-A,2021.2.3,143.82425807632936,
0:26,19,['1'],1,TMTstop-A_1_1linestimulus16.png,TMTstop-A_1_1greenlinestimulus16.png,TMTstop-A_1_1redlinestimulus16.png,1,,,,,,,,,0,0,0,0,0,18,18,18,,,,,,,,,,,,,,,,,,,,,,,39.38826629985124,None,['1'],1,[0.04774639988318086],39.38826629985124,None,,001,2022_Jan_12_1722,TMTAstop-A,2021.2.3,143.82425807632936,
0:26,20,['3'],3,TMTstop-A_1_1linestimulus17.png,TMTstop-A_1_1greenlinestimulus17.png,TMTstop-A_1_1redlinestimulus17.png,1,,,,,,,,,0,0,0,0,0,19,19,19,,,,,,,,,,,,,,,,,,,,,,,39.51286789984442,None,"['2', '3']",1,"[0.017961400095373392, 0.10432889987714589]",39.51286789984442,None,,001,2022_Jan_12_1722,TMTAstop-A,2021.2.3,143.82425807632936,
0:26,21,['1'],1,TMTstop-A_1_1linestimulus18.png,TMTstop-A_1_1greenlinestimulus18.png,TMTstop-A_1_1redlinestimulus18.png,1,,,,,,,,,0,0,0,0,0,20,20,20,,,,,,,,,,,,,,,,,,,,,,,39.701177599839866,None,['1'],1,[0.03919020015746355],39.701177599839866,None,,001,2022_Jan_12_1722,TMTAstop-A,2021.2.3,143.82425807632936,
0:26,22,['3'],3,TMTstop-A_1_1linestimulus19.png,TMTstop-A_1_1greenlinestimulus19.png,TMTstop-A_1_1redlinestimulus19.png,1,,,,,,,,,0,0,0,0,0,21,21,21,,,,,,,,,,,,,,,,,,,,,,,39.81852009985596,None,"['2', '3']",1,"[-0.010178699856624007, 0.09125620010308921]",39.81852009985596,None,,001,2022_Jan_12_1722,TMTAstop-A,2021.2.3,143.82425807632936,
0:26,23,['1'],1,TMTstop-A_1_1linestimulus20.png,TMTstop-A_1_1greenlinestimulus20.png,TMTstop-A_1_1redlinestimulus20.png,1,,,,,,,,,0,0,0,0,0,22,22,22,,,,,,,,,,,,,,,,,,,,,,,40.01981769991107,None,['1'],1,[0.009277999866753817],40.01981769991107,None,,001,2022_Jan_12_1722,TMTAstop-A,2021.2.3,143.82425807632936,
0:26,24,['2'],2,TMTstop-A_1_1linestimulus21.png,TMTstop-A_1_1greenlinestimulus21.png,TMTstop-A_1_1redlinestimulus21.png,1,,,,,,,,,0,0,0,0,0,23,23,23,,,,,,,,,,,,,,,,,,,,,,,40.11031210003421,None,['2'],1,[-0.007382699986919761],40.11031210003421,None,,001,2022_Jan_12_1722,TMTAstop-A,2021.2.3,143.82425807632936,
0:26,25,['3'],3,TMTstop-A_1_1linestimulus22.png,TMTstop-A_1_1greenlinestimulus22.png,TMTstop-A_1_1redlinestimulus22.png,1,,,,,,,,,0,0,0,0,0,24,24,24,,,,,,,,,,,,,,,,,,,,,,,40.18621399998665,None,['3'],1,[0.006976099917665124],40.18621399998665,None,,001,2022_Jan_12_1722,TMTAstop-A,2021.2.3,143.82425807632936,
0:26,None,None,None,TMTstop-A_1_1linestimulus23.png,TMTstop-A_1_1greenlinestimulus23.png,TMTstop-A_1_1redlinestimulus23.png,1,,,,,,,,,0,0,0,0,0,25,25,25,,,,,,,,,,,,,,,,,,,,,,,40.270183000015095,None,"['1', '2', '3', '1']",0,"[0.03463480016216636, 0.09609110001474619, 0.19859819998964667, 0.3030630999710411]",40.270183000015095,None,,001,2022_Jan_12_1722,TMTAstop-A,2021.2.3,143.82425807632936,
26:52,1,['3'],3,TMTstop-A_1_2.png,TMTstop-A_1_2.png,TMTstop-A_1_2.png,2,,,,,,,,,0,1,1,1,0,0,0,0,,,,,,,,,,,,,,,,,,,,,,,41.436491600004956,None,"['1', '2', '3']",1,"[0.40835119993425906, 0.5158197998534888, 0.6148240000475198]",41.436491600004956,None,,001,2022_Jan_12_1722,TMTAstop-A,2021.2.3,143.82425807632936,
26:52,2,['2'],2,TMTstop-A_1_2.png,TMTstop-A_1_2firstgreen.png,TMTstop-A_1_2firstred.png,2,,,,,,,,,0,1,1,1,0,1,1,1,,,,,,,,,,,,,,,,,,,,,,,42.12380649987608,None,"['1', '2']",1,"[0.06381950015202165, 0.11617329996079206]",42.12380649987608,None,,001,2022_Jan_12_1722,TMTAstop-A,2021.2.3,143.82425807632936,
26:52,3,['3'],3,TMTstop-A_1_2linestimulus0.png,TMTstop-A_1_2greenlinestimulus0.png,TMTstop-A_1_2redlinestimulus0.png,2,,,,,,,,,0,1,1,1,0,2,2,2,,,,,,,,,,,,,,,,,,,,,,,42.311177499825135,None,['3'],1,[0.014017200097441673],42.311177499825135,None,,001,2022_Jan_12_1722,TMTAstop-A,2021.2.3,143.82425807632936,
26:52,4,['1'],1,TMTstop-A_1_2linestimulus1.png,TMTstop-A_1_2greenlinestimulus1.png,TMTstop-A_1_2redlinestimulus1.png,2,,,,,,,,,0,1,1,1,0,3,3,3,,,,,,,,,,,,,,,,,,,,,,,42.40227709989995,None,['1'],1,[0.03224239987321198],42.40227709989995,None,,001,2022_Jan_12_1722,TMTAstop-A,2021.2.3,143.82425807632936,
26:52,5,['2'],2,TMTstop-A_1_2linestimulus2.png,TMTstop-A_1_2greenlinestimulus2.png,TMTstop-A_1_2redlinestimulus2.png,2,,,,,,,,,0,1,1,1,0,4,4,4,,,,,,,,,,,,,,,,,,,,,,,42.512586100026965,None,['2'],1,[0.014152999967336655],42.512586100026965,None,,001,2022_Jan_12_1722,TMTAstop-A,2021.2.3,143.82425807632936,
26:52,6,['3'],3,TMTstop-A_1_2linestimulus3.png,TMTstop-A_1_2greenlinestimulus3.png,TMTstop-A_1_2redlinestimulus3.png,2,,,,,,,,,0,1,1,1,0,5,5,5,,,,,,,,,,,,,,,,,,,,,,,42.60404250002466,None,['3'],1,[-0.003589099971577525],42.60404250002466,None,,001,2022_Jan_12_1722,TMTAstop-A,2021.2.3,143.82425807632936,
26:52,7,['2'],2,TMTstop-A_1_2linestimulus4.png,TMTstop-A_1_2greenlinestimulus4.png,TMTstop-A_1_2redlinestimulus4.png,2,,,,,,,,,0,1,1,1,0,6,6,6,,,,,,,,,,,,,,,,,,,,,,,42.67935590003617,None,"['1', '2']",1,"[0.0263414999935776, 0.09480520011857152]",42.67935590003617,None,,001,2022_Jan_12_1722,TMTAstop-A,2021.2.3,143.82425807632936,
26:52,8,['1'],1,TMTstop-A_1_2linestimulus5.png,TMTstop-A_1_2greenlinestimulus5.png,TMTstop-A_1_2redlinestimulus5.png,2,,,,,,,,,0,1,1,1,0,7,7,7,,,,,,,,,,,,,,,,,,,,,,,42.920175599865615,None,"['3', '1']",1,"[-0.05943459994159639, 0.054688199888914824]",42.920175599865615,None,,001,2022_Jan_12_1722,TMTAstop-A,2021.2.3,143.82425807632936,
26:52,9,['2'],2,TMTstop-A_1_2linestimulus6.png,TMTstop-A_1_2greenlinestimulus6.png,TMTstop-A_1_2redlinestimulus6.png,2,,,,,,,,,0,1,1,1,0,8,8,8,,,,,,,,,,,,,,,,,,,,,,,43.097338899970055,None,['2'],1,[-0.05027769994921982],43.097338899970055,None,,001,2022_Jan_12_1722,TMTAstop-A,2021.2.3,143.82425807632936,
26:52,10,['3'],3,TMTstop-A_1_2linestimulus7.png,TMTstop-A_1_2greenlinestimulus7.png,TMTstop-A_1_2redlinestimulus7.png,2,,,,,,,,,0,1,1,1,0,9,9,9,,,,,,,,,,,,,,,,,,,,,,,43.18146809982136,None,['3'],1,[-0.05582619993947446],43.18146809982136,None,,001,2022_Jan_12_1722,TMTAstop-A,2021.2.3,143.82425807632936,
26:52,11,['1'],1,TMTstop-A_1_2linestimulus8.png,TMTstop-A_1_2greenlinestimulus8.png,TMTstop-A_1_2redlinestimulus8.png,2,,,,,,,,,0,1,1,1,0,10,10,10,,,,,,,,,,,,,,,,,,,,,,,43.262802799930796,None,['1'],1,[-0.021308300085365772],43.262802799930796,None,,001,2022_Jan_12_1722,TMTAstop-A,2021.2.3,143.82425807632936,
26:52,12,['2'],2,TMTstop-A_1_2linestimulus9.png,TMTstop-A_1_2greenlinestimulus9.png,TMTstop-A_1_2redlinestimulus9.png,2,,,,,,,,,0,1,1,1,0,11,11,11,,,,,,,,,,,,,,,,,,,,,,,43.332149300025776,None,['2'],1,[-0.018702599918469787],43.332149300025776,None,,001,2022_Jan_12_1722,TMTAstop-A,2021.2.3,143.82425807632936,
26:52,13,['3'],3,TMTstop-A_1_2linestimulus10.png,TMTstop-A_1_2greenlinestimulus10.png,TMTstop-A_1_2redlinestimulus10.png,2,,,,,,,,,0,1,1,1,0,12,12,12,,,,,,,,,,,,,,,,,,,,,,,43.40154859982431,None,['3'],1,[-0.010721700033172965],43.40154859982431,None,,001,2022_Jan_12_1722,TMTAstop-A,2021.2.3,143.82425807632936,
26:52,14,['1'],1,TMTstop-A_1_2linestimulus11.png,TMTstop-A_1_2greenlinestimulus11.png,TMTstop-A_1_2redlinestimulus11.png,2,,,,,,,,,0,1,1,1,0,13,13,13,,,,,,,,,,,,,,,,,,,,,,,43.47103489981964,None,['1'],1,[0.039722299901768565],43.47103489981964,None,,001,2022_Jan_12_1722,TMTAstop-A,2021.2.3,143.82425807632936,
26:52,15,['3'],3,TMTstop-A_1_2linestimulus12.png,TMTstop-A_1_2greenlinestimulus12.png,TMTstop-A_1_2redlinestimulus12.png,2,,,,,,,,,0,1,1,1,0,14,14,14,,,,,,,,,,,,,,,,,,,,,,,43.58199579990469,None,"['2', '3']",1,"[-0.006824200041592121, 0.08245390001684427]",43.58199579990469,None,,001,2022_Jan_12_1722,TMTAstop-A,2021.2.3,143.82425807632936,
26:52,16,['1'],1,TMTstop-A_1_2linestimulus13.png,TMTstop-A_1_2greenlinestimulus13.png,TMTstop-A_1_2redlinestimulus13.png,2,,,,,,,,,0,1,1,1,0,15,15,15,,,,,,,,,,,,,,,,,,,,,,,43.73546819994226,None,['1'],1,[0.048347000032663345],43.73546819994226,None,,001,2022_Jan_12_1722,TMTAstop-A,2021.2.3,143.82425807632936,
26:52,17,['2'],2,TMTstop-A_1_2linestimulus14.png,TMTstop-A_1_2greenlinestimulus14.png,TMTstop-A_1_2redlinestimulus14.png,2,,,,,,,,,0,1,1,1,0,16,16,16,,,,,,,,,,,,,,,,,,,,,,,43.860146599821746,None,['2'],1,[-0.006342800101265311],43.860146599821746,None,,001,2022_Jan_12_1722,TMTAstop-A,2021.2.3,143.82425807632936,
26:52,18,['1'],1,TMTstop-A_1_2linestimulus15.png,TMTstop-A_1_2greenlinestimulus15.png,TMTstop-A_1_2redlinestimulus15.png,2,,,,,,,,,0,1,1,1,0,17,17,17,,,,,,,,,,,,,,,,,,,,,,,43.929105299990624,None,"['3', '1']",1,"[0.0263071998488158, 0.13324679993093014]",43.929105299990624,None,,001,2022_Jan_12_1722,TMTAstop-A,2021.2.3,143.82425807632936,
26:52,19,['3'],3,TMTstop-A_1_2linestimulus16.png,TMTstop-A_1_2greenlinestimulus16.png,TMTstop-A_1_2redlinestimulus16.png,2,,,,,,,,,0,1,1,1,0,18,18,18,,,,,,,,,,,,,,,,,,,,,,,44.151668899925426,None,"['2', '3']",1,"[-0.024305999977514148, 0.07552900002337992]",44.151668899925426,None,,001,2022_Jan_12_1722,TMTAstop-A,2021.2.3,143.82425807632936,
26:52,20,['1'],1,TMTstop-A_1_2linestimulus17.png,TMTstop-A_1_2greenlinestimulus17.png,TMTstop-A_1_2redlinestimulus17.png,2,,,,,,,,,0,1,1,1,0,19,19,19,,,,,,,,,,,,,,,,,,,,,,,44.30450759991072,None,['1'],1,[0.03893949999473989],44.30450759991072,None,,001,2022_Jan_12_1722,TMTAstop-A,2021.2.3,143.82425807632936,
26:52,21,['2'],2,TMTstop-A_1_2linestimulus18.png,TMTstop-A_1_2greenlinestimulus18.png,TMTstop-A_1_2redlinestimulus18.png,2,,,,,,,,,0,1,1,1,0,20,20,20,,,,,,,,,,,,,,,,,,,,,,,44.41562550002709,None,['2'],1,[-0.009519800078123808],44.41562550002709,None,,001,2022_Jan_12_1722,TMTAstop-A,2021.2.3,143.82425807632936,
26:52,22,['1'],1,TMTstop-A_1_2linestimulus19.png,TMTstop-A_1_2greenlinestimulus19.png,TMTstop-A_1_2redlinestimulus19.png,2,,,,,,,,,0,1,1,1,0,21,21,21,,,,,,,,,,,,,,,,,,,,,,,44.491807400016114,None,"['3', '1']",1,"[0.02071699989028275, 0.12486829981207848]",44.491807400016114,None,,001,2022_Jan_12_1722,TMTAstop-A,2021.2.3,143.82425807632936,
26:52,23,['2'],2,TMTstop-A_1_2linestimulus20.png,TMTstop-A_1_2greenlinestimulus20.png,TMTstop-A_1_2redlinestimulus20.png,2,,,,,,,,,0,1,1,1,0,22,22,22,,,,,,,,,,,,,,,,,,,,,,,44.71423990000039,None,['2'],1,[-0.016377799911424518],44.71423990000039,None,,001,2022_Jan_12_1722,TMTAstop-A,2021.2.3,143.82425807632936,
26:52,24,['1'],1,TMTstop-A_1_2linestimulus21.png,TMTstop-A_1_2greenlinestimulus21.png,TMTstop-A_1_2redlinestimulus21.png,2,,,,,,,,,0,1,1,1,0,23,23,23,,,,,,,,,,,,,,,,,,,,,,,44.78341399994679,None,"['3', '1']",1,"[0.0018748000729829073, 0.09544380009174347]",44.78341399994679,None,,001,2022_Jan_12_1722,TMTAstop-A,2021.2.3,143.82425807632936,
26:52,25,['2'],2,TMTstop-A_1_2linestimulus22.png,TMTstop-A_1_2greenlinestimulus22.png,TMTstop-A_1_2redlinestimulus22.png,2,,,,,,,,,0,1,1,1,0,24,24,24,,,,,,,,,,,,,,,,,,,,,,,44.95031109987758,None,"['1', '2']",1,"[0.05071680014953017, 0.05537359998561442]",44.95031109987758,None,,001,2022_Jan_12_1722,TMTAstop-A,2021.2.3,143.82425807632936,
26:52,None,None,None,TMTstop-A_1_2linestimulus23.png,TMTstop-A_1_2greenlinestimulus23.png,TMTstop-A_1_2redlinestimulus23.png,2,,,,,,,,,0,1,1,1,0,25,25,25,,,,,,,,,,,,,,,,,,,,,,,45.08213529991917,None,"['3', '1', '2', '3', '1', '2']",0,"[0.06639990000985563, 0.23084600013680756, 0.2706438999157399, 0.4075776000972837, 0.5311926999129355, 0.6003104001283646]",45.08213529991917,None,,001,2022_Jan_12_1722,TMTAstop-A,2021.2.3,143.82425807632936,
52:78,1,['2'],2,TMTstop-A_1_3.png,TMTstop-A_1_3.png,TMTstop-A_1_3.png,3,,,,,,,,,0,2,2,2,0,0,0,0,,,,,,,,,,,,,,,,,,,,,,,46.19994019996375,None,"['1', '2']",1,"[0.4855804000981152, 0.5810157998930663]",46.19994019996375,None,,001,2022_Jan_12_1722,TMTAstop-A,2021.2.3,143.82425807632936,
52:78,2,['1'],1,TMTstop-A_1_3.png,TMTstop-A_1_3firstgreen.png,TMTstop-A_1_3firstred.png,3,,,,,,,,,0,2,2,2,0,1,1,1,,,,,,,,,,,,,,,,,,,,,,,46.87351099983789,None,"['3', '1']",1,"[-0.009225699817761779, 0.12337530008517206]",46.87351099983789,None,,001,2022_Jan_12_1722,TMTAstop-A,2021.2.3,143.82425807632936,
52:78,3,['3'],3,TMTstop-A_1_3linestimulus0.png,TMTstop-A_1_3greenlinestimulus0.png,TMTstop-A_1_3redlinestimulus0.png,3,,,,,,,,,0,2,2,2,0,2,2,2,,,,,,,,,,,,,,,,,,,,,,,47.10298029985279,None,"['2', '3']",1,"[-0.034175500040873885, 0.0540847999509424]",47.10298029985279,None,,001,2022_Jan_12_1722,TMTAstop-A,2021.2.3,143.82425807632936,
52:78,4,['2'],2,TMTstop-A_1_3linestimulus1.png,TMTstop-A_1_3greenlinestimulus1.png,TMTstop-A_1_3redlinestimulus1.png,3,,,,,,,,,0,2,2,2,0,3,3,3,,,,,,,,,,,,,,,,,,,,,,,47.255934400018305,None,"['1', '2']",1,"[0.012130199931561947, 0.0744749999139458]",47.255934400018305,None,,001,2022_Jan_12_1722,TMTAstop-A,2021.2.3,143.82425807632936,
52:78,5,['3'],3,TMTstop-A_1_3linestimulus2.png,TMTstop-A_1_3greenlinestimulus2.png,TMTstop-A_1_3redlinestimulus2.png,3,,,,,,,,,0,2,2,2,0,4,4,4,,,,,,,,,,,,,,,,,,,,,,,47.422288300003856,None,['3'],1,[0.00544340000487864],47.422288300003856,None,,001,2022_Jan_12_1722,TMTAstop-A,2021.2.3,143.82425807632936,
52:78,6,['2'],2,TMTstop-A_1_3linestimulus3.png,TMTstop-A_1_3greenlinestimulus3.png,TMTstop-A_1_3redlinestimulus3.png,3,,,,,,,,,0,2,2,2,0,5,5,5,,,,,,,,,,,,,,,,,,,,,,,47.50574880000204,None,"['1', '2']",1,"[0.02754429983906448, 0.08729739999398589]",47.50574880000204,None,,001,2022_Jan_12_1722,TMTAstop-A,2021.2.3,143.82425807632936,
52:78,7,['1'],1,TMTstop-A_1_3linestimulus4.png,TMTstop-A_1_3greenlinestimulus4.png,TMTstop-A_1_3redlinestimulus4.png,3,,,,,,,,,0,2,2,2,0,6,6,6,,,,,,,,,,,,,,,,,,,,,,,47.6863726999145,None,"['3', '1']",1,"[0.006278499960899353, 0.11884859995916486]",47.6863726999145,None,,001,2022_Jan_12_1722,TMTAstop-A,2021.2.3,143.82425807632936,
52:78,8,['2'],2,TMTstop-A_1_3linestimulus5.png,TMTstop-A_1_3greenlinestimulus5.png,TMTstop-A_1_3redlinestimulus5.png,3,,,,,,,,,0,2,2,2,0,7,7,7,,,,,,,,,,,,,,,,,,,,,,,47.8947425999213,None,['2'],1,[-0.020911400206387043],47.8947425999213,None,,001,2022_Jan_12_1722,TMTAstop-A,2021.2.3,143.82425807632936,
52:78,9,['3'],3,TMTstop-A_1_3linestimulus6.png,TMTstop-A_1_3greenlinestimulus6.png,TMTstop-A_1_3redlinestimulus6.png,3,,,,,,,,,0,2,2,2,0,8,8,8,,,,,,,,,,,,,,,,,,,,,,,47.97133159986697,None,['3'],1,[-0.0038215999957174063],47.97133159986697,None,,001,2022_Jan_12_1722,TMTAstop-A,2021.2.3,143.82425807632936,
52:78,10,['2'],2,TMTstop-A_1_3linestimulus7.png,TMTstop-A_1_3greenlinestimulus7.png,TMTstop-A_1_3redlinestimulus7.png,3,,,,,,,,,0,2,2,2,0,9,9,9,,,,,,,,,,,,,,,,,,,,,,,48.04730800003745,None,"['1', '2']",1,"[0.02902340004220605, 0.10056739998981357]",48.04730800003745,None,,001,2022_Jan_12_1722,TMTAstop-A,2021.2.3,143.82425807632936,
52:78,11,['3'],3,TMTstop-A_1_3linestimulus8.png,TMTstop-A_1_3greenlinestimulus8.png,TMTstop-A_1_3redlinestimulus8.png,3,,,,,,,,,0,2,2,2,0,10,10,10,,,,,,,,,,,,,,,,,,,,,,,48.2418345999904,None,['3'],1,[0.0020586999598890543],48.2418345999904,None,,001,2022_Jan_12_1722,TMTAstop-A,2021.2.3,143.82425807632936,
52:78,12,['2'],2,TMTstop-A_1_3linestimulus9.png,TMTstop-A_1_3greenlinestimulus9.png,TMTstop-A_1_3redlinestimulus9.png,3,,,,,,,,,0,2,2,2,0,11,11,11,,,,,,,,,,,,,,,,,,,,,,,48.32509099994786,None,"['1', '2']",1,"[0.03489429992623627, 0.10698179993778467]",48.32509099994786,None,,001,2022_Jan_12_1722,TMTAstop-A,2021.2.3,143.82425807632936,
52:78,13,['1'],1,TMTstop-A_1_3linestimulus10.png,TMTstop-A_1_3greenlinestimulus10.png,TMTstop-A_1_3redlinestimulus10.png,3,,,,,,,,,0,2,2,2,0,12,12,12,,,,,,,,,,,,,,,,,,,,,,,48.51999229984358,None,"['3', '1']",1,"[-0.002998699899762869, 0.10813309997320175]",48.51999229984358,None,,001,2022_Jan_12_1722,TMTAstop-A,2021.2.3,143.82425807632936,
52:78,14,['2'],2,TMTstop-A_1_3linestimulus11.png,TMTstop-A_1_3greenlinestimulus11.png,TMTstop-A_1_3redlinestimulus11.png,3,,,,,,,,,0,2,2,2,0,13,13,13,,,,,,,,,,,,,,,,,,,,,,,48.714649699861184,None,['2'],1,[-0.002775799948722124],48.714649699861184,None,,001,2022_Jan_12_1722,TMTAstop-A,2021.2.3,143.82425807632936,
52:78,15,['1'],1,TMTstop-A_1_3linestimulus12.png,TMTstop-A_1_3greenlinestimulus12.png,TMTstop-A_1_3redlinestimulus12.png,3,,,,,,,,,0,2,2,2,0,14,14,14,,,,,,,,,,,,,,,,,,,,,,,48.78330420004204,None,"['3', '1']",1,"[0.01879239990375936, 0.1376161000225693]",48.78330420004204,None,,001,2022_Jan_12_1722,TMTAstop-A,2021.2.3,143.82425807632936,
52:78,16,['2'],2,TMTstop-A_1_3linestimulus13.png,TMTstop-A_1_3greenlinestimulus13.png,TMTstop-A_1_3redlinestimulus13.png,3,,,,,,,,,0,2,2,2,0,15,15,15,,,,,,,,,,,,,,,,,,,,,,,49.00571039994247,None,['2'],1,[0.00245159980840981],49.00571039994247,None,,001,2022_Jan_12_1722,TMTAstop-A,2021.2.3,143.82425807632936,
52:78,17,['3'],3,TMTstop-A_1_3linestimulus14.png,TMTstop-A_1_3greenlinestimulus14.png,TMTstop-A_1_3redlinestimulus14.png,3,,,,,,,,,0,2,2,2,0,16,16,16,,,,,,,,,,,,,,,,,,,,,,,49.08903819997795,None,['3'],1,[0.0016499999910593033],49.08903819997795,None,,001,2022_Jan_12_1722,TMTAstop-A,2021.2.3,143.82425807632936,
52:78,18,['2'],2,TMTstop-A_1_3linestimulus15.png,TMTstop-A_1_3greenlinestimulus15.png,TMTstop-A_1_3redlinestimulus15.png,3,,,,,,,,,0,2,2,2,0,17,17,17,,,,,,,,,,,,,,,,,,,,,,,49.172551200026646,None,"['1', '2']",1,"[0.047545500099658966, 0.11055120010860264]",49.172551200026646,None,,001,2022_Jan_12_1722,TMTAstop-A,2021.2.3,143.82425807632936,
52:78,19,['1'],1,TMTstop-A_1_3linestimulus16.png,TMTstop-A_1_3greenlinestimulus16.png,TMTstop-A_1_3redlinestimulus16.png,3,,,,,,,,,0,2,2,2,0,18,18,18,,,,,,,,,,,,,,,,,,,,,,,49.373764199903235,None,"['3', '1']",1,"[0.006927300011739135, 0.1287510001566261]",49.373764199903235,None,,001,2022_Jan_12_1722,TMTAstop-A,2021.2.3,143.82425807632936,
52:78,20,['2'],2,TMTstop-A_1_3linestimulus17.png,TMTstop-A_1_3greenlinestimulus17.png,TMTstop-A_1_3redlinestimulus17.png,3,,,,,,,,,0,2,2,2,0,19,19,19,,,,,,,,,,,,,,,,,,,,,,,49.582618499873206,None,['2'],1,[-0.01645039999857545],49.582618499873206,None,,001,2022_Jan_12_1722,TMTAstop-A,2021.2.3,143.82425807632936,
52:78,21,['3'],3,TMTstop-A_1_3linestimulus18.png,TMTstop-A_1_3greenlinestimulus18.png,TMTstop-A_1_3redlinestimulus18.png,3,,,,,,,,,0,2,2,2,0,20,20,20,,,,,,,,,,,,,,,,,,,,,,,49.65853769984096,None,['3'],1,[0.022720100125297904],49.65853769984096,None,,001,2022_Jan_12_1722,TMTAstop-A,2021.2.3,143.82425807632936,
52:78,22,['1'],1,TMTstop-A_1_3linestimulus19.png,TMTstop-A_1_3greenlinestimulus19.png,TMTstop-A_1_3redlinestimulus19.png,3,,,,,,,,,0,2,2,2,0,21,21,21,,,,,,,,,,,,,,,,,,,,,,,49.76305780000985,None,['1'],1,[0.03766059991903603],49.76305780000985,None,,001,2022_Jan_12_1722,TMTAstop-A,2021.2.3,143.82425807632936,
52:78,23,['3'],3,TMTstop-A_1_3linestimulus20.png,TMTstop-A_1_3greenlinestimulus20.png,TMTstop-A_1_3redlinestimulus20.png,3,,,,,,,,,0,2,2,2,0,22,22,22,,,,,,,,,,,,,,,,,,,,,,,49.88782539987005,None,"['2', '3']",1,"[-0.01736409985460341, 0.09531060000881553]",49.88782539987005,None,,001,2022_Jan_12_1722,TMTAstop-A,2021.2.3,143.82425807632936,
52:78,24,['1'],1,TMTstop-A_1_3linestimulus21.png,TMTstop-A_1_3greenlinestimulus21.png,TMTstop-A_1_3redlinestimulus21.png,3,,,,,,,,,0,2,2,2,0,23,23,23,,,,,,,,,,,,,,,,,,,,,,,50.08986680000089,None,['1'],1,[0.004497400019317865],50.08986680000089,None,,001,2022_Jan_12_1722,TMTAstop-A,2021.2.3,143.82425807632936,
52:78,25,['3'],3,TMTstop-A_1_3linestimulus22.png,TMTstop-A_1_3greenlinestimulus22.png,TMTstop-A_1_3redlinestimulus22.png,3,,,,,,,,,0,2,2,2,0,24,24,24,,,,,,,,,,,,,,,,,,,,,,,50.187169099925086,None,"['2', '3']",1,"[-0.031205900013446808, 0.08448610012419522]",50.187169099925086,None,,001,2022_Jan_12_1722,TMTAstop-A,2021.2.3,143.82425807632936,
52:78,None,None,None,TMTstop-A_1_3linestimulus23.png,TMTstop-A_1_3greenlinestimulus23.png,TMTstop-A_1_3redlinestimulus23.png,3,,,,,,,,,0,2,2,2,0,25,25,25,,,,,,,,,,,,,,,,,,,,,,,50.36737299989909,None,"['1', '2', '3']",0,"[0.017969399923458695, 0.07796029979363084, 0.21100329980254173]",50.36737299989909,None,,001,2022_Jan_12_1722,TMTAstop-A,2021.2.3,143.82425807632936,
