Block_file,Condition_rows,NumberLetter,corrAns,Correct,StimFile,Correct_StimFile,False_StimFile,Block,TrialNumber_session,restartpractice.thisRepN,restartpractice.thisTrialN,restartpractice.thisN,restartpractice.thisIndex,trials_practice.thisRepN,trials_practice.thisTrialN,trials_practice.thisN,trials_practice.thisIndex,Blocks_loop.thisRepN,Blocks_loop.thisTrialN,Blocks_loop.thisN,Blocks_loop.thisIndex,trials.thisRepN,trials.thisTrialN,trials.thisN,trials.thisIndex,Attempts,Stim.started,Stim.stopped,key_resp_2.keys,key_resp_2.corr,key_resp_2.rt,key_resp_2.started,key_resp_2.stopped,First_attempt,participant,session,date,expName,psychopyVersion,frameRate,
TMTstop-A_1_1.xlsx,0:26,1,['2'],2,TMTstop-A_1_1.png,TMTstop-A_1_1.png,TMTstop-A_1_1.png,1,1,,,,,,,,,0,0,0,0,0,0,0,0,1,18.638783500064164,None,['2'],1,[-3.058624500175938],18.638783500064164,None,1,,001,2022_Feb_02_1506,TMTAstop-A,2021.2.3,144.25538945597455,
TMTstop-A_1_1.xlsx,0:26,2,['1'],1,TMTstop-A_1_1.png,TMTstop-A_1_1firstgreen.png,TMTstop-A_1_1firstred.png,1,2,,,,,,,,,0,0,0,0,0,1,1,1,1,18.71489670011215,None,['1'],1,[0.45408139983192086],18.71489670011215,None,1,,001,2022_Feb_02_1506,TMTAstop-A,2021.2.3,144.25538945597455,
TMTstop-A_1_1.xlsx,0:26,3,['2'],2,TMTstop-A_1_1linestimulus0.png,TMTstop-A_1_1greenlinestimulus0.png,TMTstop-A_1_1redlinestimulus0.png,1,3,,,,,,,,,0,0,0,0,0,2,2,2,1,19.249207600019872,None,['2'],1,[0.013869799906387925],19.249207600019872,None,1,,001,2022_Feb_02_1506,TMTAstop-A,2021.2.3,144.25538945597455,
TMTstop-A_1_1.xlsx,0:26,4,['3'],3,TMTstop-A_1_1linestimulus1.png,TMTstop-A_1_1greenlinestimulus1.png,TMTstop-A_1_1redlinestimulus1.png,1,4,,,,,,,,,0,0,0,0,0,3,3,3,2,19.339181900024414,None,"['2', '3']",1,"[-0.018661599839106202, 0.07759950007312]",19.339181900024414,None,1,,001,2022_Feb_02_1506,TMTAstop-A,2021.2.3,144.25538945597455,
TMTstop-A_1_1.xlsx,0:26,5,['2'],2,TMTstop-A_1_1linestimulus2.png,TMTstop-A_1_1greenlinestimulus2.png,TMTstop-A_1_1redlinestimulus2.png,1,5,,,,,,,,,0,0,0,0,0,4,4,4,2,19.500095499912277,None,"['1', '2']",1,"[0.054043499985709786, 0.1844711999874562]",19.500095499912277,None,1,,001,2022_Feb_02_1506,TMTAstop-A,2021.2.3,144.25538945597455,
TMTstop-A_1_1.xlsx,0:26,6,['3'],3,TMTstop-A_1_1linestimulus3.png,TMTstop-A_1_1greenlinestimulus3.png,TMTstop-A_1_1redlinestimulus3.png,1,6,,,,,,,,,0,0,0,0,0,5,5,5,1,19.762860599905252,None,['3'],1,[-0.027709599817171693],19.762860599905252,None,1,,001,2022_Feb_02_1506,TMTAstop-A,2021.2.3,144.25538945597455,
TMTstop-A_1_1.xlsx,0:26,7,['2'],2,TMTstop-A_1_1linestimulus4.png,TMTstop-A_1_1greenlinestimulus4.png,TMTstop-A_1_1redlinestimulus4.png,1,7,,,,,,,,,0,0,0,0,0,6,6,6,2,19.839139400050044,None,"['1', '2']",1,"[0.04768859990872443, 0.11497049988247454]",19.839139400050044,None,1,,001,2022_Feb_02_1506,TMTAstop-A,2021.2.3,144.25538945597455,
TMTstop-A_1_1.xlsx,0:26,8,['1'],1,TMTstop-A_1_1linestimulus5.png,TMTstop-A_1_1greenlinestimulus5.png,TMTstop-A_1_1redlinestimulus5.png,1,8,,,,,,,,,0,0,0,0,0,7,7,7,2,20.05504609993659,None,"['3', '1']",1,"[0.0012105000205338001, 0.11955249984748662]",20.05504609993659,None,1,,001,2022_Feb_02_1506,TMTAstop-A,2021.2.3,144.25538945597455,
TMTstop-A_1_1.xlsx,0:26,9,['2'],2,TMTstop-A_1_1linestimulus6.png,TMTstop-A_1_1greenlinestimulus6.png,TMTstop-A_1_1redlinestimulus6.png,1,9,,,,,,,,,0,0,0,0,0,8,8,8,1,20.26969090010971,None,['2'],1,[-0.008185500046238303],20.26969090010971,None,1,,001,2022_Feb_02_1506,TMTAstop-A,2021.2.3,144.25538945597455,
TMTstop-A_1_1.xlsx,0:26,10,['1'],1,TMTstop-A_1_1linestimulus7.png,TMTstop-A_1_1greenlinestimulus7.png,TMTstop-A_1_1redlinestimulus7.png,1,10,,,,,,,,,0,0,0,0,0,9,9,9,2,20.346686200005934,None,"['3', '1']",1,"[0.01191339991055429, 0.12249170010909438]",20.346686200005934,None,1,,001,2022_Feb_02_1506,TMTAstop-A,2021.2.3,144.25538945597455,
TMTstop-A_1_1.xlsx,0:26,11,['2'],2,TMTstop-A_1_1linestimulus8.png,TMTstop-A_1_1greenlinestimulus8.png,TMTstop-A_1_1redlinestimulus8.png,1,11,,,,,,,,,0,0,0,0,0,10,10,10,1,20.56161960004829,None,['2'],1,[0.02461789990775287],20.56161960004829,None,1,,001,2022_Feb_02_1506,TMTAstop-A,2021.2.3,144.25538945597455,
TMTstop-A_1_1.xlsx,0:26,12,['3'],3,TMTstop-A_1_1linestimulus9.png,TMTstop-A_1_1greenlinestimulus9.png,TMTstop-A_1_1redlinestimulus9.png,1,12,,,,,,,,,0,0,0,0,0,11,11,11,1,20.669397900113836,None,['3'],1,[-0.015513499965891242],20.669397900113836,None,1,,001,2022_Feb_02_1506,TMTAstop-A,2021.2.3,144.25538945597455,
TMTstop-A_1_1.xlsx,0:26,13,['2'],2,TMTstop-A_1_1linestimulus10.png,TMTstop-A_1_1greenlinestimulus10.png,TMTstop-A_1_1redlinestimulus10.png,1,13,,,,,,,,,0,0,0,0,0,12,12,12,2,20.74502440006472,None,"['1', '2']",1,"[0.02914370014332235, 0.1798474001698196]",20.74502440006472,None,1,,001,2022_Feb_02_1506,TMTAstop-A,2021.2.3,144.25538945597455,
TMTstop-A_1_1.xlsx,0:26,14,['3'],3,TMTstop-A_1_1linestimulus11.png,TMTstop-A_1_1greenlinestimulus11.png,TMTstop-A_1_1redlinestimulus11.png,1,14,,,,,,,,,0,0,0,0,0,13,13,13,1,21.02055609994568,None,['3'],1,[-0.00904629984870553],21.02055609994568,None,1,,001,2022_Feb_02_1506,TMTAstop-A,2021.2.3,144.25538945597455,
TMTstop-A_1_1.xlsx,0:26,15,['1'],1,TMTstop-A_1_1linestimulus12.png,TMTstop-A_1_1greenlinestimulus12.png,TMTstop-A_1_1redlinestimulus12.png,1,15,,,,,,,,,0,0,0,0,0,14,14,14,1,21.097520499955863,None,['1'],1,[-0.006518400041386485],21.097520499955863,None,1,,001,2022_Feb_02_1506,TMTAstop-A,2021.2.3,144.25538945597455,
TMTstop-A_1_1.xlsx,0:26,16,['3'],3,TMTstop-A_1_1linestimulus13.png,TMTstop-A_1_1greenlinestimulus13.png,TMTstop-A_1_1redlinestimulus13.png,1,16,,,,,,,,,0,0,0,0,0,15,15,15,2,21.173368100076914,None,"['2', '3']",1,"[0.03178349998779595, 0.10827520000748336]",21.173368100076914,None,1,,001,2022_Feb_02_1506,TMTAstop-A,2021.2.3,144.25538945597455,
TMTstop-A_1_1.xlsx,0:26,17,['2'],2,TMTstop-A_1_1linestimulus14.png,TMTstop-A_1_1greenlinestimulus14.png,TMTstop-A_1_1redlinestimulus14.png,1,17,,,,,,,,,0,0,0,0,0,16,16,16,2,21.374613899970427,None,"['1', '2']",1,"[0.021435400005429983, 0.10961089981719851]",21.374613899970427,None,1,,001,2022_Feb_02_1506,TMTAstop-A,2021.2.3,144.25538945597455,
TMTstop-A_1_1.xlsx,0:26,18,['3'],3,TMTstop-A_1_1linestimulus15.png,TMTstop-A_1_1greenlinestimulus15.png,TMTstop-A_1_1redlinestimulus15.png,1,18,,,,,,,,,0,0,0,0,0,17,17,17,1,21.57648509996943,None,['3'],1,[0.02356520015746355],21.57648509996943,None,1,,001,2022_Feb_02_1506,TMTAstop-A,2021.2.3,144.25538945597455,
TMTstop-A_1_1.xlsx,0:26,19,['1'],1,TMTstop-A_1_1linestimulus16.png,TMTstop-A_1_1greenlinestimulus16.png,TMTstop-A_1_1redlinestimulus16.png,1,19,,,,,,,,,0,0,0,0,0,18,18,18,1,21.67948739998974,None,['1'],1,[0.01945520006120205],21.67948739998974,None,1,,001,2022_Feb_02_1506,TMTAstop-A,2021.2.3,144.25538945597455,
TMTstop-A_1_1.xlsx,0:26,20,['3'],3,TMTstop-A_1_1linestimulus17.png,TMTstop-A_1_1greenlinestimulus17.png,TMTstop-A_1_1redlinestimulus17.png,1,20,,,,,,,,,0,0,0,0,0,19,19,19,2,21.78370840009302,None,"['2', '3']",1,"[0.027665099827572703, 0.09636309999041259]",21.78370840009302,None,1,,001,2022_Feb_02_1506,TMTAstop-A,2021.2.3,144.25538945597455,
TMTstop-A_1_1.xlsx,0:26,21,['1'],1,TMTstop-A_1_1linestimulus18.png,TMTstop-A_1_1greenlinestimulus18.png,TMTstop-A_1_1redlinestimulus18.png,1,21,,,,,,,,,0,0,0,0,0,20,20,20,1,21.97830089996569,None,['1'],1,[0.022980599896982312],21.97830089996569,None,1,,001,2022_Feb_02_1506,TMTAstop-A,2021.2.3,144.25538945597455,
TMTstop-A_1_1.xlsx,0:26,22,['3'],3,TMTstop-A_1_1linestimulus19.png,TMTstop-A_1_1greenlinestimulus19.png,TMTstop-A_1_1redlinestimulus19.png,1,22,,,,,,,,,0,0,0,0,0,21,21,21,2,22.089133400004357,None,"['2', '3']",1,"[0.0012046999763697386, 0.08827579999342561]",22.089133400004357,None,1,,001,2022_Feb_02_1506,TMTAstop-A,2021.2.3,144.25538945597455,
TMTstop-A_1_1.xlsx,0:26,23,['1'],1,TMTstop-A_1_1linestimulus20.png,TMTstop-A_1_1greenlinestimulus20.png,TMTstop-A_1_1redlinestimulus20.png,1,23,,,,,,,,,0,0,0,0,0,22,22,22,1,22.29058529995382,None,['1'],1,[0.005274099996313453],22.29058529995382,None,1,,001,2022_Feb_02_1506,TMTAstop-A,2021.2.3,144.25538945597455,
TMTstop-A_1_1.xlsx,0:26,24,['2'],2,TMTstop-A_1_1linestimulus21.png,TMTstop-A_1_1greenlinestimulus21.png,TMTstop-A_1_1redlinestimulus21.png,1,24,,,,,,,,,0,0,0,0,0,23,23,23,1,22.38116839993745,None,['2'],1,[-0.012170499889180064],22.38116839993745,None,1,,001,2022_Feb_02_1506,TMTAstop-A,2021.2.3,144.25538945597455,
TMTstop-A_1_1.xlsx,0:26,25,['3'],3,TMTstop-A_1_1linestimulus22.png,TMTstop-A_1_1greenlinestimulus22.png,TMTstop-A_1_1redlinestimulus22.png,1,25,,,,,,,,,0,0,0,0,0,24,24,24,1,22.457400399958715,None,['3'],1,[0.011716499924659729],22.457400399958715,None,1,,001,2022_Feb_02_1506,TMTAstop-A,2021.2.3,144.25538945597455,
TMTstop-A_1_1.xlsx,0:26,None,None,None,TMTstop-A_1_1linestimulus23.png,TMTstop-A_1_1greenlinestimulus23.png,TMTstop-A_1_1redlinestimulus23.png,1,None,,,,,,,,,0,0,0,0,0,25,25,25,2,22.547795800026506,None,"['1', '2']",0,"[0.08244049991481006, 0.23018689989112318]",22.547795800026506,None,1,,001,2022_Feb_02_1506,TMTAstop-A,2021.2.3,144.25538945597455,
TMTstop-A_1_2.xlsx,26:52,1,['3'],3,TMTstop-A_1_2.png,TMTstop-A_1_2.png,TMTstop-A_1_2.png,2,26,,,,,,,,,0,1,1,1,0,0,0,0,3,26.699949499918148,None,"['1', '2', '3']",1,"[0.2816120001953095, 0.4060561000369489, 0.4725053000729531]",26.699949499918148,None,1,,001,2022_Feb_02_1506,TMTAstop-A,2021.2.3,144.25538945597455,
TMTstop-A_1_2.xlsx,26:52,2,['2'],2,TMTstop-A_1_2.png,TMTstop-A_1_2firstgreen.png,TMTstop-A_1_2firstred.png,2,27,,,,,,,,,0,1,1,1,0,1,1,1,2,27.269605099922046,None,"['1', '2']",1,"[0.056183099979534745, 0.1231243999209255]",27.269605099922046,None,1,,001,2022_Feb_02_1506,TMTAstop-A,2021.2.3,144.25538945597455,
TMTstop-A_1_2.xlsx,26:52,3,['3'],3,TMTstop-A_1_2linestimulus0.png,TMTstop-A_1_2greenlinestimulus0.png,TMTstop-A_1_2redlinestimulus0.png,2,28,,,,,,,,,0,1,1,1,0,2,2,2,1,27.470907100010663,None,['3'],1,[0.007740500150248408],27.470907100010663,None,1,,001,2022_Feb_02_1506,TMTAstop-A,2021.2.3,144.25538945597455,
TMTstop-A_1_2.xlsx,26:52,4,['1'],1,TMTstop-A_1_2linestimulus1.png,TMTstop-A_1_2greenlinestimulus1.png,TMTstop-A_1_2redlinestimulus1.png,2,29,,,,,,,,,0,1,1,1,0,3,3,3,1,27.558245700085536,None,['1'],1,[0.04491659998893738],27.558245700085536,None,1,,001,2022_Feb_02_1506,TMTAstop-A,2021.2.3,144.25538945597455,
TMTstop-A_1_2.xlsx,26:52,5,['2'],2,TMTstop-A_1_2linestimulus2.png,TMTstop-A_1_2greenlinestimulus2.png,TMTstop-A_1_2redlinestimulus2.png,2,30,,,,,,,,,0,1,1,1,0,4,4,4,1,27.679835499962792,None,['2'],1,[0.020957999862730503],27.679835499962792,None,1,,001,2022_Feb_02_1506,TMTAstop-A,2021.2.3,144.25538945597455,
TMTstop-A_1_2.xlsx,26:52,6,['3'],3,TMTstop-A_1_2linestimulus3.png,TMTstop-A_1_2greenlinestimulus3.png,TMTstop-A_1_2redlinestimulus3.png,2,31,,,,,,,,,0,1,1,1,0,5,5,5,1,27.77694520005025,None,['3'],1,[-0.0029928998555988073],27.77694520005025,None,1,,001,2022_Feb_02_1506,TMTAstop-A,2021.2.3,144.25538945597455,
TMTstop-A_1_2.xlsx,26:52,7,['2'],2,TMTstop-A_1_2linestimulus4.png,TMTstop-A_1_2greenlinestimulus4.png,TMTstop-A_1_2redlinestimulus4.png,2,32,,,,,,,,,0,1,1,1,0,6,6,6,2,27.84627930005081,None,"['1', '2']",1,"[0.05075210006907582, 0.13371930015273392]",27.84627930005081,None,1,,001,2022_Feb_02_1506,TMTAstop-A,2021.2.3,144.25538945597455,
TMTstop-A_1_2.xlsx,26:52,8,['1'],1,TMTstop-A_1_2linestimulus5.png,TMTstop-A_1_2greenlinestimulus5.png,TMTstop-A_1_2redlinestimulus5.png,2,33,,,,,,,,,0,1,1,1,0,7,7,7,2,28.06122269993648,None,"['3', '1']",1,"[0.0006762000266462564, 0.10649159993045032]",28.06122269993648,None,1,,001,2022_Feb_02_1506,TMTAstop-A,2021.2.3,144.25538945597455,
TMTstop-A_1_2.xlsx,26:52,9,['2'],2,TMTstop-A_1_2linestimulus6.png,TMTstop-A_1_2greenlinestimulus6.png,TMTstop-A_1_2redlinestimulus6.png,2,34,,,,,,,,,0,1,1,1,0,8,8,8,1,28.255791400093585,None,['2'],1,[0.022433300036937],28.255791400093585,None,1,,001,2022_Feb_02_1506,TMTAstop-A,2021.2.3,144.25538945597455,
TMTstop-A_1_2.xlsx,26:52,10,['3'],3,TMTstop-A_1_2linestimulus7.png,TMTstop-A_1_2greenlinestimulus7.png,TMTstop-A_1_2redlinestimulus7.png,2,35,,,,,,,,,0,1,1,1,0,9,9,9,1,28.35284940013662,None,['3'],1,[0.015169999795034528],28.35284940013662,None,1,,001,2022_Feb_02_1506,TMTAstop-A,2021.2.3,144.25538945597455,
TMTstop-A_1_2.xlsx,26:52,11,['1'],1,TMTstop-A_1_2linestimulus8.png,TMTstop-A_1_2greenlinestimulus8.png,TMTstop-A_1_2redlinestimulus8.png,2,36,,,,,,,,,0,1,1,1,0,10,10,10,1,28.443320600083098,None,['1'],1,[0.06004310003481805],28.443320600083098,None,1,,001,2022_Feb_02_1506,TMTAstop-A,2021.2.3,144.25538945597455,
TMTstop-A_1_2.xlsx,26:52,12,['2'],2,TMTstop-A_1_2linestimulus9.png,TMTstop-A_1_2greenlinestimulus9.png,TMTstop-A_1_2redlinestimulus9.png,2,37,,,,,,,,,0,1,1,1,0,11,11,11,1,28.59035150008276,None,['2'],1,[0.006459099939092994],28.59035150008276,None,1,,001,2022_Feb_02_1506,TMTAstop-A,2021.2.3,144.25538945597455,
,,,,,,,,,,,,,,,,,,,,,,,,,,0,28.6683315301314,None,None,0,,28.6683315301314,None,,,,,,,,
