NumberLetter,corrAns,StimFile,Correct_StimFile,False_StimFile,DurationTrial,Correct,restartpractice.thisRepN,restartpractice.thisTrialN,restartpractice.thisN,restartpractice.thisIndex,trials_practice.thisRepN,trials_practice.thisTrialN,trials_practice.thisN,trials_practice.thisIndex,trials.thisRepN,trials.thisTrialN,trials.thisN,trials.thisIndex,trials_2.thisRepN,trials_2.thisTrialN,trials_2.thisN,trials_2.thisIndex,trials_3.thisRepN,trials_3.thisTrialN,trials_3.thisN,trials_3.thisIndex,trials_4.thisRepN,trials_4.thisTrialN,trials_4.thisN,trials_4.thisIndex,trials_5.thisRepN,trials_5.thisTrialN,trials_5.thisN,trials_5.thisIndex,Instruct.started,Instruct.stopped,image_2.started,image_2.stopped,key_resp_6.keys,key_resp_6.rt,key_resp_6.started,key_resp_6.stopped,polygon.started,polygon.stopped,Stim_practice.started,Stim_practice.stopped,key_resp_practice.keys,key_resp_practice.rt,key_resp_practice.started,key_resp_practice.stopped,text_5.started,text_5.stopped,key_resp_5.keys,key_resp_5.rt,key_resp_5.started,key_resp_5.stopped,Stim.started,Stim.stopped,key_resp_2.keys,key_resp_2.corr,key_resp_2.rt,key_resp_2.started,key_resp_2.stopped,participant,session,date,expName,psychopyVersion,frameRate,
,,,,,,,,,,,,,,,,,,,,,,,,,,,,,,,,,,,14.734896500129253,None,16.56226080004126,None,1,0.7798092998564243,16.56226080004126,None,,,,,,,,,,,,,,,,,,,,,,,001,2022_Jan_12_1148,TMTAstop-A,2021.2.3,143.42490022693565,
1,['1'],TMTstop-A_1_practice.png,TMTstop-A_1_practice.png,TMTstop-A_1_practice.png,10,,0,0,0,0,0,0,0,0,,,,,,,,,,,,,,,,,,,,,,,,,,,,,17.368306500138715,None,20.416559800039977,None,1,6.314754399936646,20.416559800039977,None,,,,,,,,,,,,,,,001,2022_Jan_12_1148,TMTAstop-A,2021.2.3,143.42490022693565,
2,['2'],TMTstop-A_1_practice.png,TMTstop-A_1_practicefirstgreen.png,TMTstop-A_1_practicefirstred.png,10,,0,0,0,0,0,1,1,1,,,,,,,,,,,,,,,,,,,,,,,,,,,,,,,26.840055200038478,None,2,0.7223696999717504,26.840055200038478,None,,,,,,,,,,,,,,,001,2022_Jan_12_1148,TMTAstop-A,2021.2.3,143.42490022693565,
3,['3'],TMTstop-A_1_practicelinestimulus0.png,TMTstop-A_1_practicegreenlinestimulus0.png,TMTstop-A_1_practiceredlinestimulus0.png,10,,0,0,0,0,0,2,2,2,,,,,,,,,,,,,,,,,,,,,,,,,,,,,,,27.65349080017768,None,3,0.31191089982166886,27.65349080017768,None,,,,,,,,,,,,,,,001,2022_Jan_12_1148,TMTAstop-A,2021.2.3,143.42490022693565,
4,['1'],TMTstop-A_1_practicelinestimulus1.png,TMTstop-A_1_practicegreenlinestimulus1.png,TMTstop-A_1_practiceredlinestimulus1.png,10,,0,0,0,0,0,3,3,3,,,,,,,,,,,,,,,,,,,,,,,,,,,,,,,28.064040299970657,None,1,0.07012700010091066,28.064040299970657,None,,,,,,,,,,,,,,,001,2022_Jan_12_1148,TMTAstop-A,2021.2.3,143.42490022693565,
5,['2'],TMTstop-A_1_practicelinestimulus2.png,TMTstop-A_1_practicegreenlinestimulus2.png,TMTstop-A_1_practiceredlinestimulus2.png,10,,0,0,0,0,0,4,4,4,,,,,,,,,,,,,,,,,,,,,,,,,,,,,,,28.250973999965936,None,2,0.021404400002211332,28.250973999965936,None,,,,,,,,,,,,,,,001,2022_Jan_12_1148,TMTAstop-A,2021.2.3,143.42490022693565,
6,['3'],TMTstop-A_1_practicelinestimulus3.png,TMTstop-A_1_practicegreenlinestimulus3.png,TMTstop-A_1_practiceredlinestimulus3.png,10,,0,0,0,0,0,5,5,5,,,,,,,,,,,,,,,,,,,,,,,,,,,,,,,28.376261700177565,None,3,2.005796000128612,28.376261700177565,None,,,,,,,,,,,,,,,001,2022_Jan_12_1148,TMTAstop-A,2021.2.3,143.42490022693565,
7,['1'],TMTstop-A_1_practicelinestimulus4.png,TMTstop-A_1_practicegreenlinestimulus4.png,TMTstop-A_1_practiceredlinestimulus4.png,10,,0,0,0,0,0,6,6,6,,,,,,,,,,,,,,,,,,,,,,,,,,,,,,,30.48047690000385,None,1,1.3238491998054087,30.48047690000385,None,,,,,,,,,,,,,,,001,2022_Jan_12_1148,TMTAstop-A,2021.2.3,143.42490022693565,
8,['3'],TMTstop-A_1_practicelinestimulus5.png,TMTstop-A_1_practicegreenlinestimulus5.png,TMTstop-A_1_practiceredlinestimulus5.png,10,,0,0,0,0,0,7,7,7,,,,,,,,,,,,,,,,,,,,,,,,,,,,,,,31.925407100003213,None,3,1.1515705999918282,31.925407100003213,None,,,,,,,,,,,,,,,001,2022_Jan_12_1148,TMTAstop-A,2021.2.3,143.42490022693565,
9,['2'],TMTstop-A_1_practicelinestimulus6.png,TMTstop-A_1_practicegreenlinestimulus6.png,TMTstop-A_1_practiceredlinestimulus6.png,10,,0,0,0,0,0,8,8,8,,,,,,,,,,,,,,,,,,,,,,,,,,,,,,,33.181462900014594,None,2,0.6025336999446154,33.181462900014594,None,,,,,,,,,,,,,,,001,2022_Jan_12_1148,TMTAstop-A,2021.2.3,143.42490022693565,
10,['3'],TMTstop-A_1_practicelinestimulus7.png,TMTstop-A_1_practicegreenlinestimulus7.png,TMTstop-A_1_practiceredlinestimulus7.png,10,,0,0,0,0,0,9,9,9,,,,,,,,,,,,,,,,,,,,,,,,,,,,,,,33.86943590012379,None,3,0.5862411998677999,33.86943590012379,None,,,,,,,,,,,,,,,001,2022_Jan_12_1148,TMTAstop-A,2021.2.3,143.42490022693565,
11,['1'],TMTstop-A_1_practicelinestimulus8.png,TMTstop-A_1_practicegreenlinestimulus8.png,TMTstop-A_1_practiceredlinestimulus8.png,10,,0,0,0,0,0,10,10,10,,,,,,,,,,,,,,,,,,,,,,,,,,,,,,,34.534561099950224,None,1,1.442768600070849,34.534561099950224,None,,,,,,,,,,,,,,,001,2022_Jan_12_1148,TMTAstop-A,2021.2.3,143.42490022693565,
12,['2'],TMTstop-A_1_practicelinestimulus9.png,TMTstop-A_1_practicegreenlinestimulus9.png,TMTstop-A_1_practiceredlinestimulus9.png,10,,0,0,0,0,0,11,11,11,,,,,,,,,,,,,,,,,,,,,,,,,,,,,,,36.11090390011668,None,2,2.3251919001340866,36.11090390011668,None,,,,,,,,,,,,,,,001,2022_Jan_12_1148,TMTAstop-A,2021.2.3,143.42490022693565,
None,None,TMTstop-A_1_practicelinestimulus10.png,TMTstop-A_1_practicegreenlinestimulus10.png,TMTstop-A_1_practiceredlinestimulus10.png,None,,0,0,0,0,0,12,12,12,,,,,,,,,,,,,,,,,,,,,,,,,,,,,,,38.52072419994511,None,None,,38.52072419994511,None,,,,,,,,,,,,,,,001,2022_Jan_12_1148,TMTAstop-A,2021.2.3,143.42490022693565,
,,,,,,,0,0,0,0,,,,,,,,,,,,,,,,,,,,,,,,,,,,,,,,,,,,,,,,,39.6363180000335,None,2,1.0216263998299837,39.6363180000335,None,,,,,,,,,001,2022_Jan_12_1148,TMTAstop-A,2021.2.3,143.42490022693565,
1,['2'],TMTstop-A_1_1.png,TMTstop-A_1_1.png,TMTstop-A_1_1.png,10,,,,,,,,,,0,0,0,0,,,,,,,,,,,,,,,,,,,,,,,,,40.726624600123614,None,,,,,,,,,,,,,43.72440900001675,None,['2'],1,[1.4752138999756426],43.72440900001675,None,,001,2022_Jan_12_1148,TMTAstop-A,2021.2.3,143.42490022693565,
2,['1'],TMTstop-A_1_1.png,TMTstop-A_1_1firstgreen.png,TMTstop-A_1_1firstred.png,10,,,,,,,,,,0,1,1,1,,,,,,,,,,,,,,,,,,,,,,,,,,,,,,,,,,,,,,,45.29893150017597,None,['1'],1,[0.35506999981589615],45.29893150017597,None,,001,2022_Jan_12_1148,TMTAstop-A,2021.2.3,143.42490022693565,
3,['2'],TMTstop-A_1_1linestimulus0.png,TMTstop-A_1_1greenlinestimulus0.png,TMTstop-A_1_1redlinestimulus0.png,10,,,,,,,,,,0,2,2,2,,,,,,,,,,,,,,,,,,,,,,,,,,,,,,,,,,,,,,,45.735799100017175,None,['2'],1,[0.42312019993551075],45.735799100017175,None,,001,2022_Jan_12_1148,TMTAstop-A,2021.2.3,143.42490022693565,
4,['3'],TMTstop-A_1_1linestimulus1.png,TMTstop-A_1_1greenlinestimulus1.png,TMTstop-A_1_1redlinestimulus1.png,10,,,,,,,,,,0,3,3,3,,,,,,,,,,,,,,,,,,,,,,,,,,,,,,,,,,,,,,,46.24341820017435,None,['3'],1,[1.9166168000083417],46.24341820017435,None,,001,2022_Jan_12_1148,TMTAstop-A,2021.2.3,143.42490022693565,
5,['2'],TMTstop-A_1_1linestimulus2.png,TMTstop-A_1_1greenlinestimulus2.png,TMTstop-A_1_1redlinestimulus2.png,10,,,,,,,,,,0,4,4,4,,,,,,,,,,,,,,,,,,,,,,,,,,,,,,,,,,,,,,,48.24321150011383,None,"['3', '1', '2']",1,"[1.3932773999404162, 2.7490672001149505, 3.9396707001142204]",48.24321150011383,None,,001,2022_Jan_12_1148,TMTAstop-A,2021.2.3,143.42490022693565,
6,['3'],TMTstop-A_1_1linestimulus3.png,TMTstop-A_1_1greenlinestimulus3.png,TMTstop-A_1_1redlinestimulus3.png,10,,,,,,,,,,0,5,5,5,,,,,,,,,,,,,,,,,,,,,,,,,,,,,,,,,,,,,,,52.29923380003311,None,['3'],1,[1.2216864998918027],52.29923380003311,None,,001,2022_Jan_12_1148,TMTAstop-A,2021.2.3,143.42490022693565,
7,['2'],TMTstop-A_1_1linestimulus4.png,TMTstop-A_1_1greenlinestimulus4.png,TMTstop-A_1_1redlinestimulus4.png,10,,,,,,,,,,0,6,6,6,,,,,,,,,,,,,,,,,,,,,,,,,,,,,,,,,,,,,,,53.617535799974576,None,['2'],1,[1.428028300171718],53.617535799974576,None,,001,2022_Jan_12_1148,TMTAstop-A,2021.2.3,143.42490022693565,
8,['1'],TMTstop-A_1_1linestimulus5.png,TMTstop-A_1_1greenlinestimulus5.png,TMTstop-A_1_1redlinestimulus5.png,10,,,,,,,,,,0,7,7,7,,,,,,,,,,,,,,,,,,,,,,,,,,,,,,,,,,,,,,,55.13864350016229,None,['1'],1,[1.1817385000176728],55.13864350016229,None,,001,2022_Jan_12_1148,TMTAstop-A,2021.2.3,143.42490022693565,
9,['2'],TMTstop-A_1_1linestimulus6.png,TMTstop-A_1_1greenlinestimulus6.png,TMTstop-A_1_1redlinestimulus6.png,10,,,,,,,,,,0,8,8,8,,,,,,,,,,,,,,,,,,,,,,,,,,,,,,,,,,,,,,,56.4035003001336,None,['2'],1,[0.4443410001695156],56.4035003001336,None,,001,2022_Jan_12_1148,TMTAstop-A,2021.2.3,143.42490022693565,
10,['1'],TMTstop-A_1_1linestimulus7.png,TMTstop-A_1_1greenlinestimulus7.png,TMTstop-A_1_1redlinestimulus7.png,10,,,,,,,,,,0,9,9,9,,,,,,,,,,,,,,,,,,,,,,,,,,,,,,,,,,,,,,,56.92297359998338,None,"['3', '1']",1,"[0.32745469990186393, 0.6330438998993486]",56.92297359998338,None,,001,2022_Jan_12_1148,TMTAstop-A,2021.2.3,143.42490022693565,
11,['2'],TMTstop-A_1_1linestimulus8.png,TMTstop-A_1_1greenlinestimulus8.png,TMTstop-A_1_1redlinestimulus8.png,10,,,,,,,,,,0,10,10,10,,,,,,,,,,,,,,,,,,,,,,,,,,,,,,,,,,,,,,,57.672859700163826,None,['2'],1,[0.08851990010589361],57.672859700163826,None,,001,2022_Jan_12_1148,TMTAstop-A,2021.2.3,143.42490022693565,
12,['3'],TMTstop-A_1_1linestimulus9.png,TMTstop-A_1_1greenlinestimulus9.png,TMTstop-A_1_1redlinestimulus9.png,10,,,,,,,,,,0,11,11,11,,,,,,,,,,,,,,,,,,,,,,,,,,,,,,,,,,,,,,,57.84724720008671,None,['3'],1,[0.03349020006135106],57.84724720008671,None,,001,2022_Jan_12_1148,TMTAstop-A,2021.2.3,143.42490022693565,
13,['2'],TMTstop-A_1_1linestimulus10.png,TMTstop-A_1_1greenlinestimulus10.png,TMTstop-A_1_1redlinestimulus10.png,1,,,,,,,,,,0,12,12,12,,,,,,,,,,,,,,,,,,,,,,,,,,,,,,,,,,,,,,,57.97178110014647,None,"['1', '2']",1,"[0.3600244999397546, 0.418925300007686]",57.97178110014647,None,,001,2022_Jan_12_1148,TMTAstop-A,2021.2.3,143.42490022693565,
14,['3'],TMTstop-A_1_1linestimulus11.png,TMTstop-A_1_1greenlinestimulus11.png,TMTstop-A_1_1redlinestimulus11.png,None,,,,,,,,,,0,13,13,13,,,,,,,,,,,,,,,,,,,,,,,,,,,,,,,,,,,,,,,58.49253430007957,None,['3'],1,[0.09879259997978806],58.49253430007957,None,,001,2022_Jan_12_1148,TMTAstop-A,2021.2.3,143.42490022693565,
15,['1'],TMTstop-A_1_1linestimulus12.png,TMTstop-A_1_1greenlinestimulus12.png,TMTstop-A_1_1redlinestimulus12.png,None,,,,,,,,,,0,14,14,14,,,,,,,,,,,,,,,,,,,,,,,,,,,,,,,,,,,,,,,58.6808007999789,None,['1'],1,[0.3704536999575794],58.6808007999789,None,,001,2022_Jan_12_1148,TMTAstop-A,2021.2.3,143.42490022693565,
16,['3'],TMTstop-A_1_1linestimulus13.png,TMTstop-A_1_1greenlinestimulus13.png,TMTstop-A_1_1redlinestimulus13.png,None,,,,,,,,,,0,15,15,15,,,,,,,,,,,,,,,,,,,,,,,,,,,,,,,,,,,,,,,59.13153850007802,None,"['2', '3']",1,"[0.2818220001645386, 0.47833830001764]",59.13153850007802,None,,001,2022_Jan_12_1148,TMTAstop-A,2021.2.3,143.42490022693565,
17,['2'],TMTstop-A_1_1linestimulus14.png,TMTstop-A_1_1greenlinestimulus14.png,TMTstop-A_1_1redlinestimulus14.png,None,,,,,,,,,,0,16,16,16,,,,,,,,,,,,,,,,,,,,,,,,,,,,,,,,,,,,,,,59.7020725000184,None,"['1', '2']",1,"[0.14101779996417463, 0.24202920007519424]",59.7020725000184,None,,001,2022_Jan_12_1148,TMTAstop-A,2021.2.3,143.42490022693565,
18,['3'],TMTstop-A_1_1linestimulus15.png,TMTstop-A_1_1greenlinestimulus15.png,TMTstop-A_1_1redlinestimulus15.png,None,,,,,,,,,,0,17,17,17,,,,,,,,,,,,,,,,,,,,,,,,,,,,,,,,,,,,,,,60.04981520003639,None,['3'],1,[-0.005339800147339702],60.04981520003639,None,,001,2022_Jan_12_1148,TMTAstop-A,2021.2.3,143.42490022693565,
19,['1'],TMTstop-A_1_1linestimulus16.png,TMTstop-A_1_1greenlinestimulus16.png,TMTstop-A_1_1redlinestimulus16.png,None,,,,,,,,,,0,18,18,18,,,,,,,,,,,,,,,,,,,,,,,,,,,,,,,,,,,,,,,60.160273800138384,None,['1'],1,[0.06174229993484914],60.160273800138384,None,,001,2022_Jan_12_1148,TMTAstop-A,2021.2.3,143.42490022693565,
20,['3'],TMTstop-A_1_1linestimulus17.png,TMTstop-A_1_1greenlinestimulus17.png,TMTstop-A_1_1redlinestimulus17.png,None,,,,,,,,,,0,19,19,19,,,,,,,,,,,,,,,,,,,,,,,,,,,,,,,,,,,,,,,60.32790539995767,None,"['2', '3']",1,"[-0.012036900036036968, 0.14809140004217625]",60.32790539995767,None,,001,2022_Jan_12_1148,TMTAstop-A,2021.2.3,143.42490022693565,
21,['1'],TMTstop-A_1_1linestimulus18.png,TMTstop-A_1_1greenlinestimulus18.png,TMTstop-A_1_1redlinestimulus18.png,None,,,,,,,,,,0,20,20,20,,,,,,,,,,,,,,,,,,,,,,,,,,,,,,,,,,,,,,,60.5979246001225,None,['1'],1,[0.18840350001119077],60.5979246001225,None,,001,2022_Jan_12_1148,TMTAstop-A,2021.2.3,143.42490022693565,
22,['3'],TMTstop-A_1_1linestimulus19.png,TMTstop-A_1_1greenlinestimulus19.png,TMTstop-A_1_1redlinestimulus19.png,None,,,,,,,,,,0,21,21,21,,,,,,,,,,,,,,,,,,,,,,,,,,,,,,,,,,,,,,,60.88144690007903,None,['3'],1,[0.09296210017055273],60.88144690007903,None,,001,2022_Jan_12_1148,TMTAstop-A,2021.2.3,143.42490022693565,
23,['1'],TMTstop-A_1_1linestimulus20.png,TMTstop-A_1_1greenlinestimulus20.png,TMTstop-A_1_1redlinestimulus20.png,None,,,,,,,,,,0,22,22,22,,,,,,,,,,,,,,,,,,,,,,,,,,,,,,,,,,,,,,,61.06920020002872,None,['1'],1,[0.4210218999069184],61.06920020002872,None,,001,2022_Jan_12_1148,TMTAstop-A,2021.2.3,143.42490022693565,
24,['2'],TMTstop-A_1_1linestimulus21.png,TMTstop-A_1_1greenlinestimulus21.png,TMTstop-A_1_1redlinestimulus21.png,None,,,,,,,,,,0,23,23,23,,,,,,,,,,,,,,,,,,,,,,,,,,,,,,,,,,,,,,,61.582513600122184,None,['2'],1,[0.006768499966710806],61.582513600122184,None,,001,2022_Jan_12_1148,TMTAstop-A,2021.2.3,143.42490022693565,
25,['3'],TMTstop-A_1_1linestimulus22.png,TMTstop-A_1_1greenlinestimulus22.png,TMTstop-A_1_1redlinestimulus22.png,None,,,,,,,,,,0,24,24,24,,,,,,,,,,,,,,,,,,,,,,,,,,,,,,,,,,,,,,,61.67987870005891,None,['3'],1,[1.3080124000553042],61.67987870005891,None,,001,2022_Jan_12_1148,TMTAstop-A,2021.2.3,143.42490022693565,
None,None,TMTstop-A_1_1linestimulus23.png,TMTstop-A_1_1greenlinestimulus23.png,TMTstop-A_1_1redlinestimulus23.png,None,,,,,,,,,,0,25,25,25,,,,,,,,,,,,,,,,,,,,,,,,,,,,,,,,,,,,,,,63.082451900001615,None,None,1,,63.082451900001615,None,,001,2022_Jan_12_1148,TMTAstop-A,2021.2.3,143.42490022693565,
1,['3'],TMTstop-A_1_2.png,TMTstop-A_1_2.png,TMTstop-A_1_2.png,10,3,,,,,,,,,,,,,0,0,0,0,,,,,,,,,,,,,,,,,,,,,64.13538029999472,None,,,,,,,,,,,,,67.15885760006495,None,['3'],1,[1.0392210001591593],67.15885760006495,None,,001,2022_Jan_12_1148,TMTAstop-A,2021.2.3,143.42490022693565,
2,['2'],TMTstop-A_1_2.png,TMTstop-A_1_2firstgreen.png,TMTstop-A_1_2firstred.png,10,2,,,,,,,,,,,,,0,1,1,1,,,,,,,,,,,,,,,,,,,,,,,,,,,,,,,,,,,68.29121190006845,None,"['1', '2']",1,"[0.476905400166288, 0.7537715001963079]",68.29121190006845,None,,001,2022_Jan_12_1148,TMTAstop-A,2021.2.3,143.42490022693565,
3,['3'],TMTstop-A_1_2linestimulus0.png,TMTstop-A_1_2greenlinestimulus0.png,TMTstop-A_1_2redlinestimulus0.png,10,3,,,,,,,,,,,,,0,2,2,2,,,,,,,,,,,,,,,,,,,,,,,,,,,,,,,,,,,69.1587475000415,None,['3'],1,[0.1804697997868061],69.1587475000415,None,,001,2022_Jan_12_1148,TMTAstop-A,2021.2.3,143.42490022693565,
4,['1'],TMTstop-A_1_2linestimulus1.png,TMTstop-A_1_2greenlinestimulus1.png,TMTstop-A_1_2redlinestimulus1.png,10,1,,,,,,,,,,,,,0,3,3,3,,,,,,,,,,,,,,,,,,,,,,,,,,,,,,,,,,,69.41672670003027,None,['1'],1,[0.22843399993143976],69.41672670003027,None,,001,2022_Jan_12_1148,TMTAstop-A,2021.2.3,143.42490022693565,
5,['2'],TMTstop-A_1_2linestimulus2.png,TMTstop-A_1_2greenlinestimulus2.png,TMTstop-A_1_2redlinestimulus2.png,10,2,,,,,,,,,,,,,0,4,4,4,,,,,,,,,,,,,,,,,,,,,,,,,,,,,,,,,,,69.72848110017367,None,['2'],1,[0.05758140003308654],69.72848110017367,None,,001,2022_Jan_12_1148,TMTAstop-A,2021.2.3,143.42490022693565,
6,['3'],TMTstop-A_1_2linestimulus3.png,TMTstop-A_1_2greenlinestimulus3.png,TMTstop-A_1_2redlinestimulus3.png,10,3,,,,,,,,,,,,,0,5,5,5,,,,,,,,,,,,,,,,,,,,,,,,,,,,,,,,,,,69.88140670000575,None,['3'],1,[0.11568399984389544],69.88140670000575,None,,001,2022_Jan_12_1148,TMTAstop-A,2021.2.3,143.42490022693565,
7,['2'],TMTstop-A_1_2linestimulus4.png,TMTstop-A_1_2greenlinestimulus4.png,TMTstop-A_1_2redlinestimulus4.png,10,2,,,,,,,,,,,,,0,6,6,6,,,,,,,,,,,,,,,,,,,,,,,,,,,,,,,,,,,70.08344099996611,None,['2'],1,[0.2109098001383245],70.08344099996611,None,,001,2022_Jan_12_1148,TMTAstop-A,2021.2.3,143.42490022693565,
8,['1'],TMTstop-A_1_2linestimulus5.png,TMTstop-A_1_2greenlinestimulus5.png,TMTstop-A_1_2redlinestimulus5.png,10,1,,,,,,,,,,,,,0,7,7,7,,,,,,,,,,,,,,,,,,,,,,,,,,,,,,,,,,,70.38834309997037,None,"['3', '1']",1,"[0.15675200009718537, 0.37659050012007356]",70.38834309997037,None,,001,2022_Jan_12_1148,TMTAstop-A,2021.2.3,143.42490022693565,
9,['2'],TMTstop-A_1_2linestimulus6.png,TMTstop-A_1_2greenlinestimulus6.png,TMTstop-A_1_2redlinestimulus6.png,10,2,,,,,,,,,,,,,0,8,8,8,,,,,,,,,,,,,,,,,,,,,,,,,,,,,,,,,,,70.85347940004431,None,['2'],1,[0.026472799945622683],70.85347940004431,None,,001,2022_Jan_12_1148,TMTAstop-A,2021.2.3,143.42490022693565,
10,['3'],TMTstop-A_1_2linestimulus7.png,TMTstop-A_1_2greenlinestimulus7.png,TMTstop-A_1_2redlinestimulus7.png,10,3,,,,,,,,,,,,,0,9,9,9,,,,,,,,,,,,,,,,,,,,,,,,,,,,,,,,,,,71.02603300008923,None,['3'],1,[0.07462679990567267],71.02603300008923,None,,001,2022_Jan_12_1148,TMTAstop-A,2021.2.3,143.42490022693565,
11,['1'],TMTstop-A_1_2linestimulus8.png,TMTstop-A_1_2greenlinestimulus8.png,TMTstop-A_1_2redlinestimulus8.png,10,1,,,,,,,,,,,,,0,10,10,10,,,,,,,,,,,,,,,,,,,,,,,,,,,,,,,,,,,71.18714329996146,None,['1'],1,[0.18983839987777174],71.18714329996146,None,,001,2022_Jan_12_1148,TMTAstop-A,2021.2.3,143.42490022693565,
12,['2'],TMTstop-A_1_2linestimulus9.png,TMTstop-A_1_2greenlinestimulus9.png,TMTstop-A_1_2redlinestimulus9.png,10,2,,,,,,,,,,,,,0,11,11,11,,,,,,,,,,,,,,,,,,,,,,,,,,,,,,,,,,,71.46434239996597,None,['2'],1,[0.005331299966201186],71.46434239996597,None,,001,2022_Jan_12_1148,TMTAstop-A,2021.2.3,143.42490022693565,
13,['3'],TMTstop-A_1_2linestimulus10.png,TMTstop-A_1_2greenlinestimulus10.png,TMTstop-A_1_2redlinestimulus10.png,1,3,,,,,,,,,,,,,0,12,12,12,,,,,,,,,,,,,,,,,,,,,,,,,,,,,,,,,,,71.55458790017292,None,['3'],1,[0.2340655999723822],71.55458790017292,None,,001,2022_Jan_12_1148,TMTAstop-A,2021.2.3,143.42490022693565,
14,['1'],TMTstop-A_1_2linestimulus11.png,TMTstop-A_1_2greenlinestimulus11.png,TMTstop-A_1_2redlinestimulus11.png,None,1,,,,,,,,,,,,,0,13,13,13,,,,,,,,,,,,,,,,,,,,,,,,,,,,,,,,,,,71.88872020016424,None,['1'],1,[0.4753531999886036],71.88872020016424,None,,001,2022_Jan_12_1148,TMTAstop-A,2021.2.3,143.42490022693565,
15,['3'],TMTstop-A_1_2linestimulus12.png,TMTstop-A_1_2greenlinestimulus12.png,TMTstop-A_1_2redlinestimulus12.png,None,3,,,,,,,,,,,,,0,14,14,14,,,,,,,,,,,,,,,,,,,,,,,,,,,,,,,,,,,72.46478880010545,None,"['2', '1', '2', '3']",1,"[0.15815069992095232, 0.5344066999386996, 0.5507409998681396, 0.7638750998303294]",72.46478880010545,None,,001,2022_Jan_12_1148,TMTAstop-A,2021.2.3,143.42490022693565,
16,['1'],TMTstop-A_1_2linestimulus13.png,TMTstop-A_1_2greenlinestimulus13.png,TMTstop-A_1_2redlinestimulus13.png,None,1,,,,,,,,,,,,,0,15,15,15,,,,,,,,,,,,,,,,,,,,,,,,,,,,,,,,,,,73.32650130009279,None,['1'],1,[0.3610595997888595],73.32650130009279,None,,001,2022_Jan_12_1148,TMTAstop-A,2021.2.3,143.42490022693565,
17,['2'],TMTstop-A_1_2linestimulus14.png,TMTstop-A_1_2greenlinestimulus14.png,TMTstop-A_1_2redlinestimulus14.png,None,2,,,,,,,,,,,,,0,16,16,16,,,,,,,,,,,,,,,,,,,,,,,,,,,,,,,,,,,73.76319360011257,None,['2'],1,[0.007563399849459529],73.76319360011257,None,,001,2022_Jan_12_1148,TMTAstop-A,2021.2.3,143.42490022693565,
18,['1'],TMTstop-A_1_2linestimulus15.png,TMTstop-A_1_2greenlinestimulus15.png,TMTstop-A_1_2redlinestimulus15.png,None,1,,,,,,,,,,,,,0,17,17,17,,,,,,,,,,,,,,,,,,,,,,,,,,,,,,,,,,,73.85337110003456,None,"['3', '1']",1,"[0.2208628999069333, 0.5406208001077175]",73.85337110003456,None,,001,2022_Jan_12_1148,TMTAstop-A,2021.2.3,143.42490022693565,
19,['3'],TMTstop-A_1_2linestimulus16.png,TMTstop-A_1_2greenlinestimulus16.png,TMTstop-A_1_2redlinestimulus16.png,None,3,,,,,,,,,,,,,0,18,18,18,,,,,,,,,,,,,,,,,,,,,,,,,,,,,,,,,,,74.4929244001396,None,"['2', '3']",1,"[-0.007768400013446808, 0.24662699992768466]",74.4929244001396,None,,001,2022_Jan_12_1148,TMTAstop-A,2021.2.3,143.42490022693565,
20,['1'],TMTstop-A_1_2linestimulus17.png,TMTstop-A_1_2greenlinestimulus17.png,TMTstop-A_1_2redlinestimulus17.png,None,1,,,,,,,,,,,,,0,19,19,19,,,,,,,,,,,,,,,,,,,,,,,,,,,,,,,,,,,74.87414070009254,None,['1'],1,[0.13668019999749959],74.87414070009254,None,,001,2022_Jan_12_1148,TMTAstop-A,2021.2.3,143.42490022693565,
21,['2'],TMTstop-A_1_2linestimulus18.png,TMTstop-A_1_2greenlinestimulus18.png,TMTstop-A_1_2redlinestimulus18.png,None,2,,,,,,,,,,,,,0,20,20,20,,,,,,,,,,,,,,,,,,,,,,,,,,,,,,,,,,,75.09680439997464,None,['2'],1,[0.11772489990107715],75.09680439997464,None,,001,2022_Jan_12_1148,TMTAstop-A,2021.2.3,143.42490022693565,
22,['1'],TMTstop-A_1_2linestimulus19.png,TMTstop-A_1_2greenlinestimulus19.png,TMTstop-A_1_2redlinestimulus19.png,None,1,,,,,,,,,,,,,0,21,21,21,,,,,,,,,,,,,,,,,,,,,,,,,,,,,,,,,,,75.29854140011594,None,"['3', '1']",1,"[0.10907040000893176, 0.517153900116682]",75.29854140011594,None,,001,2022_Jan_12_1148,TMTAstop-A,2021.2.3,143.42490022693565,
23,['2'],TMTstop-A_1_2linestimulus20.png,TMTstop-A_1_2greenlinestimulus20.png,TMTstop-A_1_2redlinestimulus20.png,None,2,,,,,,,,,,,,,0,22,22,22,,,,,,,,,,,,,,,,,,,,,,,,,,,,,,,,,,,75.92998470016755,None,['2'],1,[0.06606899993494153],75.92998470016755,None,,001,2022_Jan_12_1148,TMTAstop-A,2021.2.3,143.42490022693565,
24,['1'],TMTstop-A_1_2linestimulus21.png,TMTstop-A_1_2greenlinestimulus21.png,TMTstop-A_1_2redlinestimulus21.png,None,1,,,,,,,,,,,,,0,23,23,23,,,,,,,,,,,,,,,,,,,,,,,,,,,,,,,,,,,76.0974282999523,None,"['3', '1']",1,"[0.07556340005248785, 0.29350589984096587]",76.0974282999523,None,,001,2022_Jan_12_1148,TMTAstop-A,2021.2.3,143.42490022693565,
25,['2'],TMTstop-A_1_2linestimulus22.png,TMTstop-A_1_2greenlinestimulus22.png,TMTstop-A_1_2redlinestimulus22.png,None,2,,,,,,,,,,,,,0,24,24,24,,,,,,,,,,,,,,,,,,,,,,,,,,,,,,,,,,,76.52682240004651,None,['2'],1,[0.23929419997148216],76.52682240004651,None,,001,2022_Jan_12_1148,TMTAstop-A,2021.2.3,143.42490022693565,
None,None,TMTstop-A_1_2linestimulus23.png,TMTstop-A_1_2greenlinestimulus23.png,TMTstop-A_1_2redlinestimulus23.png,None,None,,,,,,,,,,,,,0,25,25,25,,,,,,,,,,,,,,,,,,,,,,,,,,,,,,,,,,,76.91679630009457,None,['3'],0,[0.523187099955976],76.91679630009457,None,,001,2022_Jan_12_1148,TMTAstop-A,2021.2.3,143.42490022693565,
1,['2'],TMTstop-A_1_3.png,TMTstop-A_1_3.png,TMTstop-A_1_3.png,10,2,,,,,,,,,,,,,,,,,0,0,0,0,,,,,,,,,,,,,,,,,78.07988490001298,None,,,,,,,,,,,,,81.01960920006968,None,['2'],1,[0.8013345000799745],81.01960920006968,None,,001,2022_Jan_12_1148,TMTAstop-A,2021.2.3,143.42490022693565,
2,['1'],TMTstop-A_1_3.png,TMTstop-A_1_3firstgreen.png,TMTstop-A_1_3firstred.png,10,1,,,,,,,,,,,,,,,,,0,1,1,1,,,,,,,,,,,,,,,,,,,,,,,,,,,,,,,81.91751850000583,None,['1'],1,[0.28980379994027317],81.91751850000583,None,,001,2022_Jan_12_1148,TMTAstop-A,2021.2.3,143.42490022693565,
3,['3'],TMTstop-A_1_3linestimulus0.png,TMTstop-A_1_3greenlinestimulus0.png,TMTstop-A_1_3redlinestimulus0.png,10,3,,,,,,,,,,,,,,,,,0,2,2,2,,,,,,,,,,,,,,,,,,,,,,,,,,,,,,,82.27680620015599,None,"['2', '3']",1,"[0.24833349999971688, 0.4359387999866158]",82.27680620015599,None,,001,2022_Jan_12_1148,TMTAstop-A,2021.2.3,143.42490022693565,
4,['2'],TMTstop-A_1_3linestimulus1.png,TMTstop-A_1_3greenlinestimulus1.png,TMTstop-A_1_3redlinestimulus1.png,10,2,,,,,,,,,,,,,,,,,0,3,3,3,,,,,,,,,,,,,,,,,,,,,,,,,,,,,,,82.82558439997956,None,"['1', '2']",1,"[0.13469130010344088, 0.263929600128904]",82.82558439997956,None,,001,2022_Jan_12_1148,TMTAstop-A,2021.2.3,143.42490022693565,
5,['3'],TMTstop-A_1_3linestimulus2.png,TMTstop-A_1_3greenlinestimulus2.png,TMTstop-A_1_3redlinestimulus2.png,10,3,,,,,,,,,,,,,,,,,0,4,4,4,,,,,,,,,,,,,,,,,,,,,,,,,,,,,,,83.18629020010121,None,['3'],1,[0.10254790005274117],83.18629020010121,None,,001,2022_Jan_12_1148,TMTAstop-A,2021.2.3,143.42490022693565,
6,['2'],TMTstop-A_1_3linestimulus3.png,TMTstop-A_1_3greenlinestimulus3.png,TMTstop-A_1_3redlinestimulus3.png,10,2,,,,,,,,,,,,,,,,,0,5,5,5,,,,,,,,,,,,,,,,,,,,,,,,,,,,,,,83.38127310015261,None,"['1', '2']",1,"[0.09231889992952347, 0.16595699987374246]",83.38127310015261,None,,001,2022_Jan_12_1148,TMTAstop-A,2021.2.3,143.42490022693565,
7,['1'],TMTstop-A_1_3linestimulus4.png,TMTstop-A_1_3greenlinestimulus4.png,TMTstop-A_1_3redlinestimulus4.png,10,1,,,,,,,,,,,,,,,,,0,6,6,6,,,,,,,,,,,,,,,,,,,,,,,,,,,,,,,83.65248670009896,None,"['3', '1']",1,"[0.05133340018801391, 0.2879411999601871]",83.65248670009896,None,,001,2022_Jan_12_1148,TMTAstop-A,2021.2.3,143.42490022693565,
8,['2'],TMTstop-A_1_3linestimulus5.png,TMTstop-A_1_3greenlinestimulus5.png,TMTstop-A_1_3redlinestimulus5.png,10,2,,,,,,,,,,,,,,,,,0,7,7,7,,,,,,,,,,,,,,,,,,,,,,,,,,,,,,,84.06217589997686,None,['2'],1,[-0.05336889997124672],84.06217589997686,None,,001,2022_Jan_12_1148,TMTAstop-A,2021.2.3,143.42490022693565,
9,['3'],TMTstop-A_1_3linestimulus6.png,TMTstop-A_1_3greenlinestimulus6.png,TMTstop-A_1_3redlinestimulus6.png,10,3,,,,,,,,,,,,,,,,,0,8,8,8,,,,,,,,,,,,,,,,,,,,,,,,,,,,,,,84.15269540017471,None,['3'],1,[0.09429770009592175],84.15269540017471,None,,001,2022_Jan_12_1148,TMTAstop-A,2021.2.3,143.42490022693565,
10,['2'],TMTstop-A_1_3linestimulus7.png,TMTstop-A_1_3greenlinestimulus7.png,TMTstop-A_1_3redlinestimulus7.png,10,2,,,,,,,,,,,,,,,,,0,9,9,9,,,,,,,,,,,,,,,,,,,,,,,,,,,,,,,84.33379460009746,None,"['1', '2']",1,"[0.20725099998526275, 0.2687015999108553]",84.33379460009746,None,,001,2022_Jan_12_1148,TMTAstop-A,2021.2.3,143.42490022693565,
11,['3'],TMTstop-A_1_3linestimulus8.png,TMTstop-A_1_3greenlinestimulus8.png,TMTstop-A_1_3redlinestimulus8.png,10,3,,,,,,,,,,,,,,,,,0,10,10,10,,,,,,,,,,,,,,,,,,,,,,,,,,,,,,,84.7238788001705,None,['3'],1,[0.06901300000026822],84.7238788001705,None,,001,2022_Jan_12_1148,TMTAstop-A,2021.2.3,143.42490022693565,
12,['2'],TMTstop-A_1_3linestimulus9.png,TMTstop-A_1_3greenlinestimulus9.png,TMTstop-A_1_3redlinestimulus9.png,10,2,,,,,,,,,,,,,,,,,0,11,11,11,,,,,,,,,,,,,,,,,,,,,,,,,,,,,,,84.89764910005033,None,"['1', '2']",1,"[0.15755749982781708, 0.2592980999033898]",84.89764910005033,None,,001,2022_Jan_12_1148,TMTAstop-A,2021.2.3,143.42490022693565,
13,['1'],TMTstop-A_1_3linestimulus10.png,TMTstop-A_1_3greenlinestimulus10.png,TMTstop-A_1_3redlinestimulus10.png,1,1,,,,,,,,,,,,,,,,,0,12,12,12,,,,,,,,,,,,,,,,,,,,,,,,,,,,,,,85.248977500014,None,"['3', '1']",1,"[0.09564459999091923, 0.3145526999142021]",85.248977500014,None,,001,2022_Jan_12_1148,TMTAstop-A,2021.2.3,143.42490022693565,
14,['2'],TMTstop-A_1_3linestimulus11.png,TMTstop-A_1_3greenlinestimulus11.png,TMTstop-A_1_3redlinestimulus11.png,None,2,,,,,,,,,,,,,,,,,0,13,13,13,,,,,,,,,,,,,,,,,,,,,,,,,,,,,,,85.65247910004109,None,['2'],1,[0.020532700000330806],85.65247910004109,None,,001,2022_Jan_12_1148,TMTAstop-A,2021.2.3,143.42490022693565,
15,['1'],TMTstop-A_1_3linestimulus12.png,TMTstop-A_1_3greenlinestimulus12.png,TMTstop-A_1_3redlinestimulus12.png,None,1,,,,,,,,,,,,,,,,,0,14,14,14,,,,,,,,,,,,,,,,,,,,,,,,,,,,,,,85.76342110009864,None,"['3', '2', '1']",1,"[0.08379200007766485, 0.5225287999492139, 0.6619418000336736]",85.76342110009864,None,,001,2022_Jan_12_1148,TMTAstop-A,2021.2.3,143.42490022693565,
16,['2'],TMTstop-A_1_3linestimulus13.png,TMTstop-A_1_3greenlinestimulus13.png,TMTstop-A_1_3redlinestimulus13.png,None,2,,,,,,,,,,,,,,,,,0,15,15,15,,,,,,,,,,,,,,,,,,,,,,,,,,,,,,,86.52652200008743,None,"['3', '1', '2']",1,"[0.09024800010956824, 0.2739771001506597, 0.36003550002351403]",86.52652200008743,None,,001,2022_Jan_12_1148,TMTAstop-A,2021.2.3,143.42490022693565,
17,['3'],TMTstop-A_1_3linestimulus14.png,TMTstop-A_1_3greenlinestimulus14.png,TMTstop-A_1_3redlinestimulus14.png,None,3,,,,,,,,,,,,,,,,,0,16,16,16,,,,,,,,,,,,,,,,,,,,,,,,,,,,,,,86.98505589994602,None,['3'],1,[0.02668120013549924],86.98505589994602,None,,001,2022_Jan_12_1148,TMTAstop-A,2021.2.3,143.42490022693565,
18,['2'],TMTstop-A_1_3linestimulus15.png,TMTstop-A_1_3greenlinestimulus15.png,TMTstop-A_1_3redlinestimulus15.png,None,2,,,,,,,,,,,,,,,,,0,17,17,17,,,,,,,,,,,,,,,,,,,,,,,,,,,,,,,87.09032990015112,None,"['1', '2']",1,"[0.13156679994426668, 0.1805692999623716]",87.09032990015112,None,,001,2022_Jan_12_1148,TMTAstop-A,2021.2.3,143.42490022693565,
19,['1'],TMTstop-A_1_3linestimulus16.png,TMTstop-A_1_3greenlinestimulus16.png,TMTstop-A_1_3redlinestimulus16.png,None,1,,,,,,,,,,,,,,,,,0,18,18,18,,,,,,,,,,,,,,,,,,,,,,,,,,,,,,,87.3612627000548,None,"['3', '1']",1,"[0.05901449988596141, 0.23163209995254874]",87.3612627000548,None,,001,2022_Jan_12_1148,TMTAstop-A,2021.2.3,143.42490022693565,
20,['2'],TMTstop-A_1_3linestimulus17.png,TMTstop-A_1_3greenlinestimulus17.png,TMTstop-A_1_3redlinestimulus17.png,None,2,,,,,,,,,,,,,,,,,0,19,19,19,,,,,,,,,,,,,,,,,,,,,,,,,,,,,,,87.69357999996282,None,['2'],1,[-0.04214359982870519],87.69357999996282,None,,001,2022_Jan_12_1148,TMTAstop-A,2021.2.3,143.42490022693565,
21,['3'],TMTstop-A_1_3linestimulus18.png,TMTstop-A_1_3greenlinestimulus18.png,TMTstop-A_1_3redlinestimulus18.png,None,3,,,,,,,,,,,,,,,,,0,20,20,20,,,,,,,,,,,,,,,,,,,,,,,,,,,,,,,87.77048299997114,None,['3'],1,[0.019096999894827604],87.77048299997114,None,,001,2022_Jan_12_1148,TMTAstop-A,2021.2.3,143.42490022693565,
22,['1'],TMTstop-A_1_3linestimulus19.png,TMTstop-A_1_3greenlinestimulus19.png,TMTstop-A_1_3redlinestimulus19.png,None,1,,,,,,,,,,,,,,,,,0,21,21,21,,,,,,,,,,,,,,,,,,,,,,,,,,,,,,,87.88172010006383,None,['1'],1,[0.10486259986646473],87.88172010006383,None,,001,2022_Jan_12_1148,TMTAstop-A,2021.2.3,143.42490022693565,
23,['3'],TMTstop-A_1_3linestimulus20.png,TMTstop-A_1_3greenlinestimulus20.png,TMTstop-A_1_3redlinestimulus20.png,None,3,,,,,,,,,,,,,,,,,0,22,22,22,,,,,,,,,,,,,,,,,,,,,,,,,,,,,,,88.07597420015372,None,"['2', '3']",1,"[-0.02041050000116229, 0.10649209981784225]",88.07597420015372,None,,001,2022_Jan_12_1148,TMTAstop-A,2021.2.3,143.42490022693565,
24,['1'],TMTstop-A_1_3linestimulus21.png,TMTstop-A_1_3greenlinestimulus21.png,TMTstop-A_1_3redlinestimulus21.png,None,1,,,,,,,,,,,,,,,,,0,23,23,23,,,,,,,,,,,,,,,,,,,,,,,,,,,,,,,88.31259490014054,None,['1'],1,[0.34440990001894534],88.31259490014054,None,,001,2022_Jan_12_1148,TMTAstop-A,2021.2.3,143.42490022693565,
25,['3'],TMTstop-A_1_3linestimulus22.png,TMTstop-A_1_3greenlinestimulus22.png,TMTstop-A_1_3redlinestimulus22.png,None,3,,,,,,,,,,,,,,,,,0,24,24,24,,,,,,,,,,,,,,,,,,,,,,,,,,,,,,,88.7350159001071,None,"['2', '3']",1,"[-0.06654060003347695, 0.09275799989700317]",88.7350159001071,None,,001,2022_Jan_12_1148,TMTAstop-A,2021.2.3,143.42490022693565,
None,None,TMTstop-A_1_3linestimulus23.png,TMTstop-A_1_3greenlinestimulus23.png,TMTstop-A_1_3redlinestimulus23.png,None,None,,,,,,,,,,,,,,,,,0,25,25,25,,,,,,,,,,,,,,,,,,,,,,,,,,,,,,,88.95758100016974,None,None,1,,88.95758100016974,None,,001,2022_Jan_12_1148,TMTAstop-A,2021.2.3,143.42490022693565,
1,['3'],TMTstop-A_1_4.png,TMTstop-A_1_4.png,TMTstop-A_1_4.png,10,,,,,,,,,,,,,,,,,,,,,,0,0,0,0,,,,,,,,,,,,,90.04490730003454,None,,,,,,,,,,,,,93.0478362001013,None,"['1', '2', '3']",1,"[0.8420293999370188, 0.9691207001451403, 1.0604254000354558]",93.0478362001013,None,,001,2022_Jan_12_1148,TMTAstop-A,2021.2.3,143.42490022693565,
2,['1'],TMTstop-A_1_4.png,TMTstop-A_1_4firstgreen.png,TMTstop-A_1_4firstred.png,10,,,,,,,,,,,,,,,,,,,,,,0,1,1,1,,,,,,,,,,,,,,,,,,,,,,,,,,,94.20724619994871,None,['1'],1,[0.2700539000798017],94.20724619994871,None,,001,2022_Jan_12_1148,TMTAstop-A,2021.2.3,143.42490022693565,
3,['3'],TMTstop-A_1_4linestimulus0.png,TMTstop-A_1_4greenlinestimulus0.png,TMTstop-A_1_4redlinestimulus0.png,10,,,,,,,,,,,,,,,,,,,,,,0,2,2,2,,,,,,,,,,,,,,,,,,,,,,,,,,,94.56830950011499,None,"['2', '3']",1,"[-0.04803239996545017, 0.14281929982826114]",94.56830950011499,None,,001,2022_Jan_12_1148,TMTAstop-A,2021.2.3,143.42490022693565,
4,['1'],TMTstop-A_1_4linestimulus1.png,TMTstop-A_1_4greenlinestimulus1.png,TMTstop-A_1_4redlinestimulus1.png,10,,,,,,,,,,,,,,,,,,,,,,0,3,3,3,,,,,,,,,,,,,,,,,,,,,,,,,,,94.82559270015918,None,['1'],1,[0.18210180010646582],94.82559270015918,None,,001,2022_Jan_12_1148,TMTAstop-A,2021.2.3,143.42490022693565,
5,['2'],TMTstop-A_1_4linestimulus2.png,TMTstop-A_1_4greenlinestimulus2.png,TMTstop-A_1_4redlinestimulus2.png,10,,,,,,,,,,,,,,,,,,,,,,0,4,4,4,,,,,,,,,,,,,,,,,,,,,,,,,,,95.09704390005209,None,['2'],1,[-0.028402299853041768],95.09704390005209,None,,001,2022_Jan_12_1148,TMTAstop-A,2021.2.3,143.42490022693565,
6,['3'],TMTstop-A_1_4linestimulus3.png,TMTstop-A_1_4greenlinestimulus3.png,TMTstop-A_1_4redlinestimulus3.png,10,,,,,,,,,,,,,,,,,,,,,,0,5,5,5,,,,,,,,,,,,,,,,,,,,,,,,,,,95.20148889999837,None,['3'],1,[0.10843779984861612],95.20148889999837,None,,001,2022_Jan_12_1148,TMTAstop-A,2021.2.3,143.42490022693565,
7,['2'],TMTstop-A_1_4linestimulus4.png,TMTstop-A_1_4greenlinestimulus4.png,TMTstop-A_1_4redlinestimulus4.png,10,,,,,,,,,,,,,,,,,,,,,,0,6,6,6,,,,,,,,,,,,,,,,,,,,,,,,,,,95.40325250010937,None,"['1', '2']",1,"[-0.003966700052842498, 0.06536810006946325]",95.40325250010937,None,,001,2022_Jan_12_1148,TMTAstop-A,2021.2.3,143.42490022693565,
8,['3'],TMTstop-A_1_4linestimulus5.png,TMTstop-A_1_4greenlinestimulus5.png,TMTstop-A_1_4redlinestimulus5.png,10,,,,,,,,,,,,,,,,,,,,,,0,7,7,7,,,,,,,,,,,,,,,,,,,,,,,,,,,95.60595510015264,None,['3'],1,[-0.008025399874895811],95.60595510015264,None,,001,2022_Jan_12_1148,TMTAstop-A,2021.2.3,143.42490022693565,
9,['1'],TMTstop-A_1_4linestimulus6.png,TMTstop-A_1_4greenlinestimulus6.png,TMTstop-A_1_4redlinestimulus6.png,10,,,,,,,,,,,,,,,,,,,,,,0,8,8,8,,,,,,,,,,,,,,,,,,,,,,,,,,,95.7004821000155,None,['1'],1,[0.08913820004090667],95.7004821000155,None,,001,2022_Jan_12_1148,TMTAstop-A,2021.2.3,143.42490022693565,
10,['2'],TMTstop-A_1_4linestimulus7.png,TMTstop-A_1_4greenlinestimulus7.png,TMTstop-A_1_4redlinestimulus7.png,10,,,,,,,,,,,,,,,,,,,,,,0,9,9,9,,,,,,,,,,,,,,,,,,,,,,,,,,,95.88105650013313,None,['2'],1,[-0.05296849994920194],95.88105650013313,None,,001,2022_Jan_12_1148,TMTAstop-A,2021.2.3,143.42490022693565,
11,['3'],TMTstop-A_1_4linestimulus8.png,TMTstop-A_1_4greenlinestimulus8.png,TMTstop-A_1_4redlinestimulus8.png,10,,,,,,,,,,,,,,,,,,,,,,0,10,10,10,,,,,,,,,,,,,,,,,,,,,,,,,,,95.95682960003614,None,['3'],1,[0.013392399996519089],95.95682960003614,None,,001,2022_Jan_12_1148,TMTAstop-A,2021.2.3,143.42490022693565,
12,['1'],TMTstop-A_1_4linestimulus9.png,TMTstop-A_1_4greenlinestimulus9.png,TMTstop-A_1_4redlinestimulus9.png,10,,,,,,,,,,,,,,,,,,,,,,0,11,11,11,,,,,,,,,,,,,,,,,,,,,,,,,,,96.04839360015467,None,['1'],1,[0.08165089995600283],96.04839360015467,None,,001,2022_Jan_12_1148,TMTAstop-A,2021.2.3,143.42490022693565,
13,['2'],TMTstop-A_1_4linestimulus10.png,TMTstop-A_1_4greenlinestimulus10.png,TMTstop-A_1_4redlinestimulus10.png,1,,,,,,,,,,,,,,,,,,,,,,0,12,12,12,,,,,,,,,,,,,,,,,,,,,,,,,,,96.21468900004402,None,['2'],1,[-0.048845200100913644],96.21468900004402,None,,001,2022_Jan_12_1148,TMTAstop-A,2021.2.3,143.42490022693565,
14,['1'],TMTstop-A_1_4linestimulus11.png,TMTstop-A_1_4greenlinestimulus11.png,TMTstop-A_1_4redlinestimulus11.png,None,,,,,,,,,,,,,,,,,,,,,,0,13,13,13,,,,,,,,,,,,,,,,,,,,,,,,,,,96.29109499999322,None,"['3', '1']",1,"[-0.0011764001101255417, 0.1403497001156211]",96.29109499999322,None,,001,2022_Jan_12_1148,TMTAstop-A,2021.2.3,143.42490022693565,
15,['2'],TMTstop-A_1_4linestimulus12.png,TMTstop-A_1_4greenlinestimulus12.png,TMTstop-A_1_4redlinestimulus12.png,None,,,,,,,,,,,,,,,,,,,,,,0,14,14,14,,,,,,,,,,,,,,,,,,,,,,,,,,,96.51336390012875,None,['2'],1,[-0.021755600115284324],96.51336390012875,None,,001,2022_Jan_12_1148,TMTAstop-A,2021.2.3,143.42490022693565,
16,['3'],TMTstop-A_1_4linestimulus13.png,TMTstop-A_1_4greenlinestimulus13.png,TMTstop-A_1_4redlinestimulus13.png,None,,,,,,,,,,,,,,,,,,,,,,0,15,15,15,,,,,,,,,,,,,,,,,,,,,,,,,,,96.58919480000623,None,['3'],1,[0.02258519991301],96.58919480000623,None,,001,2022_Jan_12_1148,TMTAstop-A,2021.2.3,143.42490022693565,
17,['1'],TMTstop-A_1_4linestimulus14.png,TMTstop-A_1_4greenlinestimulus14.png,TMTstop-A_1_4redlinestimulus14.png,None,,,,,,,,,,,,,,,,,,,,,,0,16,16,16,,,,,,,,,,,,,,,,,,,,,,,,,,,96.74302960000932,None,['1'],1,[0.01755379978567362],96.74302960000932,None,,001,2022_Jan_12_1148,TMTAstop-A,2021.2.3,143.42490022693565,
18,['2'],TMTstop-A_1_4linestimulus15.png,TMTstop-A_1_4greenlinestimulus15.png,TMTstop-A_1_4redlinestimulus15.png,None,,,,,,,,,,,,,,,,,,,,,,0,17,17,17,,,,,,,,,,,,,,,,,,,,,,,,,,,96.86076810001396,None,['2'],1,[-0.06710129999555647],96.86076810001396,None,,001,2022_Jan_12_1148,TMTAstop-A,2021.2.3,143.42490022693565,
19,['1'],TMTstop-A_1_4linestimulus16.png,TMTstop-A_1_4greenlinestimulus16.png,TMTstop-A_1_4redlinestimulus16.png,None,,,,,,,,,,,,,,,,,,,,,,0,18,18,18,,,,,,,,,,,,,,,,,,,,,,,,,,,96.94365080003627,None,"['3', '1']",1,"[-0.021915199933573604, 0.13661490008234978]",96.94365080003627,None,,001,2022_Jan_12_1148,TMTAstop-A,2021.2.3,143.42490022693565,
20,['3'],TMTstop-A_1_4linestimulus17.png,TMTstop-A_1_4greenlinestimulus17.png,TMTstop-A_1_4redlinestimulus17.png,None,,,,,,,,,,,,,,,,,,,,,,0,19,19,19,,,,,,,,,,,,,,,,,,,,,,,,,,,97.1731187000405,None,"['2', '3']",1,"[-0.05865059979259968, 0.09031670005060732]",97.1731187000405,None,,001,2022_Jan_12_1148,TMTAstop-A,2021.2.3,143.42490022693565,
21,['1'],TMTstop-A_1_4linestimulus18.png,TMTstop-A_1_4greenlinestimulus18.png,TMTstop-A_1_4redlinestimulus18.png,None,,,,,,,,,,,,,,,,,,,,,,0,20,20,20,,,,,,,,,,,,,,,,,,,,,,,,,,,97.35347279999405,None,['1'],1,[0.04189979983493686],97.35347279999405,None,,001,2022_Jan_12_1148,TMTAstop-A,2021.2.3,143.42490022693565,
22,['3'],TMTstop-A_1_4linestimulus19.png,TMTstop-A_1_4greenlinestimulus19.png,TMTstop-A_1_4redlinestimulus19.png,None,,,,,,,,,,,,,,,,,,,,,,0,21,21,21,,,,,,,,,,,,,,,,,,,,,,,,,,,97.49306630017236,None,"['2', '3']",1,"[-0.012034999905154109, 0.10338889993727207]",97.49306630017236,None,,001,2022_Jan_12_1148,TMTAstop-A,2021.2.3,143.42490022693565,
23,['2'],TMTstop-A_1_4linestimulus20.png,TMTstop-A_1_4greenlinestimulus20.png,TMTstop-A_1_4redlinestimulus20.png,None,,,,,,,,,,,,,,,,,,,,,,0,22,22,22,,,,,,,,,,,,,,,,,,,,,,,,,,,97.71536949998699,None,"['1', '2']",1,"[0.022299200063571334, 0.08755689999088645]",97.71536949998699,None,,001,2022_Jan_12_1148,TMTAstop-A,2021.2.3,143.42490022693565,
24,['3'],TMTstop-A_1_4linestimulus21.png,TMTstop-A_1_4greenlinestimulus21.png,TMTstop-A_1_4redlinestimulus21.png,None,,,,,,,,,,,,,,,,,,,,,,0,23,23,23,,,,,,,,,,,,,,,,,,,,,,,,,,,97.92265389999375,None,['3'],1,[0.00029690004885196686],97.92265389999375,None,,001,2022_Jan_12_1148,TMTAstop-A,2021.2.3,143.42490022693565,
25,['2'],TMTstop-A_1_4linestimulus22.png,TMTstop-A_1_4greenlinestimulus22.png,TMTstop-A_1_4redlinestimulus22.png,None,,,,,,,,,,,,,,,,,,,,,,0,24,24,24,,,,,,,,,,,,,,,,,,,,,,,,,,,98.00663570011966,None,"['1', '2']",1,"[0.04951880010776222, 0.11709960014559329]",98.00663570011966,None,,001,2022_Jan_12_1148,TMTAstop-A,2021.2.3,143.42490022693565,
None,None,TMTstop-A_1_4linestimulus23.png,TMTstop-A_1_4greenlinestimulus23.png,TMTstop-A_1_4redlinestimulus23.png,None,,,,,,,,,,,,,,,,,,,,,,0,25,25,25,,,,,,,,,,,,,,,,,,,,,,,,,,,98.25562870013528,None,['3'],0,[-0.021513799903914332],98.25562870013528,None,,001,2022_Jan_12_1148,TMTAstop-A,2021.2.3,143.42490022693565,
,,,,,,,,,,,,,,,,,,,,,,,,,,,,,,,,,,,,,,,,,,,99.40590570005588,None,,,,,,,,,,,,,,,,,,,,,,,,,,
