NumberLetter,corrAns,StimFile,Correct_StimFile,False_StimFile,DurationTrial,trials_practice.thisRepN,trials_practice.thisTrialN,trials_practice.thisN,trials_practice.thisIndex,trials.thisRepN,trials.thisTrialN,trials.thisN,trials.thisIndex,Instruct.started,Instruct.stopped,text_2.started,text_2.stopped,polygon.started,polygon.stopped,Stim_practice.started,Stim_practice.stopped,key_resp_practice.keys,key_resp_practice.rt,key_resp_practice.started,key_resp_practice.stopped,Stim.started,Stim.stopped,key_resp_2.keys,key_resp_2.corr,key_resp_2.rt,key_resp_2.started,key_resp_2.stopped,participant,session,date,expName,psychopyVersion,frameRate,
1,['1'],TMTstop-A_1_practice.png,TMTstop-A_1_practice.png,TMTstop-A_1_practice.png,10,0,0,0,0,,,,,6.295064199999615,None,6.295064199999615,None,7.314143600000534,None,10.364564600000449,None,1,4.562797500002489,10.364564600000449,None,,,,,,,,,001,2021_Nov_15_1316,TMTAB,2021.2.3,144.33992629394413,
2,['2'],TMTstop-A_1_practice.png,TMTstop-A_1_practicefirstgreen.png,TMTstop-A_1_practicefirstred.png,10,0,1,1,1,,,,,,,,,,,14.996883899999375,None,2,1.987084300002607,14.996883899999375,None,,,,,,,,,001,2021_Nov_15_1316,TMTAB,2021.2.3,144.33992629394413,
3,['3'],TMTstop-A_1_practicelinestimulus0.png,TMTstop-A_1_practicegreenlinestimulus0.png,TMTstop-A_1_practiceredlinestimulus0.png,10,0,2,2,2,,,,,,,,,,,17.05220740000368,None,3,4.782330100002582,17.05220740000368,None,,,,,,,,,001,2021_Nov_15_1316,TMTAB,2021.2.3,144.33992629394413,
4,['1'],TMTstop-A_1_practicelinestimulus1.png,TMTstop-A_1_practicegreenlinestimulus1.png,TMTstop-A_1_practiceredlinestimulus1.png,10,0,3,3,3,,,,,,,,,,,21.91340620000119,None,1,3.3024886999992304,21.91340620000119,None,,,,,,,,,001,2021_Nov_15_1316,TMTAB,2021.2.3,144.33992629394413,
5,['2'],TMTstop-A_1_practicelinestimulus2.png,TMTstop-A_1_practicegreenlinestimulus2.png,TMTstop-A_1_practiceredlinestimulus2.png,10,0,4,4,4,,,,,,,,,,,25.322795200001565,None,2,1.291089500002272,25.322795200001565,None,,,,,,,,,001,2021_Nov_15_1316,TMTAB,2021.2.3,144.33992629394413,
6,['3'],TMTstop-A_1_practicelinestimulus3.png,TMTstop-A_1_practicegreenlinestimulus3.png,TMTstop-A_1_practiceredlinestimulus3.png,10,0,5,5,5,,,,,,,,,,,26.712565800000448,None,3,1.3118928000039887,26.712565800000448,None,,,,,,,,,001,2021_Nov_15_1316,TMTAB,2021.2.3,144.33992629394413,
7,['1'],TMTstop-A_1_practicelinestimulus4.png,TMTstop-A_1_practicegreenlinestimulus4.png,TMTstop-A_1_practiceredlinestimulus4.png,10,0,6,6,6,,,,,,,,,,,28.107762500003446,None,1,0.8900768000021344,28.107762500003446,None,,,,,,,,,001,2021_Nov_15_1316,TMTAB,2021.2.3,144.33992629394413,
8,['3'],TMTstop-A_1_practicelinestimulus5.png,TMTstop-A_1_practicegreenlinestimulus5.png,TMTstop-A_1_practiceredlinestimulus5.png,10,0,7,7,7,,,,,,,,,,,29.080419700003404,None,3,1.9483737999980804,29.080419700003404,None,,,,,,,,,001,2021_Nov_15_1316,TMTAB,2021.2.3,144.33992629394413,
9,['2'],TMTstop-A_1_practicelinestimulus6.png,TMTstop-A_1_practicegreenlinestimulus6.png,TMTstop-A_1_practiceredlinestimulus6.png,10,0,8,8,8,,,,,,,,,,,31.107634799998777,None,2,0.6552781999998842,31.107634799998777,None,,,,,,,,,001,2021_Nov_15_1316,TMTAB,2021.2.3,144.33992629394413,
10,['3'],TMTstop-A_1_practicelinestimulus7.png,TMTstop-A_1_practicegreenlinestimulus7.png,TMTstop-A_1_practiceredlinestimulus7.png,10,0,9,9,9,,,,,,,,,,,31.836678200001188,None,3,1.0055674999966868,31.836678200001188,None,,,,,,,,,001,2021_Nov_15_1316,TMTAB,2021.2.3,144.33992629394413,
11,['1'],TMTstop-A_1_practicelinestimulus8.png,TMTstop-A_1_practicegreenlinestimulus8.png,TMTstop-A_1_practiceredlinestimulus8.png,10,0,10,10,10,,,,,,,,,,,32.913059300000896,None,1,0.5710870999973849,32.913059300000896,None,,,,,,,,,001,2021_Nov_15_1316,TMTAB,2021.2.3,144.33992629394413,
12,['2'],TMTstop-A_1_practicelinestimulus9.png,TMTstop-A_1_practicegreenlinestimulus9.png,TMTstop-A_1_practiceredlinestimulus9.png,10,0,11,11,11,,,,,,,,,,,33.559027700001025,None,2,1.8174273999975412,33.559027700001025,None,,,,,,,,,001,2021_Nov_15_1316,TMTAB,2021.2.3,144.33992629394413,
1,['2'],TMTstop-A_1_1.png,TMTstop-A_1_1.png,TMTstop-A_1_1.png,10,,,,,0,0,0,0,,,,,35.403167100004794,None,,,,,,,38.44222499999887,None,['2'],1,[1.411387600004673],38.44222499999887,None,,001,2021_Nov_15_1316,TMTAB,2021.2.3,144.33992629394413,
2,['1'],TMTstop-A_1_1.png,TMTstop-A_1_1firstgreen.png,TMTstop-A_1_1firstred.png,10,,,,,0,1,1,1,,,,,,,,,,,,,39.92661500000395,None,['1'],1,[0.1093445000005886],39.92661500000395,None,,001,2021_Nov_15_1316,TMTAB,2021.2.3,144.33992629394413,
3,['2'],TMTstop-A_1_1linestimulus0.png,TMTstop-A_1_1greenlinestimulus0.png,TMTstop-A_1_1redlinestimulus0.png,10,,,,,0,2,2,2,,,,,,,,,,,,,40.10037040000316,None,['2'],1,[0.077385199998389],40.10037040000316,None,,001,2021_Nov_15_1316,TMTAB,2021.2.3,144.33992629394413,
4,['3'],TMTstop-A_1_1linestimulus1.png,TMTstop-A_1_1greenlinestimulus1.png,TMTstop-A_1_1redlinestimulus1.png,10,,,,,0,3,3,3,,,,,,,,,,,,,40.24612280000292,None,['3'],1,[-0.035219499994127546],40.24612280000292,None,,001,2021_Nov_15_1316,TMTAB,2021.2.3,144.33992629394413,
5,['2'],TMTstop-A_1_1linestimulus2.png,TMTstop-A_1_1greenlinestimulus2.png,TMTstop-A_1_1redlinestimulus2.png,10,,,,,0,4,4,4,,,,,,,,,,,,,40.322328900001594,None,"['1', '2']",1,"[0.016047700002673082, 0.11615429999801563]",40.322328900001594,None,,001,2021_Nov_15_1316,TMTAB,2021.2.3,144.33992629394413,
6,['3'],TMTstop-A_1_1linestimulus3.png,TMTstop-A_1_1greenlinestimulus3.png,TMTstop-A_1_1redlinestimulus3.png,10,,,,,0,5,5,5,,,,,,,,,,,,,40.52427529999841,None,['3'],1,[0.016247300001850817],40.52427529999841,None,,001,2021_Nov_15_1316,TMTAB,2021.2.3,144.33992629394413,
7,['2'],TMTstop-A_1_1linestimulus4.png,TMTstop-A_1_1greenlinestimulus4.png,TMTstop-A_1_1redlinestimulus4.png,10,,,,,0,6,6,6,,,,,,,,,,,,,40.62109659999987,None,"['1', '2']",1,"[0.047089100000448525, 0.17557700000179466]",40.62109659999987,None,,001,2021_Nov_15_1316,TMTAB,2021.2.3,144.33992629394413,
8,['1'],TMTstop-A_1_1linestimulus5.png,TMTstop-A_1_1greenlinestimulus5.png,TMTstop-A_1_1redlinestimulus5.png,10,,,,,0,7,7,7,,,,,,,,,,,,,40.87120539999887,None,"['3', '1']",1,"[0.014734599993971642, 0.14950089999911143]",40.87120539999887,None,,001,2021_Nov_15_1316,TMTAB,2021.2.3,144.33992629394413,
9,['2'],TMTstop-A_1_1linestimulus6.png,TMTstop-A_1_1greenlinestimulus6.png,TMTstop-A_1_1redlinestimulus6.png,10,,,,,0,8,8,8,,,,,,,,,,,,,41.12831179999921,None,['2'],1,[0.01586930000485154],41.12831179999921,None,,001,2021_Nov_15_1316,TMTAB,2021.2.3,144.33992629394413,
10,['1'],TMTstop-A_1_1linestimulus7.png,TMTstop-A_1_1greenlinestimulus7.png,TMTstop-A_1_1redlinestimulus7.png,10,,,,,0,9,9,9,,,,,,,,,,,,,41.22557950000191,None,"['3', '1']",1,"[0.027123100000608247, 0.22876280000491533]",41.22557950000191,None,,001,2021_Nov_15_1316,TMTAB,2021.2.3,144.33992629394413,
11,['2'],TMTstop-A_1_1linestimulus8.png,TMTstop-A_1_1greenlinestimulus8.png,TMTstop-A_1_1redlinestimulus8.png,10,,,,,0,10,10,10,,,,,,,,,,,,,41.52401690000261,None,['2'],1,[0.026518899998336565],41.52401690000261,None,,001,2021_Nov_15_1316,TMTAB,2021.2.3,144.33992629394413,
12,['3'],TMTstop-A_1_1linestimulus9.png,TMTstop-A_1_1greenlinestimulus9.png,TMTstop-A_1_1redlinestimulus9.png,10,,,,,0,11,11,11,,,,,,,,,,,,,41.62136090000422,None,['3'],1,[0.06386750000092434],41.62136090000422,None,,001,2021_Nov_15_1316,TMTAB,2021.2.3,144.33992629394413,
13,['2'],TMTstop-A_1_1linestimulus10.png,TMTstop-A_1_1greenlinestimulus10.png,TMTstop-A_1_1redlinestimulus10.png,1,,,,,0,12,12,12,,,,,,,,,,,,,41.760174100003496,None,"['1', '2']",1,"[0.06540469999890774, 0.1743032000013045]",41.760174100003496,None,,001,2021_Nov_15_1316,TMTAB,2021.2.3,144.33992629394413,
14,['3'],TMTstop-A_1_1linestimulus11.png,TMTstop-A_1_1greenlinestimulus11.png,TMTstop-A_1_1redlinestimulus11.png,None,,,,,0,13,13,13,,,,,,,,,,,,,42.037909200000286,None,['3'],1,[0.020464200002606958],42.037909200000286,None,,001,2021_Nov_15_1316,TMTAB,2021.2.3,144.33992629394413,
15,['1'],TMTstop-A_1_1linestimulus12.png,TMTstop-A_1_1greenlinestimulus12.png,TMTstop-A_1_1redlinestimulus12.png,None,,,,,0,14,14,14,,,,,,,,,,,,,42.13513529999909,None,['1'],1,[0.0660550000029616],42.13513529999909,None,,001,2021_Nov_15_1316,TMTAB,2021.2.3,144.33992629394413,
16,['3'],TMTstop-A_1_1linestimulus13.png,TMTstop-A_1_1greenlinestimulus13.png,TMTstop-A_1_1redlinestimulus13.png,None,,,,,0,15,15,15,,,,,,,,,,,,,42.274001900004805,None,"['2', '3']",1,"[0.03275530000246363, 0.13371580000239192]",42.274001900004805,None,,001,2021_Nov_15_1316,TMTAB,2021.2.3,144.33992629394413,
17,['2'],TMTstop-A_1_1linestimulus14.png,TMTstop-A_1_1greenlinestimulus14.png,TMTstop-A_1_1redlinestimulus14.png,None,,,,,0,16,16,16,,,,,,,,,,,,,42.50997810000263,None,"['1', '2']",1,"[0.19344139999884646, 0.30730839999887394]",42.50997810000263,None,,001,2021_Nov_15_1316,TMTAB,2021.2.3,144.33992629394413,
18,['3'],TMTstop-A_1_1linestimulus15.png,TMTstop-A_1_1greenlinestimulus15.png,TMTstop-A_1_1redlinestimulus15.png,None,,,,,0,17,17,17,,,,,,,,,,,,,42.89234550000401,None,['3'],1,[0.042603100002452265],42.89234550000401,None,,001,2021_Nov_15_1316,TMTAB,2021.2.3,144.33992629394413,
19,['1'],TMTstop-A_1_1linestimulus16.png,TMTstop-A_1_1greenlinestimulus16.png,TMTstop-A_1_1redlinestimulus16.png,None,,,,,0,18,18,18,,,,,,,,,,,,,43.017254200000025,None,['1'],1,[0.36499239999830024],43.017254200000025,None,,001,2021_Nov_15_1316,TMTAB,2021.2.3,144.33992629394413,
20,['3'],TMTstop-A_1_1linestimulus17.png,TMTstop-A_1_1greenlinestimulus17.png,TMTstop-A_1_1redlinestimulus17.png,None,,,,,0,19,19,19,,,,,,,,,,,,,43.46836620000249,None,"['2', '3']",1,"[0.04581019999750424, 0.19162159999541473]",43.46836620000249,None,,001,2021_Nov_15_1316,TMTAB,2021.2.3,144.33992629394413,
21,['1'],TMTstop-A_1_1linestimulus18.png,TMTstop-A_1_1greenlinestimulus18.png,TMTstop-A_1_1redlinestimulus18.png,None,,,,,0,20,20,20,,,,,,,,,,,,,43.76698649999889,None,['1'],1,[0.1846577000032994],43.76698649999889,None,,001,2021_Nov_15_1316,TMTAB,2021.2.3,144.33992629394413,
22,['3'],TMTstop-A_1_1linestimulus19.png,TMTstop-A_1_1greenlinestimulus19.png,TMTstop-A_1_1redlinestimulus19.png,None,,,,,0,21,21,21,,,,,,,,,,,,,44.03804880000098,None,['3'],1,[0.6100723999988986],44.03804880000098,None,,001,2021_Nov_15_1316,TMTAB,2021.2.3,144.33992629394413,
23,['1'],TMTstop-A_1_1linestimulus20.png,TMTstop-A_1_1greenlinestimulus20.png,TMTstop-A_1_1redlinestimulus20.png,None,,,,,0,22,22,22,,,,,,,,,,,,,44.725121900002705,None,"['2', '1']",1,"[0.37281349999830127, 0.7394692000016221]",44.725121900002705,None,,001,2021_Nov_15_1316,TMTAB,2021.2.3,144.33992629394413,
24,['2'],TMTstop-A_1_1linestimulus21.png,TMTstop-A_1_1greenlinestimulus21.png,TMTstop-A_1_1redlinestimulus21.png,None,,,,,0,23,23,23,,,,,,,,,,,,,45.55177240000194,None,['2'],1,[0.33473139999841806],45.55177240000194,None,,001,2021_Nov_15_1316,TMTAB,2021.2.3,144.33992629394413,
25,['3'],TMTstop-A_1_1linestimulus22.png,TMTstop-A_1_1greenlinestimulus22.png,TMTstop-A_1_1redlinestimulus22.png,None,,,,,0,24,24,24,,,,,,,,,,,,,45.96153150000464,None,['3'],1,[0.7547431000057259],45.96153150000464,None,,001,2021_Nov_15_1316,TMTAB,2021.2.3,144.33992629394413,
None,None,TMTstop-A_1_1linestimulus23.png,TMTstop-A_1_1greenlinestimulus23.png,TMTstop-A_1_1redlinestimulus23.png,None,,,,,0,25,25,25,,,,,,,,,,,,,46.78779320000467,None,None,1,,46.78779320000467,None,,001,2021_Nov_15_1316,TMTAB,2021.2.3,144.33992629394413,
