NumberLetter,corrAns,StimFile,Correct_StimFile,False_StimFile,DurationTrial,restartpractice.thisRepN,restartpractice.thisTrialN,restartpractice.thisN,restartpractice.thisIndex,trials_practice.thisRepN,trials_practice.thisTrialN,trials_practice.thisN,trials_practice.thisIndex,trials.thisRepN,trials.thisTrialN,trials.thisN,trials.thisIndex,trials_2.thisRepN,trials_2.thisTrialN,trials_2.thisN,trials_2.thisIndex,trials_3.thisRepN,trials_3.thisTrialN,trials_3.thisN,trials_3.thisIndex,Instruct.started,Instruct.stopped,image_2.started,image_2.stopped,key_resp_6.keys,key_resp_6.rt,key_resp_6.started,key_resp_6.stopped,polygon.started,polygon.stopped,Stim_practice.started,Stim_practice.stopped,key_resp_practice.keys,key_resp_practice.corr,key_resp_practice.rt,key_resp_practice.started,key_resp_practice.stopped,text_5.started,text_5.stopped,key_resp_5.keys,key_resp_5.rt,key_resp_5.started,key_resp_5.stopped,Stim.started,Stim.stopped,key_resp_2.keys,key_resp_2.corr,key_resp_2.rt,key_resp_2.started,key_resp_2.stopped,participant,session,date,expName,psychopyVersion,frameRate,
,,,,,,,,,,,,,,,,,,,,,,,,,,6.087510900004418,None,6.615408800003934,None,1,0.032906199994613416,6.615408800003934,None,,,,,,,,,,,,,,,,,,,,,,,,001,2021_Nov_17_1555,TMTAB,2021.2.3,144.13500261663233,
1,1,TMT-A_1_practice.png,TMT-A_1_practice.png,TMT-A_1_practice.png,10,0,0,0,0,0,0,0,0,,,,,,,,,,,,,,,,,,,,,6.665648300011526,None,9.742819400009466,None,1,1,2.4776835000084247,9.742819400009466,None,,,,,,,,,,,,,,,001,2021_Nov_17_1555,TMTAB,2021.2.3,144.13500261663233,
2,2,TMT-A_1_practice.png,TMT-A_1_practicefirstgreen.png,TMT-A_1_practicefirstred.png,10,0,0,0,0,0,1,1,1,,,,,,,,,,,,,,,,,,,,,,,12.290732200010098,None,3,0,0.13667000000714324,12.290732200010098,None,,,,,,,,,,,,,,,001,2021_Nov_17_1555,TMTAB,2021.2.3,144.13500261663233,
3,3,TMT-A_1_practicelinestimulus0.png,TMT-A_1_practicegreenlinestimulus0.png,TMT-A_1_practiceredlinestimulus0.png,10,0,0,0,0,0,2,2,2,,,,,,,,,,,,,,,,,,,,,,,12.498741900009918,None,1,0,0.09170720000111032,12.498741900009918,None,,,,,,,,,,,,,,,001,2021_Nov_17_1555,TMTAB,2021.2.3,144.13500261663233,
4,1,TMT-A_1_practicelinestimulus1.png,TMT-A_1_practicegreenlinestimulus1.png,TMT-A_1_practiceredlinestimulus1.png,10,0,0,0,0,0,3,3,3,,,,,,,,,,,,,,,,,,,,,,,12.665344300010474,None,2,0,0.10388050001347438,12.665344300010474,None,,,,,,,,,,,,,,,001,2021_Nov_17_1555,TMTAB,2021.2.3,144.13500261663233,
5,2,TMT-A_1_practicelinestimulus2.png,TMT-A_1_practicegreenlinestimulus2.png,TMT-A_1_practiceredlinestimulus2.png,10,0,0,0,0,0,4,4,4,,,,,,,,,,,,,,,,,,,,,,,12.83907580000232,None,1,0,0.16293510000105016,12.83907580000232,None,,,,,,,,,,,,,,,001,2021_Nov_17_1555,TMTAB,2021.2.3,144.13500261663233,
6,3,TMT-A_1_practicelinestimulus3.png,TMT-A_1_practicegreenlinestimulus3.png,TMT-A_1_practiceredlinestimulus3.png,10,0,0,0,0,0,5,5,5,,,,,,,,,,,,,,,,,,,,,,,13.075663299998268,None,3,1,0.07790530000056606,13.075663299998268,None,,,,,,,,,,,,,,,001,2021_Nov_17_1555,TMTAB,2021.2.3,144.13500261663233,
7,1,TMT-A_1_practicelinestimulus4.png,TMT-A_1_practicegreenlinestimulus4.png,TMT-A_1_practiceredlinestimulus4.png,10,0,0,0,0,0,6,6,6,,,,,,,,,,,,,,,,,,,,,,,13.228243800011114,None,1,1,0.05009389999031555,13.228243800011114,None,,,,,,,,,,,,,,,001,2021_Nov_17_1555,TMTAB,2021.2.3,144.13500261663233,
8,3,TMT-A_1_practicelinestimulus5.png,TMT-A_1_practicegreenlinestimulus5.png,TMT-A_1_practiceredlinestimulus5.png,10,0,0,0,0,0,7,7,7,,,,,,,,,,,,,,,,,,,,,,,13.352989400009392,None,3,1,0.08386319999408443,13.352989400009392,None,,,,,,,,,,,,,,,001,2021_Nov_17_1555,TMTAB,2021.2.3,144.13500261663233,
9,2,TMT-A_1_practicelinestimulus6.png,TMT-A_1_practicegreenlinestimulus6.png,TMT-A_1_practiceredlinestimulus6.png,10,0,0,0,0,0,8,8,8,,,,,,,,,,,,,,,,,,,,,,,13.512770800007274,None,1,0,0.05210369999986142,13.512770800007274,None,,,,,,,,,,,,,,,001,2021_Nov_17_1555,TMTAB,2021.2.3,144.13500261663233,
10,3,TMT-A_1_practicelinestimulus7.png,TMT-A_1_practicegreenlinestimulus7.png,TMT-A_1_practiceredlinestimulus7.png,10,0,0,0,0,0,9,9,9,,,,,,,,,,,,,,,,,,,,,,,13.64480840000033,None,3,1,0.10406050000165123,13.64480840000033,None,,,,,,,,,,,,,,,001,2021_Nov_17_1555,TMTAB,2021.2.3,144.13500261663233,
11,1,TMT-A_1_practicelinestimulus8.png,TMT-A_1_practicegreenlinestimulus8.png,TMT-A_1_practiceredlinestimulus8.png,10,0,0,0,0,0,10,10,10,,,,,,,,,,,,,,,,,,,,,,,13.825196700010565,None,1,1,0.03677170000446495,13.825196700010565,None,,,,,,,,,,,,,,,001,2021_Nov_17_1555,TMTAB,2021.2.3,144.13500261663233,
12,2,TMT-A_1_practicelinestimulus9.png,TMT-A_1_practicegreenlinestimulus9.png,TMT-A_1_practiceredlinestimulus9.png,10,0,0,0,0,0,11,11,11,,,,,,,,,,,,,,,,,,,,,,,13.936258100002306,None,2,1,0.0018491000082576647,13.936258100002306,None,,,,,,,,,,,,,,,001,2021_Nov_17_1555,TMTAB,2021.2.3,144.13500261663233,
None,None,TMT-A_1_practicelinestimulus10.png,TMT-A_1_practicegreenlinestimulus10.png,TMT-A_1_practiceredlinestimulus10.png,None,0,0,0,0,0,12,12,12,,,,,,,,,,,,,,,,,,,,,,,14.012558200003696,None,3,0,0.020898599992506206,14.012558200003696,None,,,,,,,,,,,,,,,001,2021_Nov_17_1555,TMTAB,2021.2.3,144.13500261663233,
,,,,,,0,0,0,0,,,,,,,,,,,,,,,,,,,,,,,,,,,,,,,,,,14.08673280000221,None,1,4.456343800004106,14.08673280000221,None,,,,,,,,,001,2021_Nov_17_1555,TMTAB,2021.2.3,144.13500261663233,
1,3,TMT-A_1_1.png,TMT-A_1_1.png,TMT-A_1_1.png,,,,,,,,,,0,0,0,0,,,,,,,,,,,,,,,,,18.565453300005174,None,,,,,,,,,,,,,,21.623680800010334,None,['1'],0,[25.801086799998302],21.623680800010334,None,,001,2021_Nov_17_1555,TMTAB,2021.2.3,144.13500261663233,
2,['1'],TMT-A_1_1.png,TMT-A_1_1firstgreen.png,TMT-A_1_1firstred.png,,,,,,,,,,0,1,1,1,,,,,,,,,,,,,,,,,,,,,,,,,,,,,,,,47.51839140000811,None,['2'],0,[-0.03665039999759756],47.51839140000811,None,,001,2021_Nov_17_1555,TMTAB,2021.2.3,144.13500261663233,
3,2,TMT-A_1_1linestimulus0.png,TMT-A_1_1greenlinestimulus0.png,TMT-A_1_1redlinestimulus0.png,,,,,,,,,,0,2,2,2,,,,,,,,,,,,,,,,,,,,,,,,,,,,,,,,47.60167580000416,None,['1'],0,[0.47917799999413546],47.60167580000416,None,,001,2021_Nov_17_1555,TMTAB,2021.2.3,144.13500261663233,
4,3,TMT-A_1_1linestimulus1.png,TMT-A_1_1greenlinestimulus1.png,TMT-A_1_1redlinestimulus1.png,,,,,,,,,,0,3,3,3,,,,,,,,,,,,,,,,,,,,,,,,,,,,,,,,48.150945300003514,None,['2'],0,[-0.009136100008618087],48.150945300003514,None,,001,2021_Nov_17_1555,TMTAB,2021.2.3,144.13500261663233,
5,2,TMT-A_1_1linestimulus2.png,TMT-A_1_1greenlinestimulus2.png,TMT-A_1_1redlinestimulus2.png,,,,,,,,,,0,4,4,4,,,,,,,,,,,,,,,,,,,,,,,,,,,,,,,,48.22137630000361,None,['3'],0,[1.4634311000118032],48.22137630000361,None,,001,2021_Nov_17_1555,TMTAB,2021.2.3,144.13500261663233,
6,['1'],TMT-A_1_1linestimulus3.png,TMT-A_1_1greenlinestimulus3.png,TMT-A_1_1redlinestimulus3.png,,,,,,,,,,0,5,5,5,,,,,,,,,,,,,,,,,,,,,,,,,,,,,,,,49.75499490000948,None,['2'],0,[0.4066464000061387],49.75499490000948,None,,001,2021_Nov_17_1555,TMTAB,2021.2.3,144.13500261663233,
7,3,TMT-A_1_1linestimulus4.png,TMT-A_1_1greenlinestimulus4.png,TMT-A_1_1redlinestimulus4.png,,,,,,,,,,0,6,6,6,,,,,,,,,,,,,,,,,,,,,,,,,,,,,,,,50.24086650001118,None,['1'],0,[1.4085185000003548],50.24086650001118,None,,001,2021_Nov_17_1555,TMTAB,2021.2.3,144.13500261663233,
8,['1'],TMT-A_1_1linestimulus5.png,TMT-A_1_1greenlinestimulus5.png,TMT-A_1_1redlinestimulus5.png,,,,,,,,,,0,7,7,7,,,,,,,,,,,,,,,,,,,,,,,,,,,,,,,,51.72707620001165,None,['2'],0,[0.410476999997627],51.72707620001165,None,,001,2021_Nov_17_1555,TMTAB,2021.2.3,144.13500261663233,
9,3,TMT-A_1_1linestimulus6.png,TMT-A_1_1greenlinestimulus6.png,TMT-A_1_1redlinestimulus6.png,,,,,,,,,,0,8,8,8,,,,,,,,,,,,,,,,,,,,,,,,,,,,,,,,52.20611920001102,None,['3'],0,[0.39647570000670385],52.20611920001102,None,,001,2021_Nov_17_1555,TMTAB,2021.2.3,144.13500261663233,
10,['1'],TMT-A_1_1linestimulus7.png,TMT-A_1_1greenlinestimulus7.png,TMT-A_1_1redlinestimulus7.png,,,,,,,,,,0,9,9,9,,,,,,,,,,,,,,,,,,,,,,,,,,,,,,,,52.67937110000639,None,['2'],0,[0.8213996999984374],52.67937110000639,None,,001,2021_Nov_17_1555,TMTAB,2021.2.3,144.13500261663233,
11,2,TMT-A_1_1linestimulus8.png,TMT-A_1_1greenlinestimulus8.png,TMT-A_1_1redlinestimulus8.png,,,,,,,,,,0,10,10,10,,,,,,,,,,,,,,,,,,,,,,,,,,,,,,,,53.581133900006535,None,['3'],0,[1.776890100009041],53.581133900006535,None,,001,2021_Nov_17_1555,TMTAB,2021.2.3,144.13500261663233,
12,['1'],TMT-A_1_1linestimulus9.png,TMT-A_1_1greenlinestimulus9.png,TMT-A_1_1redlinestimulus9.png,,,,,,,,,,0,11,11,11,,,,,,,,,,,,,,,,,,,,,,,,,,,,,,,,55.435979300003964,None,['1'],1,[10.912075400003232],55.435979300003964,None,,001,2021_Nov_17_1555,TMTAB,2021.2.3,144.13500261663233,
None,None,None,TMT-A_1_1greenlinestimulus10.png,TMT-A_1_1redlinestimulus10.png,,,,,,,,,,0,12,12,12,,,,,,,,,,,,,,,,,,,,,,,,,,,,,,,,66.44158740001149,None,None,1,,66.44158740001149,None,,001,2021_Nov_17_1555,TMTAB,2021.2.3,144.13500261663233,
1,2,TMT-A_1_2.png,TMT-A_1_2.png,TMT-A_1_2.png,,,,,,,,,,,,,,0,0,0,0,,,,,,,,,,,,,67.45317990001058,None,,,,,,,,,,,,,,70.50427260001015,None,['2'],0,[0.6158866000041598],70.50427260001015,None,,001,2021_Nov_17_1555,TMTAB,2021.2.3,144.13500261663233,
2,3,TMT-A_1_2.png,TMT-A_1_2firstgreen.png,TMT-A_1_2firstred.png,,,,,,,,,,,,,,0,1,1,1,,,,,,,,,,,,,,,,,,,,,,,,,,,,71.19180770000094,None,['1'],0,[0.2793342000077246],71.19180770000094,None,,001,2021_Nov_17_1555,TMTAB,2021.2.3,144.13500261663233,
3,1,TMT-A_1_2linestimulus0.png,TMT-A_1_2greenlinestimulus0.png,TMT-A_1_2redlinestimulus0.png,,,,,,,,,,,,,,0,2,2,2,,,,,,,,,,,,,,,,,,,,,,,,,,,,71.5390810000099,None,['3'],0,[0.15246479999041185],71.5390810000099,None,,001,2021_Nov_17_1555,TMTAB,2021.2.3,144.13500261663233,
4,2,TMT-A_1_2linestimulus1.png,TMT-A_1_2greenlinestimulus1.png,TMT-A_1_2redlinestimulus1.png,,,,,,,,,,,,,,0,3,3,3,,,,,,,,,,,,,,,,,,,,,,,,,,,,71.76135140001134,None,['1'],0,[0.36303390000830404],71.76135140001134,None,,001,2021_Nov_17_1555,TMTAB,2021.2.3,144.13500261663233,
5,3,TMT-A_1_2linestimulus2.png,TMT-A_1_2greenlinestimulus2.png,TMT-A_1_2redlinestimulus2.png,,,,,,,,,,,,,,0,4,4,4,,,,,,,,,,,,,,,,,,,,,,,,,,,,72.19878050000989,None,['3'],0,[40.391269599989755],72.19878050000989,None,,001,2021_Nov_17_1555,TMTAB,2021.2.3,144.13500261663233,
6,1,TMT-A_1_2linestimulus3.png,TMT-A_1_2greenlinestimulus3.png,TMT-A_1_2redlinestimulus3.png,,,,,,,,,,,,,,0,5,5,5,,,,,,,,,,,,,,,,,,,,,,,,,,,,112.68490980000934,None,None,0,,112.68490980000934,None,,001,2021_Nov_17_1555,TMTAB,2021.2.3,144.13500261663233,
7,3,TMT-A_1_2linestimulus4.png,TMT-A_1_2greenlinestimulus4.png,TMT-A_1_2redlinestimulus4.png,,,,,,,,,,,,,,0,6,6,6,,,,,,,,,,,,,,,,,,,,,,,,,,,,201.68919512000429,None,None,0,,201.68919512000429,None,,001,2021_Nov_17_1555,TMTAB,2021.2.3,144.13500261663233,
8,2,TMT-A_1_2linestimulus5.png,TMT-A_1_2greenlinestimulus5.png,TMT-A_1_2redlinestimulus5.png,,,,,,,,,,,,,,0,7,7,7,,,,,,,,,,,,,,,,,,,,,,,,,,,,201.7520729000098,None,None,0,,201.7520729000098,None,,001,2021_Nov_17_1555,TMTAB,2021.2.3,144.13500261663233,
9,3,TMT-A_1_2linestimulus6.png,TMT-A_1_2greenlinestimulus6.png,TMT-A_1_2redlinestimulus6.png,,,,,,,,,,,,,,0,8,8,8,,,,,,,,,,,,,,,,,,,,,,,,,,,,201.82892352001653,None,None,0,,201.82892352001653,None,,001,2021_Nov_17_1555,TMTAB,2021.2.3,144.13500261663233,
10,2,TMT-A_1_2linestimulus7.png,TMT-A_1_2greenlinestimulus7.png,TMT-A_1_2redlinestimulus7.png,,,,,,,,,,,,,,0,9,9,9,,,,,,,,,,,,,,,,,,,,,,,,,,,,201.89878772002265,None,None,0,,201.89878772002265,None,,001,2021_Nov_17_1555,TMTAB,2021.2.3,144.13500261663233,
11,1,TMT-A_1_2linestimulus8.png,TMT-A_1_2greenlinestimulus8.png,TMT-A_1_2redlinestimulus8.png,,,,,,,,,,,,,,0,10,10,10,,,,,,,,,,,,,,,,,,,,,,,,,,,,201.96865192002878,None,None,0,,201.96865192002878,None,,001,2021_Nov_17_1555,TMTAB,2021.2.3,144.13500261663233,
12,3,TMT-A_1_2linestimulus9.png,TMT-A_1_2greenlinestimulus9.png,TMT-A_1_2redlinestimulus9.png,,,,,,,,,,,,,,0,11,11,11,,,,,,,,,,,,,,,,,,,,,,,,,,,,202.0455025400355,None,None,0,,202.0455025400355,None,,001,2021_Nov_17_1555,TMTAB,2021.2.3,144.13500261663233,
None,None,None,TMT-A_1_2greenlinestimulus10.png,TMT-A_1_2redlinestimulus10.png,,,,,,,,,,,,,,0,12,12,12,,,,,,,,,,,,,,,,,,,,,,,,,,,,202.12235316004225,None,None,1,,202.12235316004225,None,,001,2021_Nov_17_1555,TMTAB,2021.2.3,144.13500261663233,
1,2,TMT-A_1_3.png,TMT-A_1_3.png,TMT-A_1_3.png,,,,,,,,,,,,,,,,,,0,0,0,0,,,,,,,,,202.13639580000017,None,,,,,,,,,,,,,,205.18231056001386,None,None,0,,205.18231056001386,None,,001,2021_Nov_17_1555,TMTAB,2021.2.3,144.13500261663233,
2,3,TMT-A_1_3.png,TMT-A_1_3firstgreen.png,TMT-A_1_3firstred.png,,,,,,,,,,,,,,,,,,0,1,1,1,,,,,,,,,,,,,,,,,,,,,,,,205.23820192001875,None,None,0,,205.23820192001875,None,,001,2021_Nov_17_1555,TMTAB,2021.2.3,144.13500261663233,
3,1,TMT-A_1_3linestimulus0.png,TMT-A_1_3greenlinestimulus0.png,TMT-A_1_3redlinestimulus0.png,,,,,,,,,,,,,,,,,,0,2,2,2,,,,,,,,,,,,,,,,,,,,,,,,205.29409328002365,None,None,0,,205.29409328002365,None,,001,2021_Nov_17_1555,TMTAB,2021.2.3,144.13500261663233,
4,2,TMT-A_1_3linestimulus1.png,TMT-A_1_3greenlinestimulus1.png,TMT-A_1_3redlinestimulus1.png,,,,,,,,,,,,,,,,,,0,3,3,3,,,,,,,,,,,,,,,,,,,,,,,,205.34998464002854,None,None,0,,205.34998464002854,None,,001,2021_Nov_17_1555,TMTAB,2021.2.3,144.13500261663233,
5,3,TMT-A_1_3linestimulus2.png,TMT-A_1_3greenlinestimulus2.png,TMT-A_1_3redlinestimulus2.png,,,,,,,,,,,,,,,,,,0,4,4,4,,,,,,,,,,,,,,,,,,,,,,,,205.40587600003346,None,None,0,,205.40587600003346,None,,001,2021_Nov_17_1555,TMTAB,2021.2.3,144.13500261663233,
6,2,TMT-A_1_3linestimulus3.png,TMT-A_1_3greenlinestimulus3.png,TMT-A_1_3redlinestimulus3.png,,,,,,,,,,,,,,,,,,0,5,5,5,,,,,,,,,,,,,,,,,,,,,,,,205.46176736003835,None,None,0,,205.46176736003835,None,,001,2021_Nov_17_1555,TMTAB,2021.2.3,144.13500261663233,
7,3,TMT-A_1_3linestimulus4.png,TMT-A_1_3greenlinestimulus4.png,TMT-A_1_3redlinestimulus4.png,,,,,,,,,,,,,,,,,,0,6,6,6,,,,,,,,,,,,,,,,,,,,,,,,205.51765872004324,None,None,0,,205.51765872004324,None,,001,2021_Nov_17_1555,TMTAB,2021.2.3,144.13500261663233,
8,1,TMT-A_1_3linestimulus5.png,TMT-A_1_3greenlinestimulus5.png,TMT-A_1_3redlinestimulus5.png,,,,,,,,,,,,,,,,,,0,7,7,7,,,,,,,,,,,,,,,,,,,,,,,,205.58752292004937,None,None,0,,205.58752292004937,None,,001,2021_Nov_17_1555,TMTAB,2021.2.3,144.13500261663233,
9,2,TMT-A_1_3linestimulus6.png,TMT-A_1_3greenlinestimulus6.png,TMT-A_1_3redlinestimulus6.png,,,,,,,,,,,,,,,,,,0,8,8,8,,,,,,,,,,,,,,,,,,,,,,,,205.6643735400561,None,None,0,,205.6643735400561,None,,001,2021_Nov_17_1555,TMTAB,2021.2.3,144.13500261663233,
10,1,TMT-A_1_3linestimulus7.png,TMT-A_1_3greenlinestimulus7.png,TMT-A_1_3redlinestimulus7.png,,,,,,,,,,,,,,,,,,0,9,9,9,,,,,,,,,,,,,,,,,,,,,,,,205.74122416006284,None,None,0,,205.74122416006284,None,,001,2021_Nov_17_1555,TMTAB,2021.2.3,144.13500261663233,
11,3,TMT-A_1_3linestimulus8.png,TMT-A_1_3greenlinestimulus8.png,TMT-A_1_3redlinestimulus8.png,,,,,,,,,,,,,,,,,,0,10,10,10,,,,,,,,,,,,,,,,,,,,,,,,205.81807478006957,None,None,0,,205.81807478006957,None,,001,2021_Nov_17_1555,TMTAB,2021.2.3,144.13500261663233,
12,2,TMT-A_1_3linestimulus9.png,TMT-A_1_3greenlinestimulus9.png,TMT-A_1_3redlinestimulus9.png,,,,,,,,,,,,,,,,,,0,11,11,11,,,,,,,,,,,,,,,,,,,,,,,,205.8879389800757,None,None,0,,205.8879389800757,None,,001,2021_Nov_17_1555,TMTAB,2021.2.3,144.13500261663233,
None,None,None,TMT-A_1_3greenlinestimulus10.png,TMT-A_1_3redlinestimulus10.png,,,,,,,,,,,,,,,,,,0,12,12,12,,,,,,,,,,,,,,,,,,,,,,,,205.96478960008244,None,None,1,,205.96478960008244,None,,001,2021_Nov_17_1555,TMTAB,2021.2.3,144.13500261663233,
,,,,,,,,,,,,,,,,,,,,,,,,,,,,,,,,,,205.9815185000043,None,,,,,,,,,,,,,,,,,,,,,,,,,,,
