NumberLetter,corrAns,StimFile,Correct_StimFile,False_StimFile,DurationTrial,restartpractice.thisRepN,restartpractice.thisTrialN,restartpractice.thisN,restartpractice.thisIndex,trials_practice.thisRepN,trials_practice.thisTrialN,trials_practice.thisN,trials_practice.thisIndex,trials.thisRepN,trials.thisTrialN,trials.thisN,trials.thisIndex,trials_2.thisRepN,trials_2.thisTrialN,trials_2.thisN,trials_2.thisIndex,Instruct.started,Instruct.stopped,image_2.started,image_2.stopped,key_resp_6.keys,key_resp_6.rt,key_resp_6.started,key_resp_6.stopped,polygon.started,polygon.stopped,Stim_practice.started,Stim_practice.stopped,key_resp_practice.keys,key_resp_practice.corr,key_resp_practice.rt,key_resp_practice.started,key_resp_practice.stopped,text_5.started,text_5.stopped,key_resp_5.keys,key_resp_5.rt,key_resp_5.started,key_resp_5.stopped,Stim.started,Stim.stopped,key_resp_2.keys,key_resp_2.corr,key_resp_2.rt,key_resp_2.started,key_resp_2.stopped,participant,session,date,expName,psychopyVersion,frameRate,
,,,,,,,,,,,,,,,,,,,,,,6.143580799995107,None,6.824307499991846,None,2,0.43963300000177696,6.824307499991846,None,,,,,,,,,,,,,,,,,,,,,,,,001,2021_Nov_17_1549,TMTAB,2021.2.3,144.63156557728757,
1,1,TMT-A_1_practice.png,TMT-A_1_practice.png,TMT-A_1_practice.png,10,0,0,0,0,0,0,0,0,,,,,,,,,,,,,,,,,7.283694300000207,None,10.35374910000246,None,1,1,0.5237429999979213,10.35374910000246,None,,,,,,,,,,,,,,,001,2021_Nov_17_1549,TMTAB,2021.2.3,144.63156557728757,
2,2,TMT-A_1_practice.png,TMT-A_1_practicefirstgreen.png,TMT-A_1_practicefirstred.png,10,0,0,0,0,0,1,1,1,,,,,,,,,,,,,,,,,,,10.950668199991924,None,3,0,0.11783019998983946,10.950668199991924,None,,,,,,,,,,,,,,,001,2021_Nov_17_1549,TMTAB,2021.2.3,144.63156557728757,
3,3,TMT-A_1_practicelinestimulus0.png,TMT-A_1_practicegreenlinestimulus0.png,TMT-A_1_practiceredlinestimulus0.png,10,0,0,0,0,0,2,2,2,,,,,,,,,,,,,,,,,,,11.145424399990588,None,1,0,0.09705680000479333,11.145424399990588,None,,,,,,,,,,,,,,,001,2021_Nov_17_1549,TMTAB,2021.2.3,144.63156557728757,
4,1,TMT-A_1_practicelinestimulus1.png,TMT-A_1_practicegreenlinestimulus1.png,TMT-A_1_practiceredlinestimulus1.png,10,0,0,0,0,0,3,3,3,,,,,,,,,,,,,,,,,,,11.31886499999382,None,2,0,0.005634400004055351,11.31886499999382,None,,,,,,,,,,,,,,,001,2021_Nov_17_1549,TMTAB,2021.2.3,144.63156557728757,
5,2,TMT-A_1_practicelinestimulus2.png,TMT-A_1_practicegreenlinestimulus2.png,TMT-A_1_practiceredlinestimulus2.png,10,0,0,0,0,0,4,4,4,,,,,,,,,,,,,,,,,,,11.402118899990455,None,3,0,0.014646499999798834,11.402118899990455,None,,,,,,,,,,,,,,,001,2021_Nov_17_1549,TMTAB,2021.2.3,144.63156557728757,
6,3,TMT-A_1_practicelinestimulus3.png,TMT-A_1_practicegreenlinestimulus3.png,TMT-A_1_practiceredlinestimulus3.png,10,0,0,0,0,0,5,5,5,,,,,,,,,,,,,,,,,,,11.499290599997039,None,2,0,2.2996119000017643,11.499290599997039,None,,,,,,,,,,,,,,,001,2021_Nov_17_1549,TMTAB,2021.2.3,144.63156557728757,
7,1,TMT-A_1_practicelinestimulus4.png,TMT-A_1_practicegreenlinestimulus4.png,TMT-A_1_practiceredlinestimulus4.png,10,0,0,0,0,0,6,6,6,,,,,,,,,,,,,,,,,,,13.874303699994925,None,1,1,0.32278309999674093,13.874303699994925,None,,,,,,,,,,,,,,,001,2021_Nov_17_1549,TMTAB,2021.2.3,144.63156557728757,
8,3,TMT-A_1_practicelinestimulus5.png,TMT-A_1_practicegreenlinestimulus5.png,TMT-A_1_practiceredlinestimulus5.png,10,0,0,0,0,0,7,7,7,,,,,,,,,,,,,,,,,,,14.292105799991987,None,2,0,0.014534099987940863,14.292105799991987,None,,,,,,,,,,,,,,,001,2021_Nov_17_1549,TMTAB,2021.2.3,144.63156557728757,
9,2,TMT-A_1_practicelinestimulus6.png,TMT-A_1_practicegreenlinestimulus6.png,TMT-A_1_practiceredlinestimulus6.png,10,0,0,0,0,0,8,8,8,,,,,,,,,,,,,,,,,,,14.397215499993763,None,1,0,0.18336470000213012,14.397215499993763,None,,,,,,,,,,,,,,,001,2021_Nov_17_1549,TMTAB,2021.2.3,144.63156557728757,
10,3,TMT-A_1_practicelinestimulus7.png,TMT-A_1_practicegreenlinestimulus7.png,TMT-A_1_practiceredlinestimulus7.png,10,0,0,0,0,0,9,9,9,,,,,,,,,,,,,,,,,,,14.659102799996617,None,3,1,0.0868114000040805,14.659102799996617,None,,,,,,,,,,,,,,,001,2021_Nov_17_1549,TMTAB,2021.2.3,144.63156557728757,
11,1,TMT-A_1_practicelinestimulus8.png,TMT-A_1_practicegreenlinestimulus8.png,TMT-A_1_practiceredlinestimulus8.png,10,0,0,0,0,0,10,10,10,,,,,,,,,,,,,,,,,,,14.825708199990913,None,1,1,0.07012980000581592,14.825708199990913,None,,,,,,,,,,,,,,,001,2021_Nov_17_1549,TMTAB,2021.2.3,144.63156557728757,
12,2,TMT-A_1_practicelinestimulus9.png,TMT-A_1_practicegreenlinestimulus9.png,TMT-A_1_practiceredlinestimulus9.png,10,0,0,0,0,0,11,11,11,,,,,,,,,,,,,,,,,,,14.978539699994144,None,3,0,0.08111849999113474,14.978539699994144,None,,,,,,,,,,,,,,,001,2021_Nov_17_1549,TMTAB,2021.2.3,144.63156557728757,
None,None,TMT-A_1_practicelinestimulus10.png,TMT-A_1_practicegreenlinestimulus10.png,TMT-A_1_practiceredlinestimulus10.png,None,0,0,0,0,0,12,12,12,,,,,,,,,,,,,,,,,,,15.131246799996006,None,None,1,,15.131246799996006,None,,,,,,,,,,,,,,,001,2021_Nov_17_1549,TMTAB,2021.2.3,144.63156557728757,
,,,,,,0,0,0,0,,,,,,,,,,,,,,,,,,,,,,,,,,,,,,16.177309499995317,None,2,0.5651727000076789,16.177309499995317,None,,,,,,,,,001,2021_Nov_17_1549,TMTAB,2021.2.3,144.63156557728757,
1,3,TMT-A_1_1.png,TMT-A_1_1.png,TMT-A_1_1.png,,,,,,,,,,0,0,0,0,,,,,,,,,,,,,16.75363729998935,None,,,,,,,,,,,,,,19.811980899990886,None,['1'],0,[0.541324000005261],19.811980899990886,None,,001,2021_Nov_17_1549,TMTAB,2021.2.3,144.63156557728757,
2,1,TMT-A_1_1.png,TMT-A_1_1firstgreen.png,TMT-A_1_1firstred.png,,,,,,,,,,0,1,1,1,,,,,,,,,,,,,,,,,,,,,,,,,,,,20.422622300000512,None,['2'],0,[0.041277700001955964],20.422622300000512,None,,001,2021_Nov_17_1549,TMTAB,2021.2.3,144.63156557728757,
3,2,TMT-A_1_1linestimulus0.png,TMT-A_1_1greenlinestimulus0.png,TMT-A_1_1redlinestimulus0.png,,,,,,,,,,0,2,2,2,,,,,,,,,,,,,,,,,,,,,,,,,,,,20.53521849999379,None,['3'],0,[-0.0036475000088103116],20.53521849999379,None,,001,2021_Nov_17_1549,TMTAB,2021.2.3,144.63156557728757,
4,3,TMT-A_1_1linestimulus1.png,TMT-A_1_1greenlinestimulus1.png,TMT-A_1_1redlinestimulus1.png,,,,,,,,,,0,3,3,3,,,,,,,,,,,,,,,,,,,,,,,,,,,,20.617012100003194,None,['1'],0,[0.06704109998827334],20.617012100003194,None,,001,2021_Nov_17_1549,TMTAB,2021.2.3,144.63156557728757,
5,2,TMT-A_1_1linestimulus2.png,TMT-A_1_1greenlinestimulus2.png,TMT-A_1_1redlinestimulus2.png,,,,,,,,,,0,4,4,4,,,,,,,,,,,,,,,,,,,,,,,,,,,,20.76308340000105,None,['2'],0,[-0.017717999988235533],20.76308340000105,None,,001,2021_Nov_17_1549,TMTAB,2021.2.3,144.63156557728757,
6,1,TMT-A_1_1linestimulus3.png,TMT-A_1_1greenlinestimulus3.png,TMT-A_1_1redlinestimulus3.png,,,,,,,,,,0,5,5,5,,,,,,,,,,,,,,,,,,,,,,,,,,,,20.83262410000316,None,['3'],0,[0.005026400001952425],20.83262410000316,None,,001,2021_Nov_17_1549,TMTAB,2021.2.3,144.63156557728757,
7,3,TMT-A_1_1linestimulus4.png,TMT-A_1_1greenlinestimulus4.png,TMT-A_1_1redlinestimulus4.png,,,,,,,,,,0,6,6,6,,,,,,,,,,,,,,,,,,,,,,,,,,,,20.91575639999064,None,['1'],0,[0.05182520000380464],20.91575639999064,None,,001,2021_Nov_17_1549,TMTAB,2021.2.3,144.63156557728757,
8,1,TMT-A_1_1linestimulus5.png,TMT-A_1_1greenlinestimulus5.png,TMT-A_1_1redlinestimulus5.png,,,,,,,,,,0,7,7,7,,,,,,,,,,,,,,,,,,,,,,,,,,,,21.040810699996655,None,['2'],0,[-0.021681400001398288],21.040810699996655,None,,001,2021_Nov_17_1549,TMTAB,2021.2.3,144.63156557728757,
9,3,TMT-A_1_1linestimulus6.png,TMT-A_1_1greenlinestimulus6.png,TMT-A_1_1redlinestimulus6.png,,,,,,,,,,0,8,8,8,,,,,,,,,,,,,,,,,,,,,,,,,,,,21.11040320000029,None,['3'],0,[0.007397900000796653],21.11040320000029,None,,001,2021_Nov_17_1549,TMTAB,2021.2.3,144.63156557728757,
10,1,TMT-A_1_1linestimulus7.png,TMT-A_1_1greenlinestimulus7.png,TMT-A_1_1redlinestimulus7.png,,,,,,,,,,0,9,9,9,,,,,,,,,,,,,,,,,,,,,,,,,,,,21.19352919999801,None,['1'],0,[0.051733800006331876],21.19352919999801,None,,001,2021_Nov_17_1549,TMTAB,2021.2.3,144.63156557728757,
11,2,TMT-A_1_1linestimulus8.png,TMT-A_1_1greenlinestimulus8.png,TMT-A_1_1redlinestimulus8.png,,,,,,,,,,0,10,10,10,,,,,,,,,,,,,,,,,,,,,,,,,,,,21.32558489999792,None,['2'],0,[-0.02135929999349173],21.32558489999792,None,,001,2021_Nov_17_1549,TMTAB,2021.2.3,144.63156557728757,
12,1,TMT-A_1_1linestimulus9.png,TMT-A_1_1greenlinestimulus9.png,TMT-A_1_1redlinestimulus9.png,,,,,,,,,,0,11,11,11,,,,,,,,,,,,,,,,,,,,,,,,,,,,21.403194400001667,None,['3'],0,[0.0052164999942760915],21.403194400001667,None,,001,2021_Nov_17_1549,TMTAB,2021.2.3,144.63156557728757,
None,None,None,TMT-A_1_1greenlinestimulus10.png,TMT-A_1_1redlinestimulus10.png,,,,,,,,,,0,12,12,12,,,,,,,,,,,,,,,,,,,,,,,,,,,,21.48552109999582,None,['1'],0,[0.05495090001204517],21.48552109999582,None,,001,2021_Nov_17_1549,TMTAB,2021.2.3,144.63156557728757,
1,2,TMT-A_1_2.png,TMT-A_1_2.png,TMT-A_1_2.png,,,,,,,,,,,,,,0,0,0,0,,,,,,,,,21.558948999998393,None,,,,,,,,,,,,,,24.631994700001087,None,['2'],0,[-3.0127331000112463],24.631994700001087,None,,001,2021_Nov_17_1549,TMTAB,2021.2.3,144.63156557728757,
2,3,TMT-A_1_2.png,TMT-A_1_2firstgreen.png,TMT-A_1_2firstred.png,,,,,,,,,,,,,,0,1,1,1,,,,,,,,,,,,,,,,,,,,,,,,24.71547670000291,None,['1'],0,[0.3675307000085013],24.71547670000291,None,,001,2021_Nov_17_1549,TMTAB,2021.2.3,144.63156557728757,
3,1,TMT-A_1_2linestimulus0.png,TMT-A_1_2greenlinestimulus0.png,TMT-A_1_2redlinestimulus0.png,,,,,,,,,,,,,,0,2,2,2,,,,,,,,,,,,,,,,,,,,,,,,25.151779499996337,None,['2'],0,[0.02170639998803381],25.151779499996337,None,,001,2021_Nov_17_1549,TMTAB,2021.2.3,144.63156557728757,
4,2,TMT-A_1_2linestimulus1.png,TMT-A_1_2greenlinestimulus1.png,TMT-A_1_2redlinestimulus1.png,,,,,,,,,,,,,,0,3,3,3,,,,,,,,,,,,,,,,,,,,,,,,25.249102000001585,None,['3'],0,[0.021521600006963126],25.249102000001585,None,,001,2021_Nov_17_1549,TMTAB,2021.2.3,144.63156557728757,
5,3,TMT-A_1_2linestimulus2.png,TMT-A_1_2greenlinestimulus2.png,TMT-A_1_2redlinestimulus2.png,,,,,,,,,,,,,,0,4,4,4,,,,,,,,,,,,,,,,,,,,,,,,25.34633329999633,None,['1'],0,[0.09693620000325609],25.34633329999633,None,,001,2021_Nov_17_1549,TMTAB,2021.2.3,144.63156557728757,
6,1,TMT-A_1_2linestimulus3.png,TMT-A_1_2greenlinestimulus3.png,TMT-A_1_2redlinestimulus3.png,,,,,,,,,,,,,,0,5,5,5,,,,,,,,,,,,,,,,,,,,,,,,25.512742899998557,None,['2'],0,[-0.008663400003570132],25.512742899998557,None,,001,2021_Nov_17_1549,TMTAB,2021.2.3,144.63156557728757,
7,3,TMT-A_1_2linestimulus4.png,TMT-A_1_2greenlinestimulus4.png,TMT-A_1_2redlinestimulus4.png,,,,,,,,,,,,,,0,6,6,6,,,,,,,,,,,,,,,,,,,,,,,,25.582293300001766,None,['3'],0,[0.02614970000286121],25.582293300001766,None,,001,2021_Nov_17_1549,TMTAB,2021.2.3,144.63156557728757,
