NumberLetter,corrAns,StimFile,Correct_StimFile,False_StimFile,DurationTrial,Correct,restartpractice.thisRepN,restartpractice.thisTrialN,restartpractice.thisN,restartpractice.thisIndex,trials_practice.thisRepN,trials_practice.thisTrialN,trials_practice.thisN,trials_practice.thisIndex,trials.thisRepN,trials.thisTrialN,trials.thisN,trials.thisIndex,trials_2.thisRepN,trials_2.thisTrialN,trials_2.thisN,trials_2.thisIndex,trials_3.thisRepN,trials_3.thisTrialN,trials_3.thisN,trials_3.thisIndex,trials_4.thisRepN,trials_4.thisTrialN,trials_4.thisN,trials_4.thisIndex,trials_5.thisRepN,trials_5.thisTrialN,trials_5.thisN,trials_5.thisIndex,trials_6.thisRepN,trials_6.thisTrialN,trials_6.thisN,trials_6.thisIndex,Instruct.started,Instruct.stopped,image_2.started,image_2.stopped,key_resp_6.keys,key_resp_6.rt,key_resp_6.started,key_resp_6.stopped,polygon.started,polygon.stopped,Stim_practice.started,Stim_practice.stopped,key_resp_practice.keys,key_resp_practice.corr,key_resp_practice.rt,key_resp_practice.started,key_resp_practice.stopped,text_5.started,text_5.stopped,key_resp_5.keys,key_resp_5.rt,key_resp_5.started,key_resp_5.stopped,Stim.started,Stim.stopped,key_resp_2.keys,key_resp_2.corr,key_resp_2.rt,key_resp_2.started,key_resp_2.stopped,text.started,text.stopped,participant,session,date,expName,psychopyVersion,frameRate,
,,,,,,,,,,,,,,,,,,,,,,,,,,,,,,,,,,,,,,,7.551388800144196,None,8.533917600056157,None,1,0.45791819994337857,8.533917600056157,None,,,,,,,,,,,,,,,,,,,,,,,,,,001,2022_Jan_11_0116,TMTAB,2021.2.3,59.88210416368752,
1,2,TMT-A_1_practice.png,TMT-A_1_practice.png,TMT-A_1_practice.png,10,,0,0,0,0,0,0,0,0,,,,,,,,,,,,,,,,,,,,,,,,,,,,,,,,,9.016472900053486,None,12.153441100148484,None,2,1,1.2014327000360936,12.153441100148484,None,,,,,,,,,,,,,,,,,001,2022_Jan_11_0116,TMTAB,2021.2.3,59.88210416368752,
2,3,TMT-A_1_practice.png,TMT-A_1_practicefirstgreen.png,TMT-A_1_practicefirstred.png,10,,0,0,0,0,0,1,1,1,,,,,,,,,,,,,,,,,,,,,,,,,,,,,,,,,,,13.437106300145388,None,3,1,0.15181579999625683,13.437106300145388,None,,,,,,,,,,,,,,,,,001,2022_Jan_11_0116,TMTAB,2021.2.3,59.88210416368752,
3,1,TMT-A_1_practicelinestimulus0.png,TMT-A_1_practicegreenlinestimulus0.png,TMT-A_1_practiceredlinestimulus0.png,10,,0,0,0,0,0,2,2,2,,,,,,,,,,,,,,,,,,,,,,,,,,,,,,,,,,,13.68729650019668,None,1,1,0.11020620004273951,13.68729650019668,None,,,,,,,,,,,,,,,,,001,2022_Jan_11_0116,TMTAB,2021.2.3,59.88210416368752,
4,3,TMT-A_1_practicelinestimulus1.png,TMT-A_1_practicegreenlinestimulus1.png,TMT-A_1_practiceredlinestimulus1.png,10,,0,0,0,0,0,3,3,3,,,,,,,,,,,,,,,,,,,,,,,,,,,,,,,,,,,13.887285100063309,None,3,1,0.09710519993677735,13.887285100063309,None,,,,,,,,,,,,,,,,,001,2022_Jan_11_0116,TMTAB,2021.2.3,59.88210416368752,
5,1,TMT-A_1_practicelinestimulus2.png,TMT-A_1_practicegreenlinestimulus2.png,TMT-A_1_practiceredlinestimulus2.png,10,,0,0,0,0,0,4,4,4,,,,,,,,,,,,,,,,,,,,,,,,,,,,,,,,,,,14.07072259997949,None,1,1,0.06242490001022816,14.07072259997949,None,,,,,,,,,,,,,,,,,001,2022_Jan_11_0116,TMTAB,2021.2.3,59.88210416368752,
6,2,TMT-A_1_practicelinestimulus3.png,TMT-A_1_practicegreenlinestimulus3.png,TMT-A_1_practiceredlinestimulus3.png,10,,0,0,0,0,0,5,5,5,,,,,,,,,,,,,,,,,,,,,,,,,,,,,,,,,,,14.220781600102782,None,3,0,0.07013870007358491,14.220781600102782,None,,,,,,,,,,,,,,,,,001,2022_Jan_11_0116,TMTAB,2021.2.3,59.88210416368752,
7,3,TMT-A_1_practicelinestimulus4.png,TMT-A_1_practicegreenlinestimulus4.png,TMT-A_1_practiceredlinestimulus4.png,10,,0,0,0,0,0,6,6,6,,,,,,,,,,,,,,,,,,,,,,,,,,,,,,,,,,,14.387765699997544,None,1,0,0.04668339993804693,14.387765699997544,None,,,,,,,,,,,,,,,,,001,2022_Jan_11_0116,TMTAB,2021.2.3,59.88210416368752,
8,2,TMT-A_1_practicelinestimulus5.png,TMT-A_1_practicegreenlinestimulus5.png,TMT-A_1_practiceredlinestimulus5.png,10,,0,0,0,0,0,7,7,7,,,,,,,,,,,,,,,,,,,,,,,,,,,,,,,,,,,14.522374900057912,None,3,0,0.07872599991969764,14.522374900057912,None,,,,,,,,,,,,,,,,,001,2022_Jan_11_0116,TMTAB,2021.2.3,59.88210416368752,
9,3,TMT-A_1_practicelinestimulus6.png,TMT-A_1_practicegreenlinestimulus6.png,TMT-A_1_practiceredlinestimulus6.png,10,,0,0,0,0,0,8,8,8,,,,,,,,,,,,,,,,,,,,,,,,,,,,,,,,,,,14.689784800168127,None,1,0,0.06150559987872839,14.689784800168127,None,,,,,,,,,,,,,,,,,001,2022_Jan_11_0116,TMTAB,2021.2.3,59.88210416368752,
10,2,TMT-A_1_practicelinestimulus7.png,TMT-A_1_practicegreenlinestimulus7.png,TMT-A_1_practiceredlinestimulus7.png,10,,0,0,0,0,0,9,9,9,,,,,,,,,,,,,,,,,,,,,,,,,,,,,,,,,,,14.837831899989396,None,3,0,0.08791889995336533,14.837831899989396,None,,,,,,,,,,,,,,,,,001,2022_Jan_11_0116,TMTAB,2021.2.3,59.88210416368752,
11,3,TMT-A_1_practicelinestimulus8.png,TMT-A_1_practicegreenlinestimulus8.png,TMT-A_1_practiceredlinestimulus8.png,10,,0,0,0,0,0,10,10,10,,,,,,,,,,,,,,,,,,,,,,,,,,,,,,,,,,,15.021264600101858,None,1,0,0.11941839987412095,15.021264600101858,None,,,,,,,,,,,,,,,,,001,2022_Jan_11_0116,TMTAB,2021.2.3,59.88210416368752,
12,1,TMT-A_1_practicelinestimulus9.png,TMT-A_1_practicegreenlinestimulus9.png,TMT-A_1_practiceredlinestimulus9.png,10,,0,0,0,0,0,11,11,11,,,,,,,,,,,,,,,,,,,,,,,,,,,,,,,,,,,15.238031900022179,None,3,0,0.08648440008983016,15.238031900022179,None,,,,,,,,,,,,,,,,,001,2022_Jan_11_0116,TMTAB,2021.2.3,59.88210416368752,
None,None,TMT-A_1_practicelinestimulus10.png,TMT-A_1_practicegreenlinestimulus10.png,TMT-A_1_practiceredlinestimulus10.png,None,,0,0,0,0,0,12,12,12,,,,,,,,,,,,,,,,,,,,,,,,,,,,,,,,,,,15.421415700111538,None,1,0,0.09898929996415973,15.421415700111538,None,,,,,,,,,,,,,,,,,001,2022_Jan_11_0116,TMTAB,2021.2.3,59.88210416368752,
,,,,,,,0,0,0,0,,,,,,,,,,,,,,,,,,,,,,,,,,,,,,,,,,,,,,,,,,,,,,15.584837700007483,None,3,0.08450510003603995,15.584837700007483,None,,,,,,,,,,,001,2022_Jan_11_0116,TMTAB,2021.2.3,59.88210416368752,
1,['1'],TMT-A_1_1.png,TMT-A_1_1.png,TMT-A_1_1.png,10,1,,,,,,,,,0,0,0,0,,,,,,,,,,,,,,,,,,,,,,,,,,,,,15.686147700063884,None,,,,,,,,,,,,,,18.822828500065953,None,['1'],1,[4.918799499981105],18.822828500065953,None,,,,001,2022_Jan_11_0116,TMTAB,2021.2.3,59.88210416368752,
2,['3'],TMT-A_1_1.png,TMT-A_1_1firstgreen.png,TMT-A_1_1firstred.png,10,3,,,,,,,,,0,1,1,1,,,,,,,,,,,,,,,,,,,,,,,,,,,,,,,,,,,,,,,,,,,,23.82507860008627,None,['3'],1,[2.1647932999767363],23.82507860008627,None,,,,001,2022_Jan_11_0116,TMTAB,2021.2.3,59.88210416368752,
3,['2'],TMT-A_1_1linestimulus0.png,TMT-A_1_1greenlinestimulus0.png,TMT-A_1_1redlinestimulus0.png,10,2,,,,,,,,,0,2,2,2,,,,,,,,,,,,,,,,,,,,,,,,,,,,,,,,,,,,,,,,,,,,26.07666760007851,None,['2'],1,[0.7904433999210596],26.07666760007851,None,,,,001,2022_Jan_11_0116,TMTAB,2021.2.3,59.88210416368752,
4,['3'],TMT-A_1_1linestimulus1.png,TMT-A_1_1greenlinestimulus1.png,TMT-A_1_1redlinestimulus1.png,10,3,,,,,,,,,0,3,3,3,,,,,,,,,,,,,,,,,,,,,,,,,,,,,,,,,,,,,,,,,,,,26.96000190009363,None,['3'],1,[1.0598850001115352],26.96000190009363,None,,,,001,2022_Jan_11_0116,TMTAB,2021.2.3,59.88210416368752,
5,['2'],TMT-A_1_1linestimulus2.png,TMT-A_1_1greenlinestimulus2.png,TMT-A_1_1redlinestimulus2.png,10,2,,,,,,,,,0,4,4,4,,,,,,,,,,,,,,,,,,,,,,,,,,,,,,,,,,,,,,,,,,,,28.110570600023493,None,['2'],1,[0.7250933002214879],28.110570600023493,None,,,,001,2022_Jan_11_0116,TMTAB,2021.2.3,59.88210416368752,
6,['3'],TMT-A_1_1linestimulus3.png,TMT-A_1_1greenlinestimulus3.png,TMT-A_1_1redlinestimulus3.png,10,3,,,,,,,,,0,5,5,5,,,,,,,,,,,,,,,,,,,,,,,,,,,,,,,,,,,,,,,,,,,,28.927575200097635,None,['3'],1,[0.48824490001425147],28.927575200097635,None,,,,001,2022_Jan_11_0116,TMTAB,2021.2.3,59.88210416368752,
7,['2'],TMT-A_1_1linestimulus4.png,TMT-A_1_1greenlinestimulus4.png,TMT-A_1_1redlinestimulus4.png,10,2,,,,,,,,,0,6,6,6,,,,,,,,,,,,,,,,,,,,,,,,,,,,,,,,,,,,,,,,,,,,29.511022000107914,None,['2'],1,[0.48134649987332523],29.511022000107914,None,,,,001,2022_Jan_11_0116,TMTAB,2021.2.3,59.88210416368752,
8,['3'],TMT-A_1_1linestimulus5.png,TMT-A_1_1greenlinestimulus5.png,TMT-A_1_1redlinestimulus5.png,10,3,,,,,,,,,0,7,7,7,,,,,,,,,,,,,,,,,,,,,,,,,,,,,,,,,,,,,,,,,,,,30.078197700204328,None,['3'],1,[0.5334456998389214],30.078197700204328,None,,,,001,2022_Jan_11_0116,TMTAB,2021.2.3,59.88210416368752,
9,['1'],TMT-A_1_1linestimulus6.png,TMT-A_1_1greenlinestimulus6.png,TMT-A_1_1redlinestimulus6.png,10,1,,,,,,,,,0,8,8,8,,,,,,,,,,,,,,,,,,,,,,,,,,,,,,,,,,,,,,,,,,,,30.711729099974036,None,['1'],1,[1.3740898999385536],30.711729099974036,None,,,,001,2022_Jan_11_0116,TMTAB,2021.2.3,59.88210416368752,
10,['3'],TMT-A_1_1linestimulus7.png,TMT-A_1_1greenlinestimulus7.png,TMT-A_1_1redlinestimulus7.png,10,3,,,,,,,,,0,9,9,9,,,,,,,,,,,,,,,,,,,,,,,,,,,,,,,,,,,,,,,,,,,,32.17916040006094,None,['3'],1,[0.5246123999822885],32.17916040006094,None,,,,001,2022_Jan_11_0116,TMTAB,2021.2.3,59.88210416368752,
11,['2'],TMT-A_1_1linestimulus8.png,TMT-A_1_1greenlinestimulus8.png,TMT-A_1_1redlinestimulus8.png,10,2,,,,,,,,,0,10,10,10,,,,,,,,,,,,,,,,,,,,,,,,,,,,,,,,,,,,,,,,,,,,32.79593120003119,None,['2'],1,[1.240367699880153],32.79593120003119,None,,,,001,2022_Jan_11_0116,TMTAB,2021.2.3,59.88210416368752,
12,['3'],TMT-A_1_1linestimulus9.png,TMT-A_1_1greenlinestimulus9.png,TMT-A_1_1redlinestimulus9.png,10,3,,,,,,,,,0,11,11,11,,,,,,,,,,,,,,,,,,,,,,,,,,,,,,,,,,,,,,,,,,,,34.146655400050804,None,['3'],1,[0.7005149000324309],34.146655400050804,None,,,,001,2022_Jan_11_0116,TMTAB,2021.2.3,59.88210416368752,
13,['2'],TMT-A_1_1linestimulus10.png,TMT-A_1_1greenlinestimulus10.png,TMT-A_1_1redlinestimulus10.png,1,2,,,,,,,,,0,12,12,12,,,,,,,,,,,,,,,,,,,,,,,,,,,,,,,,,,,,,,,,,,,,34.93034930014983,None,['2'],1,[0.6646857000887394],34.93034930014983,None,,,,001,2022_Jan_11_0116,TMTAB,2021.2.3,59.88210416368752,
14,['3'],TMT-A_1_1linestimulus11.png,TMT-A_1_1greenlinestimulus11.png,TMT-A_1_1redlinestimulus11.png,None,3,,,,,,,,,0,13,13,13,,,,,,,,,,,,,,,,,,,,,,,,,,,,,,,,,,,,,,,,,,,,35.69761190004647,None,['3'],1,[0.7437853999435902],35.69761190004647,None,,,,001,2022_Jan_11_0116,TMTAB,2021.2.3,59.88210416368752,
15,['2'],TMT-A_1_1linestimulus12.png,TMT-A_1_1greenlinestimulus12.png,TMT-A_1_1redlinestimulus12.png,None,2,,,,,,,,,0,14,14,14,,,,,,,,,,,,,,,,,,,,,,,,,,,,,,,,,,,,,,,,,,,,36.531014300184324,None,['2'],1,[2.4257201000582427],36.531014300184324,None,,,,001,2022_Jan_11_0116,TMTAB,2021.2.3,59.88210416368752,
16,['3'],TMT-A_1_1linestimulus13.png,TMT-A_1_1greenlinestimulus13.png,TMT-A_1_1redlinestimulus13.png,None,3,,,,,,,,,0,15,15,15,,,,,,,,,,,,,,,,,,,,,,,,,,,,,,,,,,,,,,,,,,,,39.048766100080684,None,['3'],1,[0.6527185998857021],39.048766100080684,None,,,,001,2022_Jan_11_0116,TMTAB,2021.2.3,59.88210416368752,
17,['1'],TMT-A_1_1linestimulus14.png,TMT-A_1_1greenlinestimulus14.png,TMT-A_1_1redlinestimulus14.png,None,1,,,,,,,,,0,16,16,16,,,,,,,,,,,,,,,,,,,,,,,,,,,,,,,,,,,,,,,,,,,,39.799266800051555,None,['1'],1,[0.5545633998699486],39.799266800051555,None,,,,001,2022_Jan_11_0116,TMTAB,2021.2.3,59.88210416368752,
18,['3'],TMT-A_1_1linestimulus15.png,TMT-A_1_1greenlinestimulus15.png,TMT-A_1_1redlinestimulus15.png,None,3,,,,,,,,,0,17,17,17,,,,,,,,,,,,,,,,,,,,,,,,,,,,,,,,,,,,,,,,,,,,40.449852799996734,None,['3'],1,[0.6291662999428809],40.449852799996734,None,,,,001,2022_Jan_11_0116,TMTAB,2021.2.3,59.88210416368752,
19,['2'],TMT-A_1_1linestimulus16.png,TMT-A_1_1greenlinestimulus16.png,TMT-A_1_1redlinestimulus16.png,None,2,,,,,,,,,0,18,18,18,,,,,,,,,,,,,,,,,,,,,,,,,,,,,,,,,,,,,,,,,,,,41.1665992999915,None,['2'],1,[0.7150659000035375],41.1665992999915,None,,,,001,2022_Jan_11_0116,TMTAB,2021.2.3,59.88210416368752,
20,['3'],TMT-A_1_1linestimulus17.png,TMT-A_1_1greenlinestimulus17.png,TMT-A_1_1redlinestimulus17.png,None,3,,,,,,,,,0,19,19,19,,,,,,,,,,,,,,,,,,,,,,,,,,,,,,,,,,,,,,,,,,,,41.968062800122425,None,['3'],1,[1.0032450000289828],41.968062800122425,None,,,,001,2022_Jan_11_0116,TMTAB,2021.2.3,59.88210416368752,
21,['2'],TMT-A_1_1linestimulus18.png,TMT-A_1_1greenlinestimulus18.png,TMT-A_1_1redlinestimulus18.png,None,2,,,,,,,,,0,20,20,20,,,,,,,,,,,,,,,,,,,,,,,,,,,,,,,,,,,,,,,,,,,,43.0674272000324,None,['2'],1,[0.6832919002044946],43.0674272000324,None,,,,001,2022_Jan_11_0116,TMTAB,2021.2.3,59.88210416368752,
22,['3'],TMT-A_1_1linestimulus19.png,TMT-A_1_1greenlinestimulus19.png,TMT-A_1_1redlinestimulus19.png,None,3,,,,,,,,,0,21,21,21,,,,,,,,,,,,,,,,,,,,,,,,,,,,,,,,,,,,,,,,,,,,43.83432280016132,None,['3'],1,[0.7934022999834269],43.83432280016132,None,,,,001,2022_Jan_11_0116,TMTAB,2021.2.3,59.88210416368752,
23,['2'],TMT-A_1_1linestimulus20.png,TMT-A_1_1greenlinestimulus20.png,TMT-A_1_1redlinestimulus20.png,None,2,,,,,,,,,0,22,22,22,,,,,,,,,,,,,,,,,,,,,,,,,,,,,,,,,,,,,,,,,,,,44.718123300001025,None,['2'],1,[0.7089417998213321],44.718123300001025,None,,,,001,2022_Jan_11_0116,TMTAB,2021.2.3,59.88210416368752,
24,['1'],TMT-A_1_1linestimulus21.png,TMT-A_1_1greenlinestimulus21.png,TMT-A_1_1redlinestimulus21.png,None,1,,,,,,,,,0,23,23,23,,,,,,,,,,,,,,,,,,,,,,,,,,,,,,,,,,,,,,,,,,,,45.518730300012976,None,['1'],1,[0.8825562000274658],45.518730300012976,None,,,,001,2022_Jan_11_0116,TMTAB,2021.2.3,59.88210416368752,
25,['3'],TMT-A_1_1linestimulus22.png,TMT-A_1_1greenlinestimulus22.png,TMT-A_1_1redlinestimulus22.png,None,3,,,,,,,,,0,24,24,24,,,,,,,,,,,,,,,,,,,,,,,,,,,,,,,,,,,,,,,,,,,,46.4859861000441,None,['3'],1,[0.7182007001247257],46.4859861000441,None,,,,001,2022_Jan_11_0116,TMTAB,2021.2.3,59.88210416368752,
None,None,TMT-A_1_1linestimulus23.png,TMT-A_1_1greenlinestimulus23.png,TMT-A_1_1redlinestimulus23.png,None,None,,,,,,,,,0,25,25,25,,,,,,,,,,,,,,,,,,,,,,,,,,,,,,,,,,,,,,,,,,,,47.30273640016094,None,None,1,,47.30273640016094,None,,,,001,2022_Jan_11_0116,TMTAB,2021.2.3,59.88210416368752,
1,['1'],TMT-A_1_2.png,TMT-A_1_2.png,TMT-A_1_2.png,10,1,,,,,,,,,,,,,0,0,0,0,,,,,,,,,,,,,,,,,,,,,,,,,48.3012594000902,None,,,,,,,,,,,,,,51.37117880000733,None,['1'],1,[1.7174374999012798],51.37117880000733,None,,,,001,2022_Jan_11_0116,TMTAB,2021.2.3,59.88210416368752,
2,['3'],TMT-A_1_2.png,TMT-A_1_2firstgreen.png,TMT-A_1_2firstred.png,10,3,,,,,,,,,,,,,0,1,1,1,,,,,,,,,,,,,,,,,,,,,,,,,,,,,,,,,,,,,,,,53.17197989998385,None,['3'],1,[1.3114767000079155],53.17197989998385,None,,,,001,2022_Jan_11_0116,TMTAB,2021.2.3,59.88210416368752,
3,['1'],TMT-A_1_2linestimulus0.png,TMT-A_1_2greenlinestimulus0.png,TMT-A_1_2redlinestimulus0.png,10,1,,,,,,,,,,,,,0,2,2,2,,,,,,,,,,,,,,,,,,,,,,,,,,,,,,,,,,,,,,,,54.58964850008488,None,['1'],1,[0.9964543001260608],54.58964850008488,None,,,,001,2022_Jan_11_0116,TMTAB,2021.2.3,59.88210416368752,
4,['2'],TMT-A_1_2linestimulus1.png,TMT-A_1_2greenlinestimulus1.png,TMT-A_1_2redlinestimulus1.png,10,2,,,,,,,,,,,,,0,3,3,3,,,,,,,,,,,,,,,,,,,,,,,,,,,,,,,,,,,,,,,,55.67293900018558,None,['2'],1,[0.686097800033167],55.67293900018558,None,,,,001,2022_Jan_11_0116,TMTAB,2021.2.3,59.88210416368752,
5,['3'],TMT-A_1_2linestimulus2.png,TMT-A_1_2greenlinestimulus2.png,TMT-A_1_2redlinestimulus2.png,10,3,,,,,,,,,,,,,0,4,4,4,,,,,,,,,,,,,,,,,,,,,,,,,,,,,,,,,,,,,,,,56.45705100009218,None,['3'],1,[1.8120661000721157],56.45705100009218,None,,,,001,2022_Jan_11_0116,TMTAB,2021.2.3,59.88210416368752,
6,['2'],TMT-A_1_2linestimulus3.png,TMT-A_1_2greenlinestimulus3.png,TMT-A_1_2redlinestimulus3.png,10,2,,,,,,,,,,,,,0,5,5,5,,,,,,,,,,,,,,,,,,,,,,,,,,,,,,,,,,,,,,,,58.35785590019077,None,['2'],1,[0.435185199836269],58.35785590019077,None,,,,001,2022_Jan_11_0116,TMTAB,2021.2.3,59.88210416368752,
7,['3'],TMT-A_1_2linestimulus4.png,TMT-A_1_2greenlinestimulus4.png,TMT-A_1_2redlinestimulus4.png,10,3,,,,,,,,,,,,,0,6,6,6,,,,,,,,,,,,,,,,,,,,,,,,,,,,,,,,,,,,,,,,58.89135180017911,None,['3'],1,[1.065667900023982],58.89135180017911,None,,,,001,2022_Jan_11_0116,TMTAB,2021.2.3,59.88210416368752,
8,['2'],TMT-A_1_2linestimulus5.png,TMT-A_1_2greenlinestimulus5.png,TMT-A_1_2redlinestimulus5.png,10,2,,,,,,,,,,,,,0,7,7,7,,,,,,,,,,,,,,,,,,,,,,,,,,,,,,,,,,,,,,,,60.04196680011228,None,['2'],1,[0.9974561000708491],60.04196680011228,None,,,,001,2022_Jan_11_0116,TMTAB,2021.2.3,59.88210416368752,
9,['1'],TMT-A_1_2linestimulus6.png,TMT-A_1_2greenlinestimulus6.png,TMT-A_1_2redlinestimulus6.png,10,1,,,,,,,,,,,,,0,8,8,8,,,,,,,,,,,,,,,,,,,,,,,,,,,,,,,,,,,,,,,,61.125664100050926,None,['1'],1,[0.8249735999852419],61.125664100050926,None,,,,001,2022_Jan_11_0116,TMTAB,2021.2.3,59.88210416368752,
10,['2'],TMT-A_1_2linestimulus7.png,TMT-A_1_2greenlinestimulus7.png,TMT-A_1_2redlinestimulus7.png,10,2,,,,,,,,,,,,,0,9,9,9,,,,,,,,,,,,,,,,,,,,,,,,,,,,,,,,,,,,,,,,62.04280659998767,None,['2'],1,[0.5962435000110418],62.04280659998767,None,,,,001,2022_Jan_11_0116,TMTAB,2021.2.3,59.88210416368752,
11,['3'],TMT-A_1_2linestimulus8.png,TMT-A_1_2greenlinestimulus8.png,TMT-A_1_2redlinestimulus8.png,10,3,,,,,,,,,,,,,0,10,10,10,,,,,,,,,,,,,,,,,,,,,,,,,,,,,,,,,,,,,,,,62.72644880018197,None,['3'],1,[1.4024664000608027],62.72644880018197,None,,,,001,2022_Jan_11_0116,TMTAB,2021.2.3,59.88210416368752,
12,['2'],TMT-A_1_2linestimulus9.png,TMT-A_1_2greenlinestimulus9.png,TMT-A_1_2redlinestimulus9.png,10,2,,,,,,,,,,,,,0,11,11,11,,,,,,,,,,,,,,,,,,,,,,,,,,,,,,,,,,,,,,,,64.22867760015652,None,['2'],1,[0.5790037999395281],64.22867760015652,None,,,,001,2022_Jan_11_0116,TMTAB,2021.2.3,59.88210416368752,
13,['1'],TMT-A_1_2linestimulus10.png,TMT-A_1_2greenlinestimulus10.png,TMT-A_1_2redlinestimulus10.png,1,1,,,,,,,,,,,,,0,12,12,12,,,,,,,,,,,,,,,,,,,,,,,,,,,,,,,,,,,,,,,,64.91115709999576,None,['1'],1,[1.7630093998741359],64.91115709999576,None,,,,001,2022_Jan_11_0116,TMTAB,2021.2.3,59.88210416368752,
14,['2'],TMT-A_1_2linestimulus11.png,TMT-A_1_2greenlinestimulus11.png,TMT-A_1_2redlinestimulus11.png,None,2,,,,,,,,,,,,,0,13,13,13,,,,,,,,,,,,,,,,,,,,,,,,,,,,,,,,,,,,,,,,66.76163289998658,None,['2'],1,[0.8297015998978168],66.76163289998658,None,,,,001,2022_Jan_11_0116,TMTAB,2021.2.3,59.88210416368752,
15,['3'],TMT-A_1_2linestimulus12.png,TMT-A_1_2greenlinestimulus12.png,TMT-A_1_2redlinestimulus12.png,None,3,,,,,,,,,,,,,0,14,14,14,,,,,,,,,,,,,,,,,,,,,,,,,,,,,,,,,,,,,,,,67.67875840002671,None,['3'],1,[1.2684722999110818],67.67875840002671,None,,,,001,2022_Jan_11_0116,TMTAB,2021.2.3,59.88210416368752,
16,['2'],TMT-A_1_2linestimulus13.png,TMT-A_1_2greenlinestimulus13.png,TMT-A_1_2redlinestimulus13.png,None,2,,,,,,,,,,,,,0,15,15,15,,,,,,,,,,,,,,,,,,,,,,,,,,,,,,,,,,,,,,,,69.02954460005276,None,['2'],1,[0.9925232999958098],69.02954460005276,None,,,,001,2022_Jan_11_0116,TMTAB,2021.2.3,59.88210416368752,
17,['1'],TMT-A_1_2linestimulus14.png,TMT-A_1_2greenlinestimulus14.png,TMT-A_1_2redlinestimulus14.png,None,1,,,,,,,,,,,,,0,16,16,16,,,,,,,,,,,,,,,,,,,,,,,,,,,,,,,,,,,,,,,,70.11338440002874,None,['1'],1,[0.6611762000247836],70.11338440002874,None,,,,001,2022_Jan_11_0116,TMTAB,2021.2.3,59.88210416368752,
18,['2'],TMT-A_1_2linestimulus15.png,TMT-A_1_2greenlinestimulus15.png,TMT-A_1_2redlinestimulus15.png,None,2,,,,,,,,,,,,,0,17,17,17,,,,,,,,,,,,,,,,,,,,,,,,,,,,,,,,,,,,,,,,70.8803456001915,None,['2'],1,[0.870482699945569],70.8803456001915,None,,,,001,2022_Jan_11_0116,TMTAB,2021.2.3,59.88210416368752,
19,['3'],TMT-A_1_2linestimulus16.png,TMT-A_1_2greenlinestimulus16.png,TMT-A_1_2redlinestimulus16.png,None,3,,,,,,,,,,,,,0,18,18,18,,,,,,,,,,,,,,,,,,,,,,,,,,,,,,,,,,,,,,,,71.84772040019743,None,['3'],1,[0.5033642000053078],71.84772040019743,None,,,,001,2022_Jan_11_0116,TMTAB,2021.2.3,59.88210416368752,
20,['2'],TMT-A_1_2linestimulus17.png,TMT-A_1_2greenlinestimulus17.png,TMT-A_1_2redlinestimulus17.png,None,2,,,,,,,,,,,,,0,19,19,19,,,,,,,,,,,,,,,,,,,,,,,,,,,,,,,,,,,,,,,,72.44772789999843,None,['2'],1,[2.1219738998916],72.44772789999843,None,,,,001,2022_Jan_11_0116,TMTAB,2021.2.3,59.88210416368752,
21,['1'],TMT-A_1_2linestimulus18.png,TMT-A_1_2greenlinestimulus18.png,TMT-A_1_2redlinestimulus18.png,None,1,,,,,,,,,,,,,0,20,20,20,,,,,,,,,,,,,,,,,,,,,,,,,,,,,,,,,,,,,,,,74.665431200061,None,['1'],1,[0.6131754000671208],74.665431200061,None,,,,001,2022_Jan_11_0116,TMTAB,2021.2.3,59.88210416368752,
22,['3'],TMT-A_1_2linestimulus19.png,TMT-A_1_2greenlinestimulus19.png,TMT-A_1_2redlinestimulus19.png,None,3,,,,,,,,,,,,,0,21,21,21,,,,,,,,,,,,,,,,,,,,,,,,,,,,,,,,,,,,,,,,75.38271380006336,None,['3'],1,[1.618440399877727],75.38271380006336,None,,,,001,2022_Jan_11_0116,TMTAB,2021.2.3,59.88210416368752,
23,['2'],TMT-A_1_2linestimulus20.png,TMT-A_1_2greenlinestimulus20.png,TMT-A_1_2redlinestimulus20.png,None,2,,,,,,,,,,,,,0,22,22,22,,,,,,,,,,,,,,,,,,,,,,,,,,,,,,,,,,,,,,,,77.10013810009696,None,['2'],1,[0.5379248999524862],77.10013810009696,None,,,,001,2022_Jan_11_0116,TMTAB,2021.2.3,59.88210416368752,
24,['3'],TMT-A_1_2linestimulus21.png,TMT-A_1_2greenlinestimulus21.png,TMT-A_1_2redlinestimulus21.png,None,3,,,,,,,,,,,,,0,23,23,23,,,,,,,,,,,,,,,,,,,,,,,,,,,,,,,,,,,,,,,,77.73377100005746,None,['3'],1,[0.6700373999774456],77.73377100005746,None,,,,001,2022_Jan_11_0116,TMTAB,2021.2.3,59.88210416368752,
25,['2'],TMT-A_1_2linestimulus22.png,TMT-A_1_2greenlinestimulus22.png,TMT-A_1_2redlinestimulus22.png,None,2,,,,,,,,,,,,,0,24,24,24,,,,,,,,,,,,,,,,,,,,,,,,,,,,,,,,,,,,,,,,78.50082020019181,None,['2'],1,[0.5185465000104159],78.50082020019181,None,,,,001,2022_Jan_11_0116,TMTAB,2021.2.3,59.88210416368752,
None,None,TMT-A_1_2linestimulus23.png,TMT-A_1_2greenlinestimulus23.png,TMT-A_1_2redlinestimulus23.png,None,None,,,,,,,,,,,,,0,25,25,25,,,,,,,,,,,,,,,,,,,,,,,,,,,,,,,,,,,,,,,,79.11772150010802,None,None,1,,79.11772150010802,None,,,,001,2022_Jan_11_0116,TMTAB,2021.2.3,59.88210416368752,
1,['1'],TMT-A_1_3.png,TMT-A_1_3.png,TMT-A_1_3.png,10,1,,,,,,,,,,,,,,,,,0,0,0,0,,,,,,,,,,,,,,,,,,,,,80.11617150017992,None,,,,,,,,,,,,,,83.18612630013376,None,['1'],1,[1.1955273000057787],83.18612630013376,None,,,,001,2022_Jan_11_0116,TMTAB,2021.2.3,59.88210416368752,
2,['3'],TMT-A_1_3.png,TMT-A_1_3firstgreen.png,TMT-A_1_3firstred.png,10,3,,,,,,,,,,,,,,,,,0,1,1,1,,,,,,,,,,,,,,,,,,,,,,,,,,,,,,,,,,,,84.45392250013538,None,['3'],1,[0.8129506001714617],84.45392250013538,None,,,,001,2022_Jan_11_0116,TMTAB,2021.2.3,59.88210416368752,
3,['2'],TMT-A_1_3linestimulus0.png,TMT-A_1_3greenlinestimulus0.png,TMT-A_1_3redlinestimulus0.png,10,2,,,,,,,,,,,,,,,,,0,2,2,2,,,,,,,,,,,,,,,,,,,,,,,,,,,,,,,,,,,,85.35410200012848,None,['2'],1,[0.4105990999378264],85.35410200012848,None,,,,001,2022_Jan_11_0116,TMTAB,2021.2.3,59.88210416368752,
4,['1'],TMT-A_1_3linestimulus1.png,TMT-A_1_3greenlinestimulus1.png,TMT-A_1_3redlinestimulus1.png,10,1,,,,,,,,,,,,,,,,,0,3,3,3,,,,,,,,,,,,,,,,,,,,,,,,,,,,,,,,,,,,85.8707044001203,None,['1'],1,[0.6596995000727475],85.8707044001203,None,,,,001,2022_Jan_11_0116,TMTAB,2021.2.3,59.88210416368752,
5,['2'],TMT-A_1_3linestimulus2.png,TMT-A_1_3greenlinestimulus2.png,TMT-A_1_3redlinestimulus2.png,10,2,,,,,,,,,,,,,,,,,0,4,4,4,,,,,,,,,,,,,,,,,,,,,,,,,,,,,,,,,,,,86.62116730003618,None,['2'],1,[0.5661009000614285],86.62116730003618,None,,,,001,2022_Jan_11_0116,TMTAB,2021.2.3,59.88210416368752,
6,['3'],TMT-A_1_3linestimulus3.png,TMT-A_1_3greenlinestimulus3.png,TMT-A_1_3redlinestimulus3.png,10,3,,,,,,,,,,,,,,,,,0,5,5,5,,,,,,,,,,,,,,,,,,,,,,,,,,,,,,,,,,,,87.25449370010756,None,['3'],1,[0.8274050999898463],87.25449370010756,None,,,,001,2022_Jan_11_0116,TMTAB,2021.2.3,59.88210416368752,
7,['1'],TMT-A_1_3linestimulus4.png,TMT-A_1_3greenlinestimulus4.png,TMT-A_1_3redlinestimulus4.png,10,1,,,,,,,,,,,,,,,,,0,6,6,6,,,,,,,,,,,,,,,,,,,,,,,,,,,,,,,,,,,,88.17168630007654,None,['1'],1,[0.4771276998799294],88.17168630007654,None,,,,001,2022_Jan_11_0116,TMTAB,2021.2.3,59.88210416368752,
8,['2'],TMT-A_1_3linestimulus5.png,TMT-A_1_3greenlinestimulus5.png,TMT-A_1_3redlinestimulus5.png,10,2,,,,,,,,,,,,,,,,,0,7,7,7,,,,,,,,,,,,,,,,,,,,,,,,,,,,,,,,,,,,88.73885810002685,None,['2'],1,[0.3962240000255406],88.73885810002685,None,,,,001,2022_Jan_11_0116,TMTAB,2021.2.3,59.88210416368752,
9,['1'],TMT-A_1_3linestimulus6.png,TMT-A_1_3greenlinestimulus6.png,TMT-A_1_3redlinestimulus6.png,10,1,,,,,,,,,,,,,,,,,0,8,8,8,,,,,,,,,,,,,,,,,,,,,,,,,,,,,,,,,,,,89.2225060001947,None,['1'],1,[0.7730125999078155],89.2225060001947,None,,,,001,2022_Jan_11_0116,TMTAB,2021.2.3,59.88210416368752,
10,['3'],TMT-A_1_3linestimulus7.png,TMT-A_1_3greenlinestimulus7.png,TMT-A_1_3redlinestimulus7.png,10,3,,,,,,,,,,,,,,,,,0,9,9,9,,,,,,,,,,,,,,,,,,,,,,,,,,,,,,,,,,,,90.091047400143,None,['3'],1,[1.6723342000041157],90.091047400143,None,,,,001,2022_Jan_11_0116,TMTAB,2021.2.3,59.88210416368752,
11,['2'],TMT-A_1_3linestimulus8.png,TMT-A_1_3greenlinestimulus8.png,TMT-A_1_3redlinestimulus8.png,10,2,,,,,,,,,,,,,,,,,0,10,10,10,,,,,,,,,,,,,,,,,,,,,,,,,,,,,,,,,,,,91.85675740009174,None,['2'],1,[0.9393368000164628],91.85675740009174,None,,,,001,2022_Jan_11_0116,TMTAB,2021.2.3,59.88210416368752,
12,['1'],TMT-A_1_3linestimulus9.png,TMT-A_1_3greenlinestimulus9.png,TMT-A_1_3redlinestimulus9.png,10,1,,,,,,,,,,,,,,,,,0,11,11,11,,,,,,,,,,,,,,,,,,,,,,,,,,,,,,,,,,,,92.89059730013832,None,['1'],1,[0.8241729000583291],92.89059730013832,None,,,,001,2022_Jan_11_0116,TMTAB,2021.2.3,59.88210416368752,
13,['3'],TMT-A_1_3linestimulus10.png,TMT-A_1_3greenlinestimulus10.png,TMT-A_1_3redlinestimulus10.png,1,3,,,,,,,,,,,,,,,,,0,12,12,12,,,,,,,,,,,,,,,,,,,,,,,,,,,,,,,,,,,,93.80788680003025,None,['3'],1,[0.42028770013712347],93.80788680003025,None,,,,001,2022_Jan_11_0116,TMTAB,2021.2.3,59.88210416368752,
14,['1'],TMT-A_1_3linestimulus11.png,TMT-A_1_3greenlinestimulus11.png,TMT-A_1_3redlinestimulus11.png,None,1,,,,,,,,,,,,,,,,,0,13,13,13,,,,,,,,,,,,,,,,,,,,,,,,,,,,,,,,,,,,94.32476400001906,None,['1'],1,[0.4825216999743134],94.32476400001906,None,,,,001,2022_Jan_11_0116,TMTAB,2021.2.3,59.88210416368752,
15,['2'],TMT-A_1_3linestimulus12.png,TMT-A_1_3greenlinestimulus12.png,TMT-A_1_3redlinestimulus12.png,None,2,,,,,,,,,,,,,,,,,0,14,14,14,,,,,,,,,,,,,,,,,,,,,,,,,,,,,,,,,,,,94.87514400016516,None,['2'],1,[0.6471934001892805],94.87514400016516,None,,,,001,2022_Jan_11_0116,TMTAB,2021.2.3,59.88210416368752,
16,['3'],TMT-A_1_3linestimulus13.png,TMT-A_1_3greenlinestimulus13.png,TMT-A_1_3redlinestimulus13.png,None,3,,,,,,,,,,,,,,,,,0,15,15,15,,,,,,,,,,,,,,,,,,,,,,,,,,,,,,,,,,,,95.60857580020092,None,['3'],1,[1.1984063000418246],95.60857580020092,None,,,,001,2022_Jan_11_0116,TMTAB,2021.2.3,59.88210416368752,
17,['2'],TMT-A_1_3linestimulus14.png,TMT-A_1_3greenlinestimulus14.png,TMT-A_1_3redlinestimulus14.png,None,2,,,,,,,,,,,,,,,,,0,16,16,16,,,,,,,,,,,,,,,,,,,,,,,,,,,,,,,,,,,,96.89245230006054,None,['2'],1,[1.0155421001836658],96.89245230006054,None,,,,001,2022_Jan_11_0116,TMTAB,2021.2.3,59.88210416368752,
18,['1'],TMT-A_1_3linestimulus15.png,TMT-A_1_3greenlinestimulus15.png,TMT-A_1_3redlinestimulus15.png,None,1,,,,,,,,,,,,,,,,,0,17,17,17,,,,,,,,,,,,,,,,,,,,,,,,,,,,,,,,,,,,97.99479790008627,None,['1'],1,[2.2286079998593777],97.99479790008627,None,,,,001,2022_Jan_11_0116,TMTAB,2021.2.3,59.88210416368752,
19,['3'],TMT-A_1_3linestimulus16.png,TMT-A_1_3greenlinestimulus16.png,TMT-A_1_3redlinestimulus16.png,None,3,,,,,,,,,,,,,,,,,0,18,18,18,,,,,,,,,,,,,,,,,,,,,,,,,,,,,,,,,,,,100.3105777001474,None,['3'],1,[3.7804451999254525],100.3105777001474,None,,,,001,2022_Jan_11_0116,TMTAB,2021.2.3,59.88210416368752,
20,['2'],TMT-A_1_3linestimulus17.png,TMT-A_1_3greenlinestimulus17.png,TMT-A_1_3redlinestimulus17.png,None,2,,,,,,,,,,,,,,,,,0,19,19,19,,,,,,,,,,,,,,,,,,,,,,,,,,,,,,,,,,,,104.17922530020587,None,['2'],1,[3.246363600017503],104.17922530020587,None,,,,001,2022_Jan_11_0116,TMTAB,2021.2.3,59.88210416368752,
21,['3'],TMT-A_1_3linestimulus18.png,TMT-A_1_3greenlinestimulus18.png,TMT-A_1_3redlinestimulus18.png,None,3,,,,,,,,,,,,,,,,,0,20,20,20,,,,,,,,,,,,,,,,,,,,,,,,,,,,,,,,,,,,107.51417910004966,None,['3'],1,[0.6843649998772889],107.51417910004966,None,,,,001,2022_Jan_11_0116,TMTAB,2021.2.3,59.88210416368752,
22,['2'],TMT-A_1_3linestimulus19.png,TMT-A_1_3greenlinestimulus19.png,TMT-A_1_3redlinestimulus19.png,None,2,,,,,,,,,,,,,,,,,0,21,21,21,,,,,,,,,,,,,,,,,,,,,,,,,,,,,,,,,,,,108.28098200005479,None,['2'],1,[0.6011338999960572],108.28098200005479,None,,,,001,2022_Jan_11_0116,TMTAB,2021.2.3,59.88210416368752,
23,['3'],TMT-A_1_3linestimulus20.png,TMT-A_1_3greenlinestimulus20.png,TMT-A_1_3redlinestimulus20.png,None,3,,,,,,,,,,,,,,,,,0,22,22,22,,,,,,,,,,,,,,,,,,,,,,,,,,,,,,,,,,,,108.96467999997549,None,['3'],1,[0.9264338999055326],108.96467999997549,None,,,,001,2022_Jan_11_0116,TMTAB,2021.2.3,59.88210416368752,
24,['2'],TMT-A_1_3linestimulus21.png,TMT-A_1_3greenlinestimulus21.png,TMT-A_1_3redlinestimulus21.png,None,2,,,,,,,,,,,,,,,,,0,23,23,23,,,,,,,,,,,,,,,,,,,,,,,,,,,,,,,,,,,,109.98184480005875,None,['2'],1,[0.581242100102827],109.98184480005875,None,,,,001,2022_Jan_11_0116,TMTAB,2021.2.3,59.88210416368752,
25,['1'],TMT-A_1_3linestimulus22.png,TMT-A_1_3greenlinestimulus22.png,TMT-A_1_3redlinestimulus22.png,None,1,,,,,,,,,,,,,,,,,0,24,24,24,,,,,,,,,,,,,,,,,,,,,,,,,,,,,,,,,,,,110.64872310007922,None,['1'],1,[3.030373599845916],110.64872310007922,None,,,,001,2022_Jan_11_0116,TMTAB,2021.2.3,59.88210416368752,
None,None,TMT-A_1_3linestimulus23.png,TMT-A_1_3greenlinestimulus23.png,TMT-A_1_3redlinestimulus23.png,None,None,,,,,,,,,,,,,,,,,0,25,25,25,,,,,,,,,,,,,,,,,,,,,,,,,,,,,,,,,,,,113.76703420002013,None,None,1,,113.76703420002013,None,,,,001,2022_Jan_11_0116,TMTAB,2021.2.3,59.88210416368752,
1,['1'],TMT-A_1_4.png,TMT-A_1_4.png,TMT-A_1_4.png,10,1,,,,,,,,,,,,,,,,,,,,,0,0,0,0,,,,,,,,,,,,,,,,,114.76545150019228,None,,,,,,,,,,,,,,117.8852588001173,None,['1'],1,[1.4353863999713212],117.8852588001173,None,,,,001,2022_Jan_11_0116,TMTAB,2021.2.3,59.88210416368752,
2,['3'],TMT-A_1_4.png,TMT-A_1_4firstgreen.png,TMT-A_1_4firstred.png,10,3,,,,,,,,,,,,,,,,,,,,,0,1,1,1,,,,,,,,,,,,,,,,,,,,,,,,,,,,,,,,119.3862790002022,None,['3'],1,[4.451252999948338],119.3862790002022,None,,,,001,2022_Jan_11_0116,TMTAB,2021.2.3,59.88210416368752,
3,['1'],TMT-A_1_4linestimulus0.png,TMT-A_1_4greenlinestimulus0.png,TMT-A_1_4redlinestimulus0.png,10,1,,,,,,,,,,,,,,,,,,,,,0,2,2,2,,,,,,,,,,,,,,,,,,,,,,,,,,,,,,,,123.92153070005588,None,['1'],1,[3.141853400040418],123.92153070005588,None,,,,001,2022_Jan_11_0116,TMTAB,2021.2.3,59.88210416368752,
4,['2'],TMT-A_1_4linestimulus1.png,TMT-A_1_4greenlinestimulus1.png,TMT-A_1_4redlinestimulus1.png,10,2,,,,,,,,,,,,,,,,,,,,,0,3,3,3,,,,,,,,,,,,,,,,,,,,,,,,,,,,,,,,127.15626050019637,None,['2'],1,[3.7068621998187155],127.15626050019637,None,,,,001,2022_Jan_11_0116,TMTAB,2021.2.3,59.88210416368752,
5,['1'],TMT-A_1_4linestimulus2.png,TMT-A_1_4greenlinestimulus2.png,TMT-A_1_4redlinestimulus2.png,10,1,,,,,,,,,,,,,,,,,,,,,0,4,4,4,,,,,,,,,,,,,,,,,,,,,,,,,,,,,,,,130.9581469001714,None,['1'],1,[1.2349566000048071],130.9581469001714,None,,,,001,2022_Jan_11_0116,TMTAB,2021.2.3,59.88210416368752,
6,['3'],TMT-A_1_4linestimulus3.png,TMT-A_1_4greenlinestimulus3.png,TMT-A_1_4redlinestimulus3.png,10,3,,,,,,,,,,,,,,,,,,,,,0,5,5,5,,,,,,,,,,,,,,,,,,,,,,,,,,,,,,,,132.27547280001454,None,['3'],1,[0.6664529000408947],132.27547280001454,None,,,,001,2022_Jan_11_0116,TMTAB,2021.2.3,59.88210416368752,
7,['2'],TMT-A_1_4linestimulus4.png,TMT-A_1_4greenlinestimulus4.png,TMT-A_1_4redlinestimulus4.png,10,2,,,,,,,,,,,,,,,,,,,,,0,6,6,6,,,,,,,,,,,,,,,,,,,,,,,,,,,,,,,,133.02575310016982,None,['2'],1,[0.7110878000967205],133.02575310016982,None,,,,001,2022_Jan_11_0116,TMTAB,2021.2.3,59.88210416368752,
8,['1'],TMT-A_1_4linestimulus5.png,TMT-A_1_4greenlinestimulus5.png,TMT-A_1_4redlinestimulus5.png,10,1,,,,,,,,,,,,,,,,,,,,,0,7,7,7,,,,,,,,,,,,,,,,,,,,,,,,,,,,,,,,133.82607499998994,None,['1'],1,[0.5787363999988884],133.82607499998994,None,,,,001,2022_Jan_11_0116,TMTAB,2021.2.3,59.88210416368752,
9,['2'],TMT-A_1_4linestimulus6.png,TMT-A_1_4greenlinestimulus6.png,TMT-A_1_4redlinestimulus6.png,10,2,,,,,,,,,,,,,,,,,,,,,0,8,8,8,,,,,,,,,,,,,,,,,,,,,,,,,,,,,,,,134.4930612000171,None,['2'],1,[1.0992119000293314],134.4930612000171,None,,,,001,2022_Jan_11_0116,TMTAB,2021.2.3,59.88210416368752,
10,['1'],TMT-A_1_4linestimulus7.png,TMT-A_1_4greenlinestimulus7.png,TMT-A_1_4redlinestimulus7.png,10,1,,,,,,,,,,,,,,,,,,,,,0,9,9,9,,,,,,,,,,,,,,,,,,,,,,,,,,,,,,,,135.66251880000345,None,['1'],1,[0.607364600058645],135.66251880000345,None,,,,001,2022_Jan_11_0116,TMTAB,2021.2.3,59.88210416368752,
11,['2'],TMT-A_1_4linestimulus8.png,TMT-A_1_4greenlinestimulus8.png,TMT-A_1_4redlinestimulus8.png,10,2,,,,,,,,,,,,,,,,,,,,,0,10,10,10,,,,,,,,,,,,,,,,,,,,,,,,,,,,,,,,136.3607204,None,['2'],1,[0.6389699999708682],136.3607204,None,,,,001,2022_Jan_11_0116,TMTAB,2021.2.3,59.88210416368752,
12,['3'],TMT-A_1_4linestimulus9.png,TMT-A_1_4greenlinestimulus9.png,TMT-A_1_4redlinestimulus9.png,10,3,,,,,,,,,,,,,,,,,,,,,0,11,11,11,,,,,,,,,,,,,,,,,,,,,,,,,,,,,,,,137.09438620018773,None,['3'],1,[0.7450242999475449],137.09438620018773,None,,,,001,2022_Jan_11_0116,TMTAB,2021.2.3,59.88210416368752,
13,['1'],TMT-A_1_4linestimulus10.png,TMT-A_1_4greenlinestimulus10.png,TMT-A_1_4redlinestimulus10.png,1,1,,,,,,,,,,,,,,,,,,,,,0,12,12,12,,,,,,,,,,,,,,,,,,,,,,,,,,,,,,,,137.92813060013577,None,['1'],1,[0.44302510004490614],137.92813060013577,None,,,,001,2022_Jan_11_0116,TMTAB,2021.2.3,59.88210416368752,
14,['2'],TMT-A_1_4linestimulus11.png,TMT-A_1_4greenlinestimulus11.png,TMT-A_1_4redlinestimulus11.png,None,2,,,,,,,,,,,,,,,,,,,,,0,13,13,13,,,,,,,,,,,,,,,,,,,,,,,,,,,,,,,,138.4616803000681,None,['2'],1,[0.45714930002577603],138.4616803000681,None,,,,001,2022_Jan_11_0116,TMTAB,2021.2.3,59.88210416368752,
15,['3'],TMT-A_1_4linestimulus12.png,TMT-A_1_4greenlinestimulus12.png,TMT-A_1_4redlinestimulus12.png,None,3,,,,,,,,,,,,,,,,,,,,,0,14,14,14,,,,,,,,,,,,,,,,,,,,,,,,,,,,,,,,139.0119214002043,None,['3'],1,[1.4916366999968886],139.0119214002043,None,,,,001,2022_Jan_11_0116,TMTAB,2021.2.3,59.88210416368752,
16,['1'],TMT-A_1_4linestimulus13.png,TMT-A_1_4greenlinestimulus13.png,TMT-A_1_4redlinestimulus13.png,None,1,,,,,,,,,,,,,,,,,,,,,0,15,15,15,,,,,,,,,,,,,,,,,,,,,,,,,,,,,,,,140.59584550000727,None,['1'],1,[0.40613749995827675],140.59584550000727,None,,,,001,2022_Jan_11_0116,TMTAB,2021.2.3,59.88210416368752,
17,['3'],TMT-A_1_4linestimulus14.png,TMT-A_1_4greenlinestimulus14.png,TMT-A_1_4redlinestimulus14.png,None,3,,,,,,,,,,,,,,,,,,,,,0,16,16,16,,,,,,,,,,,,,,,,,,,,,,,,,,,,,,,,141.0961681001354,None,['3'],1,[0.8037941001821309],141.0961681001354,None,,,,001,2022_Jan_11_0116,TMTAB,2021.2.3,59.88210416368752,
18,['2'],TMT-A_1_4linestimulus15.png,TMT-A_1_4greenlinestimulus15.png,TMT-A_1_4redlinestimulus15.png,None,2,,,,,,,,,,,,,,,,,,,,,0,17,17,17,,,,,,,,,,,,,,,,,,,,,,,,,,,,,,,,141.99692180007696,None,['2'],1,[0.445851500146091],141.99692180007696,None,,,,001,2022_Jan_11_0116,TMTAB,2021.2.3,59.88210416368752,
19,['1'],TMT-A_1_4linestimulus16.png,TMT-A_1_4greenlinestimulus16.png,TMT-A_1_4redlinestimulus16.png,None,1,,,,,,,,,,,,,,,,,,,,,0,18,18,18,,,,,,,,,,,,,,,,,,,,,,,,,,,,,,,,142.53015060001053,None,['1'],1,[0.9441283999476582],142.53015060001053,None,,,,001,2022_Jan_11_0116,TMTAB,2021.2.3,59.88210416368752,
20,['3'],TMT-A_1_4linestimulus17.png,TMT-A_1_4greenlinestimulus17.png,TMT-A_1_4redlinestimulus17.png,None,3,,,,,,,,,,,,,,,,,,,,,0,19,19,19,,,,,,,,,,,,,,,,,,,,,,,,,,,,,,,,143.563940100139,None,['3'],1,[0.6091165000107139],143.563940100139,None,,,,001,2022_Jan_11_0116,TMTAB,2021.2.3,59.88210416368752,
21,['1'],TMT-A_1_4linestimulus18.png,TMT-A_1_4greenlinestimulus18.png,TMT-A_1_4redlinestimulus18.png,None,1,,,,,,,,,,,,,,,,,,,,,0,20,20,20,,,,,,,,,,,,,,,,,,,,,,,,,,,,,,,,144.2643151001539,None,['1'],1,[1.1465076999738812],144.2643151001539,None,,,,001,2022_Jan_11_0116,TMTAB,2021.2.3,59.88210416368752,
22,['3'],TMT-A_1_4linestimulus19.png,TMT-A_1_4greenlinestimulus19.png,TMT-A_1_4redlinestimulus19.png,None,3,,,,,,,,,,,,,,,,,,,,,0,21,21,21,,,,,,,,,,,,,,,,,,,,,,,,,,,,,,,,145.49823780008592,None,['3'],1,[2.688516699941829],145.49823780008592,None,,,,001,2022_Jan_11_0116,TMTAB,2021.2.3,59.88210416368752,
23,['1'],TMT-A_1_4linestimulus20.png,TMT-A_1_4greenlinestimulus20.png,TMT-A_1_4redlinestimulus20.png,None,1,,,,,,,,,,,,,,,,,,,,,0,22,22,22,,,,,,,,,,,,,,,,,,,,,,,,,,,,,,,,148.2998796000611,None,['1'],1,[0.5950287999585271],148.2998796000611,None,,,,001,2022_Jan_11_0116,TMTAB,2021.2.3,59.88210416368752,
24,['3'],TMT-A_1_4linestimulus21.png,TMT-A_1_4greenlinestimulus21.png,TMT-A_1_4redlinestimulus21.png,None,3,,,,,,,,,,,,,,,,,,,,,0,23,23,23,,,,,,,,,,,,,,,,,,,,,,,,,,,,,,,,148.98313720012084,None,['3'],1,[0.6062736997846514],148.98313720012084,None,,,,001,2022_Jan_11_0116,TMTAB,2021.2.3,59.88210416368752,
25,['1'],TMT-A_1_4linestimulus22.png,TMT-A_1_4greenlinestimulus22.png,TMT-A_1_4redlinestimulus22.png,None,1,,,,,,,,,,,,,,,,,,,,,0,24,24,24,,,,,,,,,,,,,,,,,,,,,,,,,,,,,,,,149.66778240003623,None,['1'],1,[0.670660600066185],149.66778240003623,None,,,,001,2022_Jan_11_0116,TMTAB,2021.2.3,59.88210416368752,
None,None,TMT-A_1_4linestimulus23.png,TMT-A_1_4greenlinestimulus23.png,TMT-A_1_4redlinestimulus23.png,None,None,,,,,,,,,,,,,,,,,,,,,0,25,25,25,,,,,,,,,,,,,,,,,,,,,,,,,,,,,,,,150.43415660015307,None,None,1,,150.43415660015307,None,,,,001,2022_Jan_11_0116,TMTAB,2021.2.3,59.88210416368752,
1,['3'],TMT-A_1_5.png,TMT-A_1_5.png,TMT-A_1_5.png,10,3,,,,,,,,,,,,,,,,,,,,,,,,,0,0,0,0,,,,,,,,,,,,,151.43263759999536,None,,,,,,,,,,,,,,154.50252630002797,None,['3'],1,[1.465828699991107],154.50252630002797,None,,,,001,2022_Jan_11_0116,TMTAB,2021.2.3,59.88210416368752,
2,['2'],TMT-A_1_5.png,TMT-A_1_5firstgreen.png,TMT-A_1_5firstred.png,10,2,,,,,,,,,,,,,,,,,,,,,,,,,0,1,1,1,,,,,,,,,,,,,,,,,,,,,,,,,,,,156.05324290017597,None,['2'],1,[2.5937496998813003],156.05324290017597,None,,,,001,2022_Jan_11_0116,TMTAB,2021.2.3,59.88210416368752,
3,['1'],TMT-A_1_5linestimulus0.png,TMT-A_1_5greenlinestimulus0.png,TMT-A_1_5redlinestimulus0.png,10,1,,,,,,,,,,,,,,,,,,,,,,,,,0,2,2,2,,,,,,,,,,,,,,,,,,,,,,,,,,,,158.73799700010568,None,['1'],1,[0.5561154999304563],158.73799700010568,None,,,,001,2022_Jan_11_0116,TMTAB,2021.2.3,59.88210416368752,
4,['2'],TMT-A_1_5linestimulus1.png,TMT-A_1_5greenlinestimulus1.png,TMT-A_1_5redlinestimulus1.png,10,2,,,,,,,,,,,,,,,,,,,,,,,,,0,3,3,3,,,,,,,,,,,,,,,,,,,,,,,,,,,,159.37161040003411,None,['2'],1,[2.57642209995538],159.37161040003411,None,,,,001,2022_Jan_11_0116,TMTAB,2021.2.3,59.88210416368752,
5,['1'],TMT-A_1_5linestimulus2.png,TMT-A_1_5greenlinestimulus2.png,TMT-A_1_5redlinestimulus2.png,10,1,,,,,,,,,,,,,,,,,,,,,,,,,0,4,4,4,,,,,,,,,,,,,,,,,,,,,,,,,,,,162.03943990007974,None,['1'],1,[0.6472264998592436],162.03943990007974,None,,,,001,2022_Jan_11_0116,TMTAB,2021.2.3,59.88210416368752,
6,['3'],TMT-A_1_5linestimulus3.png,TMT-A_1_5greenlinestimulus3.png,TMT-A_1_5redlinestimulus3.png,10,3,,,,,,,,,,,,,,,,,,,,,,,,,0,5,5,5,,,,,,,,,,,,,,,,,,,,,,,,,,,,162.77455090009607,None,['3'],1,[1.4559057999867946],162.77455090009607,None,,,,001,2022_Jan_11_0116,TMTAB,2021.2.3,59.88210416368752,
7,['1'],TMT-A_1_5linestimulus4.png,TMT-A_1_5greenlinestimulus4.png,TMT-A_1_5redlinestimulus4.png,10,1,,,,,,,,,,,,,,,,,,,,,,,,,0,6,6,6,,,,,,,,,,,,,,,,,,,,,,,,,,,,164.30694510019384,None,['1'],1,[1.151453800033778],164.30694510019384,None,,,,001,2022_Jan_11_0116,TMTAB,2021.2.3,59.88210416368752,
8,['2'],TMT-A_1_5linestimulus5.png,TMT-A_1_5greenlinestimulus5.png,TMT-A_1_5redlinestimulus5.png,10,2,,,,,,,,,,,,,,,,,,,,,,,,,0,7,7,7,,,,,,,,,,,,,,,,,,,,,,,,,,,,165.5241048000753,None,['2'],1,[0.600869300076738],165.5241048000753,None,,,,001,2022_Jan_11_0116,TMTAB,2021.2.3,59.88210416368752,
9,['1'],TMT-A_1_5linestimulus6.png,TMT-A_1_5greenlinestimulus6.png,TMT-A_1_5redlinestimulus6.png,10,1,,,,,,,,,,,,,,,,,,,,,,,,,0,8,8,8,,,,,,,,,,,,,,,,,,,,,,,,,,,,166.20815710001625,None,['1'],1,[3.194633699953556],166.20815710001625,None,,,,001,2022_Jan_11_0116,TMTAB,2021.2.3,59.88210416368752,
10,['2'],TMT-A_1_5linestimulus7.png,TMT-A_1_5greenlinestimulus7.png,TMT-A_1_5redlinestimulus7.png,10,2,,,,,,,,,,,,,,,,,,,,,,,,,0,9,9,9,,,,,,,,,,,,,,,,,,,,,,,,,,,,169.49302810011432,None,['2'],1,[0.6719002998434007],169.49302810011432,None,,,,001,2022_Jan_11_0116,TMTAB,2021.2.3,59.88210416368752,
11,['3'],TMT-A_1_5linestimulus8.png,TMT-A_1_5greenlinestimulus8.png,TMT-A_1_5redlinestimulus8.png,10,3,,,,,,,,,,,,,,,,,,,,,,,,,0,10,10,10,,,,,,,,,,,,,,,,,,,,,,,,,,,,170.24258540011942,None,['3'],1,[1.2885181999299675],170.24258540011942,None,,,,001,2022_Jan_11_0116,TMTAB,2021.2.3,59.88210416368752,
12,['2'],TMT-A_1_5linestimulus9.png,TMT-A_1_5greenlinestimulus9.png,TMT-A_1_5redlinestimulus9.png,10,2,,,,,,,,,,,,,,,,,,,,,,,,,0,11,11,11,,,,,,,,,,,,,,,,,,,,,,,,,,,,171.62685180013068,None,['2'],1,[0.5551569000817835],171.62685180013068,None,,,,001,2022_Jan_11_0116,TMTAB,2021.2.3,59.88210416368752,
13,['3'],TMT-A_1_5linestimulus10.png,TMT-A_1_5greenlinestimulus10.png,TMT-A_1_5redlinestimulus10.png,1,3,,,,,,,,,,,,,,,,,,,,,,,,,0,12,12,12,,,,,,,,,,,,,,,,,,,,,,,,,,,,172.2775999000296,None,['3'],1,[0.7655048000160605],172.2775999000296,None,,,,001,2022_Jan_11_0116,TMTAB,2021.2.3,59.88210416368752,
14,['1'],TMT-A_1_5linestimulus11.png,TMT-A_1_5greenlinestimulus11.png,TMT-A_1_5redlinestimulus11.png,None,1,,,,,,,,,,,,,,,,,,,,,,,,,0,13,13,13,,,,,,,,,,,,,,,,,,,,,,,,,,,,173.12799519998953,None,['1'],1,[0.812134699895978],173.12799519998953,None,,,,001,2022_Jan_11_0116,TMTAB,2021.2.3,59.88210416368752,
15,['3'],TMT-A_1_5linestimulus12.png,TMT-A_1_5greenlinestimulus12.png,TMT-A_1_5redlinestimulus12.png,None,3,,,,,,,,,,,,,,,,,,,,,,,,,0,14,14,14,,,,,,,,,,,,,,,,,,,,,,,,,,,,174.01138640008867,None,['3'],1,[0.8748283998575062],174.01138640008867,None,,,,001,2022_Jan_11_0116,TMTAB,2021.2.3,59.88210416368752,
16,['2'],TMT-A_1_5linestimulus13.png,TMT-A_1_5greenlinestimulus13.png,TMT-A_1_5redlinestimulus13.png,None,2,,,,,,,,,,,,,,,,,,,,,,,,,0,15,15,15,,,,,,,,,,,,,,,,,,,,,,,,,,,,174.97874290007167,None,['2'],1,[1.3673523000907153],174.97874290007167,None,,,,001,2022_Jan_11_0116,TMTAB,2021.2.3,59.88210416368752,
17,['1'],TMT-A_1_5linestimulus14.png,TMT-A_1_5greenlinestimulus14.png,TMT-A_1_5redlinestimulus14.png,None,1,,,,,,,,,,,,,,,,,,,,,,,,,0,16,16,16,,,,,,,,,,,,,,,,,,,,,,,,,,,,176.42920390004292,None,['1'],1,[0.644926399923861],176.42920390004292,None,,,,001,2022_Jan_11_0116,TMTAB,2021.2.3,59.88210416368752,
18,['3'],TMT-A_1_5linestimulus15.png,TMT-A_1_5greenlinestimulus15.png,TMT-A_1_5redlinestimulus15.png,None,3,,,,,,,,,,,,,,,,,,,,,,,,,0,17,17,17,,,,,,,,,,,,,,,,,,,,,,,,,,,,177.16301969997585,None,['3'],1,[0.6678200999740511],177.16301969997585,None,,,,001,2022_Jan_11_0116,TMTAB,2021.2.3,59.88210416368752,
19,['1'],TMT-A_1_5linestimulus16.png,TMT-A_1_5greenlinestimulus16.png,TMT-A_1_5redlinestimulus16.png,None,1,,,,,,,,,,,,,,,,,,,,,,,,,0,18,18,18,,,,,,,,,,,,,,,,,,,,,,,,,,,,177.8965530002024,None,['1'],1,[0.6694179999176413],177.8965530002024,None,,,,001,2022_Jan_11_0116,TMTAB,2021.2.3,59.88210416368752,
20,['3'],TMT-A_1_5linestimulus17.png,TMT-A_1_5greenlinestimulus17.png,TMT-A_1_5redlinestimulus17.png,None,3,,,,,,,,,,,,,,,,,,,,,,,,,0,19,19,19,,,,,,,,,,,,,,,,,,,,,,,,,,,,178.64724180009216,None,['3'],1,[0.6136680000927299],178.64724180009216,None,,,,001,2022_Jan_11_0116,TMTAB,2021.2.3,59.88210416368752,
21,['1'],TMT-A_1_5linestimulus18.png,TMT-A_1_5greenlinestimulus18.png,TMT-A_1_5redlinestimulus18.png,None,1,,,,,,,,,,,,,,,,,,,,,,,,,0,20,20,20,,,,,,,,,,,,,,,,,,,,,,,,,,,,179.34743570000865,None,['1'],1,[0.585059099830687],179.34743570000865,None,,,,001,2022_Jan_11_0116,TMTAB,2021.2.3,59.88210416368752,
22,['3'],TMT-A_1_5linestimulus19.png,TMT-A_1_5greenlinestimulus19.png,TMT-A_1_5redlinestimulus19.png,None,3,,,,,,,,,,,,,,,,,,,,,,,,,0,21,21,21,,,,,,,,,,,,,,,,,,,,,,,,,,,,180.01393380016088,None,['3'],1,[0.8152743999380618],180.01393380016088,None,,,,001,2022_Jan_11_0116,TMTAB,2021.2.3,59.88210416368752,
23,['1'],TMT-A_1_5linestimulus20.png,TMT-A_1_5greenlinestimulus20.png,TMT-A_1_5redlinestimulus20.png,None,1,,,,,,,,,,,,,,,,,,,,,,,,,0,22,22,22,,,,,,,,,,,,,,,,,,,,,,,,,,,,180.9148002001457,None,['1'],1,[0.606708100065589],180.9148002001457,None,,,,001,2022_Jan_11_0116,TMTAB,2021.2.3,59.88210416368752,
24,['3'],TMT-A_1_5linestimulus21.png,TMT-A_1_5greenlinestimulus21.png,TMT-A_1_5redlinestimulus21.png,None,3,,,,,,,,,,,,,,,,,,,,,,,,,0,23,23,23,,,,,,,,,,,,,,,,,,,,,,,,,,,,181.61525140004233,None,['3'],1,[0.5419507001060992],181.61525140004233,None,,,,001,2022_Jan_11_0116,TMTAB,2021.2.3,59.88210416368752,
25,['2'],TMT-A_1_5linestimulus22.png,TMT-A_1_5greenlinestimulus22.png,TMT-A_1_5redlinestimulus22.png,None,2,,,,,,,,,,,,,,,,,,,,,,,,,0,24,24,24,,,,,,,,,,,,,,,,,,,,,,,,,,,,182.24877920001745,None,['2'],1,[0.695705900201574],182.24877920001745,None,,,,001,2022_Jan_11_0116,TMTAB,2021.2.3,59.88210416368752,
None,None,TMT-A_1_5linestimulus23.png,TMT-A_1_5greenlinestimulus23.png,TMT-A_1_5redlinestimulus23.png,None,None,,,,,,,,,,,,,,,,,,,,,,,,,0,25,25,25,,,,,,,,,,,,,,,,,,,,,,,,,,,,183.03257300006226,None,None,1,,183.03257300006226,None,,,,001,2022_Jan_11_0116,TMTAB,2021.2.3,59.88210416368752,
1,['1'],TMT-A_1_6.png,TMT-A_1_6.png,TMT-A_1_6.png,10,1,,,,,,,,,,,,,,,,,,,,,,,,,,,,,0,0,0,0,,,,,,,,,184.0308989000041,None,,,,,,,,,,,,,,187.10107260011137,None,['1'],1,[1.4403186000417918],187.10107260011137,None,,,,001,2022_Jan_11_0116,TMTAB,2021.2.3,59.88210416368752,
2,['3'],TMT-A_1_6.png,TMT-A_1_6firstgreen.png,TMT-A_1_6firstred.png,10,3,,,,,,,,,,,,,,,,,,,,,,,,,,,,,0,1,1,1,,,,,,,,,,,,,,,,,,,,,,,,188.61816560011357,None,['3'],1,[0.676755600143224],188.61816560011357,None,,,,001,2022_Jan_11_0116,TMTAB,2021.2.3,59.88210416368752,
3,['2'],TMT-A_1_6linestimulus0.png,TMT-A_1_6greenlinestimulus0.png,TMT-A_1_6redlinestimulus0.png,10,2,,,,,,,,,,,,,,,,,,,,,,,,,,,,,0,2,2,2,,,,,,,,,,,,,,,,,,,,,,,,189.36797500005923,None,['2'],1,[1.6745515000075102],189.36797500005923,None,,,,001,2022_Jan_11_0116,TMTAB,2021.2.3,59.88210416368752,
4,['3'],TMT-A_1_6linestimulus1.png,TMT-A_1_6greenlinestimulus1.png,TMT-A_1_6redlinestimulus1.png,10,3,,,,,,,,,,,,,,,,,,,,,,,,,,,,,0,3,3,3,,,,,,,,,,,,,,,,,,,,,,,,191.13597410009243,None,['3'],1,[0.6661740001291037],191.13597410009243,None,,,,001,2022_Jan_11_0116,TMTAB,2021.2.3,59.88210416368752,
5,['2'],TMT-A_1_6linestimulus2.png,TMT-A_1_6greenlinestimulus2.png,TMT-A_1_6redlinestimulus2.png,10,2,,,,,,,,,,,,,,,,,,,,,,,,,,,,,0,4,4,4,,,,,,,,,,,,,,,,,,,,,,,,191.86975990002975,None,['2'],1,[1.139265300007537],191.86975990002975,None,,,,001,2022_Jan_11_0116,TMTAB,2021.2.3,59.88210416368752,
6,['1'],TMT-A_1_6linestimulus3.png,TMT-A_1_6greenlinestimulus3.png,TMT-A_1_6redlinestimulus3.png,10,1,,,,,,,,,,,,,,,,,,,,,,,,,,,,,0,5,5,5,,,,,,,,,,,,,,,,,,,,,,,,193.10373169998638,None,['1'],1,[0.7848517999518663],193.10373169998638,None,,,,001,2022_Jan_11_0116,TMTAB,2021.2.3,59.88210416368752,
7,['3'],TMT-A_1_6linestimulus4.png,TMT-A_1_6greenlinestimulus4.png,TMT-A_1_6redlinestimulus4.png,10,3,,,,,,,,,,,,,,,,,,,,,,,,,,,,,0,6,6,6,,,,,,,,,,,,,,,,,,,,,,,,193.98748760018498,None,['3'],1,[0.5005924000870436],193.98748760018498,None,,,,001,2022_Jan_11_0116,TMTAB,2021.2.3,59.88210416368752,
8,['1'],TMT-A_1_6linestimulus5.png,TMT-A_1_6greenlinestimulus5.png,TMT-A_1_6redlinestimulus5.png,10,1,,,,,,,,,,,,,,,,,,,,,,,,,,,,,0,7,7,7,,,,,,,,,,,,,,,,,,,,,,,,194.57125280005857,None,['1'],1,[0.6365745000075549],194.57125280005857,None,,,,001,2022_Jan_11_0116,TMTAB,2021.2.3,59.88210416368752,
9,['2'],TMT-A_1_6linestimulus6.png,TMT-A_1_6greenlinestimulus6.png,TMT-A_1_6redlinestimulus6.png,10,2,,,,,,,,,,,,,,,,,,,,,,,,,,,,,0,8,8,8,,,,,,,,,,,,,,,,,,,,,,,,195.28829200007021,None,['2'],1,[0.61110830004327],195.28829200007021,None,,,,001,2022_Jan_11_0116,TMTAB,2021.2.3,59.88210416368752,
10,['1'],TMT-A_1_6linestimulus7.png,TMT-A_1_6greenlinestimulus7.png,TMT-A_1_6redlinestimulus7.png,10,1,,,,,,,,,,,,,,,,,,,,,,,,,,,,,0,9,9,9,,,,,,,,,,,,,,,,,,,,,,,,195.98864540015347,None,['1'],1,[0.6776536998804659],195.98864540015347,None,,,,001,2022_Jan_11_0116,TMTAB,2021.2.3,59.88210416368752,
11,['2'],TMT-A_1_6linestimulus8.png,TMT-A_1_6greenlinestimulus8.png,TMT-A_1_6redlinestimulus8.png,10,2,,,,,,,,,,,,,,,,,,,,,,,,,,,,,0,10,10,10,,,,,,,,,,,,,,,,,,,,,,,,196.75562050007284,None,['2'],1,[0.5595963001251221],196.75562050007284,None,,,,001,2022_Jan_11_0116,TMTAB,2021.2.3,59.88210416368752,
12,['3'],TMT-A_1_6linestimulus9.png,TMT-A_1_6greenlinestimulus9.png,TMT-A_1_6redlinestimulus9.png,10,3,,,,,,,,,,,,,,,,,,,,,,,,,,,,,0,11,11,11,,,,,,,,,,,,,,,,,,,,,,,,197.40590280015022,None,['3'],1,[0.43253410002216697],197.40590280015022,None,,,,001,2022_Jan_11_0116,TMTAB,2021.2.3,59.88210416368752,
13,['2'],TMT-A_1_6linestimulus10.png,TMT-A_1_6greenlinestimulus10.png,TMT-A_1_6redlinestimulus10.png,1,2,,,,,,,,,,,,,,,,,,,,,,,,,,,,,0,12,12,12,,,,,,,,,,,,,,,,,,,,,,,,197.90596910007298,None,['2'],1,[0.6470387000590563],197.90596910007298,None,,,,001,2022_Jan_11_0116,TMTAB,2021.2.3,59.88210416368752,
14,['1'],TMT-A_1_6linestimulus11.png,TMT-A_1_6greenlinestimulus11.png,TMT-A_1_6redlinestimulus11.png,None,1,,,,,,,,,,,,,,,,,,,,,,,,,,,,,0,13,13,13,,,,,,,,,,,,,,,,,,,,,,,,198.6398313001264,None,None,0,,198.6398313001264,None,,,,001,2022_Jan_11_0116,TMTAB,2021.2.3,59.88210416368752,
15,['3'],TMT-A_1_6linestimulus12.png,TMT-A_1_6greenlinestimulus12.png,TMT-A_1_6redlinestimulus12.png,None,3,,,,,,,,,,,,,,,,,,,,,,,,,,,,,0,14,14,14,,,,,,,,,,,,,,,,,,,,,,,,198.87237002025358,None,None,0,,198.87237002025358,None,,,,001,2022_Jan_11_0116,TMTAB,2021.2.3,59.88210416368752,
16,['1'],TMT-A_1_6linestimulus13.png,TMT-A_1_6greenlinestimulus13.png,TMT-A_1_6redlinestimulus13.png,None,1,,,,,,,,,,,,,,,,,,,,,,,,,,,,,0,15,15,15,,,,,,,,,,,,,,,,,,,,,,,,198.93831434031017,None,None,0,,198.93831434031017,None,,,,001,2022_Jan_11_0116,TMTAB,2021.2.3,59.88210416368752,
17,['3'],TMT-A_1_6linestimulus14.png,TMT-A_1_6greenlinestimulus14.png,TMT-A_1_6redlinestimulus14.png,None,3,,,,,,,,,,,,,,,,,,,,,,,,,,,,,0,16,16,16,,,,,,,,,,,,,,,,,,,,,,,,199.00425866036676,None,None,0,,199.00425866036676,None,,,,001,2022_Jan_11_0116,TMTAB,2021.2.3,59.88210416368752,
18,['1'],TMT-A_1_6linestimulus15.png,TMT-A_1_6greenlinestimulus15.png,TMT-A_1_6redlinestimulus15.png,None,1,,,,,,,,,,,,,,,,,,,,,,,,,,,,,0,17,17,17,,,,,,,,,,,,,,,,,,,,,,,,199.0537169004092,None,None,0,,199.0537169004092,None,,,,001,2022_Jan_11_0116,TMTAB,2021.2.3,59.88210416368752,
19,['2'],TMT-A_1_6linestimulus16.png,TMT-A_1_6greenlinestimulus16.png,TMT-A_1_6redlinestimulus16.png,None,2,,,,,,,,,,,,,,,,,,,,,,,,,,,,,0,18,18,18,,,,,,,,,,,,,,,,,,,,,,,,199.1196612204658,None,None,0,,199.1196612204658,None,,,,001,2022_Jan_11_0116,TMTAB,2021.2.3,59.88210416368752,
20,['3'],TMT-A_1_6linestimulus17.png,TMT-A_1_6greenlinestimulus17.png,TMT-A_1_6redlinestimulus17.png,None,3,,,,,,,,,,,,,,,,,,,,,,,,,,,,,0,19,19,19,,,,,,,,,,,,,,,,,,,,,,,,199.16911946050823,None,None,0,,199.16911946050823,None,,,,001,2022_Jan_11_0116,TMTAB,2021.2.3,59.88210416368752,
21,['2'],TMT-A_1_6linestimulus18.png,TMT-A_1_6greenlinestimulus18.png,TMT-A_1_6redlinestimulus18.png,None,2,,,,,,,,,,,,,,,,,,,,,,,,,,,,,0,20,20,20,,,,,,,,,,,,,,,,,,,,,,,,199.23506378056481,None,None,0,,199.23506378056481,None,,,,001,2022_Jan_11_0116,TMTAB,2021.2.3,59.88210416368752,
22,['1'],TMT-A_1_6linestimulus19.png,TMT-A_1_6greenlinestimulus19.png,TMT-A_1_6redlinestimulus19.png,None,1,,,,,,,,,,,,,,,,,,,,,,,,,,,,,0,21,21,21,,,,,,,,,,,,,,,,,,,,,,,,199.3010081006214,None,None,0,,199.3010081006214,None,,,,001,2022_Jan_11_0116,TMTAB,2021.2.3,59.88210416368752,
23,['3'],TMT-A_1_6linestimulus20.png,TMT-A_1_6greenlinestimulus20.png,TMT-A_1_6redlinestimulus20.png,None,3,,,,,,,,,,,,,,,,,,,,,,,,,,,,,0,22,22,22,,,,,,,,,,,,,,,,,,,,,,,,199.35046634066384,None,None,0,,199.35046634066384,None,,,,001,2022_Jan_11_0116,TMTAB,2021.2.3,59.88210416368752,
24,['2'],TMT-A_1_6linestimulus21.png,TMT-A_1_6greenlinestimulus21.png,TMT-A_1_6redlinestimulus21.png,None,2,,,,,,,,,,,,,,,,,,,,,,,,,,,,,0,23,23,23,,,,,,,,,,,,,,,,,,,,,,,,199.41641066072043,None,None,0,,199.41641066072043,None,,,,001,2022_Jan_11_0116,TMTAB,2021.2.3,59.88210416368752,
25,['3'],TMT-A_1_6linestimulus22.png,TMT-A_1_6greenlinestimulus22.png,TMT-A_1_6redlinestimulus22.png,None,3,,,,,,,,,,,,,,,,,,,,,,,,,,,,,0,24,24,24,,,,,,,,,,,,,,,,,,,,,,,,199.46586890076287,None,None,0,,199.46586890076287,None,,,,001,2022_Jan_11_0116,TMTAB,2021.2.3,59.88210416368752,
None,None,TMT-A_1_6linestimulus23.png,TMT-A_1_6greenlinestimulus23.png,TMT-A_1_6redlinestimulus23.png,None,None,,,,,,,,,,,,,,,,,,,,,,,,,,,,,0,25,25,25,,,,,,,,,,,,,,,,,,,,,,,,199.53181322081946,None,None,1,,199.53181322081946,None,,,,001,2022_Jan_11_0116,TMTAB,2021.2.3,59.88210416368752,
,,,,,,,,,,,,,,,,,,,,,,,,,,,,,,,,,,,,,,,,,,,,,,,,,,,,,,,,,,,,,,,,,,,,,199.5379596001003,None,,,,,,,
