NumberLetter,corrAns,StimFile,Correct_StimFile,False_StimFile,DurationTrial,restartpractice.thisRepN,restartpractice.thisTrialN,restartpractice.thisN,restartpractice.thisIndex,trials_practice.thisRepN,trials_practice.thisTrialN,trials_practice.thisN,trials_practice.thisIndex,trials.thisRepN,trials.thisTrialN,trials.thisN,trials.thisIndex,trials_2.thisRepN,trials_2.thisTrialN,trials_2.thisN,trials_2.thisIndex,trials_3.thisRepN,trials_3.thisTrialN,trials_3.thisN,trials_3.thisIndex,trials_4.thisRepN,trials_4.thisTrialN,trials_4.thisN,trials_4.thisIndex,trials_5.thisRepN,trials_5.thisTrialN,trials_5.thisN,trials_5.thisIndex,trials_6.thisRepN,trials_6.thisTrialN,trials_6.thisN,trials_6.thisIndex,Instruct.started,Instruct.stopped,image_2.started,image_2.stopped,key_resp_6.keys,key_resp_6.rt,key_resp_6.started,key_resp_6.stopped,polygon.started,polygon.stopped,Stim_practice.started,Stim_practice.stopped,key_resp_practice.keys,key_resp_practice.corr,key_resp_practice.rt,key_resp_practice.started,key_resp_practice.stopped,text_5.started,text_5.stopped,key_resp_5.keys,key_resp_5.rt,key_resp_5.started,key_resp_5.stopped,Stim.started,Stim.stopped,key_resp_2.keys,key_resp_2.corr,key_resp_2.rt,key_resp_2.started,key_resp_2.stopped,text.started,text.stopped,participant,session,date,expName,psychopyVersion,frameRate,
,,,,,,,,,,,,,,,,,,,,,,,,,,,,,,,,,,,,,,7.23528379999334,None,7.944113799996558,None,2,0.33448249999491964,7.944113799996558,None,,,,,,,,,,,,,,,,,,,,,,,,,,001,2021_Nov_17_1648,TMTAB,2021.2.3,145.20848309921107,
1,1,TMT-A_1_practice.png,TMT-A_1_practice.png,TMT-A_1_practice.png,10,0,0,0,0,0,0,0,0,,,,,,,,,,,,,,,,,,,,,,,,,,,,,,,,,8.299130399987916,None,11.384081899988814,None,1,1,0.5936905999988085,11.384081899988814,None,,,,,,,,,,,,,,,,,001,2021_Nov_17_1648,TMTAB,2021.2.3,145.20848309921107,
2,2,TMT-A_1_practice.png,TMT-A_1_practicefirstgreen.png,TMT-A_1_practicefirstred.png,10,0,0,0,0,0,1,1,1,,,,,,,,,,,,,,,,,,,,,,,,,,,,,,,,,,,12.042641399995773,None,2,1,0.013237099992693402,12.042641399995773,None,,,,,,,,,,,,,,,,,001,2021_Nov_17_1648,TMTAB,2021.2.3,145.20848309921107,
3,3,TMT-A_1_practicelinestimulus0.png,TMT-A_1_practicegreenlinestimulus0.png,TMT-A_1_practiceredlinestimulus0.png,10,0,0,0,0,0,2,2,2,,,,,,,,,,,,,,,,,,,,,,,,,,,,,,,,,,,12.126485999993747,None,3,1,0.030779399996390566,12.126485999993747,None,,,,,,,,,,,,,,,,,001,2021_Nov_17_1648,TMTAB,2021.2.3,145.20848309921107,
4,1,TMT-A_1_practicelinestimulus1.png,TMT-A_1_practicegreenlinestimulus1.png,TMT-A_1_practiceredlinestimulus1.png,10,0,0,0,0,0,3,3,3,,,,,,,,,,,,,,,,,,,,,,,,,,,,,,,,,,,12.22997439999017,None,1,1,0.07589100000041071,12.22997439999017,None,,,,,,,,,,,,,,,,,001,2021_Nov_17_1648,TMTAB,2021.2.3,145.20848309921107,
5,2,TMT-A_1_practicelinestimulus2.png,TMT-A_1_practicegreenlinestimulus2.png,TMT-A_1_practiceredlinestimulus2.png,10,0,0,0,0,0,4,4,4,,,,,,,,,,,,,,,,,,,,,,,,,,,,,,,,,,,12.38271099999838,None,3,0,0.10369839999475516,12.38271099999838,None,,,,,,,,,,,,,,,,,001,2021_Nov_17_1648,TMTAB,2021.2.3,145.20848309921107,
6,3,TMT-A_1_practicelinestimulus3.png,TMT-A_1_practicegreenlinestimulus3.png,TMT-A_1_practiceredlinestimulus3.png,10,0,0,0,0,0,5,5,5,,,,,,,,,,,,,,,,,,,,,,,,,,,,,,,,,,,12.556593899993459,None,1,0,0.161412500005099,12.556593899993459,None,,,,,,,,,,,,,,,,,001,2021_Nov_17_1648,TMTAB,2021.2.3,145.20848309921107,
7,1,TMT-A_1_practicelinestimulus4.png,TMT-A_1_practicegreenlinestimulus4.png,TMT-A_1_practiceredlinestimulus4.png,10,0,0,0,0,0,6,6,6,,,,,,,,,,,,,,,,,,,,,,,,,,,,,,,,,,,12.792507599995588,None,1,1,0.49331740000343416,12.792507599995588,None,,,,,,,,,,,,,,,,,001,2021_Nov_17_1648,TMTAB,2021.2.3,145.20848309921107,
8,3,TMT-A_1_practicelinestimulus5.png,TMT-A_1_practicegreenlinestimulus5.png,TMT-A_1_practiceredlinestimulus5.png,10,0,0,0,0,0,7,7,7,,,,,,,,,,,,,,,,,,,,,,,,,,,,,,,,,,,13.361976999993203,None,3,1,0.11508859999594279,13.361976999993203,None,,,,,,,,,,,,,,,,,001,2021_Nov_17_1648,TMTAB,2021.2.3,145.20848309921107,
9,2,TMT-A_1_practicelinestimulus6.png,TMT-A_1_practicegreenlinestimulus6.png,TMT-A_1_practiceredlinestimulus6.png,10,0,0,0,0,0,8,8,8,,,,,,,,,,,,,,,,,,,,,,,,,,,,,,,,,,,13.542665899993153,None,1,0,0.07574479999311734,13.542665899993153,None,,,,,,,,,,,,,,,,,001,2021_Nov_17_1648,TMTAB,2021.2.3,145.20848309921107,
10,3,TMT-A_1_practicelinestimulus7.png,TMT-A_1_practicegreenlinestimulus7.png,TMT-A_1_practiceredlinestimulus7.png,10,0,0,0,0,0,9,9,9,,,,,,,,,,,,,,,,,,,,,,,,,,,,,,,,,,,13.688326399991638,None,2,0,0.06282700000156183,13.688326399991638,None,,,,,,,,,,,,,,,,,001,2021_Nov_17_1648,TMTAB,2021.2.3,145.20848309921107,
11,1,TMT-A_1_practicelinestimulus8.png,TMT-A_1_practicegreenlinestimulus8.png,TMT-A_1_practiceredlinestimulus8.png,10,0,0,0,0,0,10,10,10,,,,,,,,,,,,,,,,,,,,,,,,,,,,,,,,,,,13.827112999992096,None,1,1,0.11088279999967199,13.827112999992096,None,,,,,,,,,,,,,,,,,001,2021_Nov_17_1648,TMTAB,2021.2.3,145.20848309921107,
12,2,TMT-A_1_practicelinestimulus9.png,TMT-A_1_practicegreenlinestimulus9.png,TMT-A_1_practiceredlinestimulus9.png,10,0,0,0,0,0,11,11,11,,,,,,,,,,,,,,,,,,,,,,,,,,,,,,,,,,,14.007737199994153,None,2,1,0.38303799999994226,14.007737199994153,None,,,,,,,,,,,,,,,,,001,2021_Nov_17_1648,TMTAB,2021.2.3,145.20848309921107,
None,None,TMT-A_1_practicelinestimulus10.png,TMT-A_1_practicegreenlinestimulus10.png,TMT-A_1_practiceredlinestimulus10.png,None,0,0,0,0,0,12,12,12,,,,,,,,,,,,,,,,,,,,,,,,,,,,,,,,,,,14.472959599996102,None,None,1,,14.472959599996102,None,,,,,,,,,,,,,,,,,001,2021_Nov_17_1648,TMTAB,2021.2.3,145.20848309921107,
,,,,,,0,0,0,0,,,,,,,,,,,,,,,,,,,,,,,,,,,,,,,,,,,,,,,,,,,,,,15.512190499997814,None,2,1.2228260999982012,15.512190499997814,None,,,,,,,,,,,001,2021_Nov_17_1648,TMTAB,2021.2.3,145.20848309921107,
1,['3'],TMT-A_1_1.png,TMT-A_1_1.png,TMT-A_1_1.png,10,,,,,,,,,0,0,0,0,,,,,,,,,,,,,,,,,,,,,,,,,,,,,16.748471999992034,None,,,,,,,,,,,,,,19.820603499989375,None,['2'],0,[0.34433909998915624],19.820603499989375,None,,,,001,2021_Nov_17_1648,TMTAB,2021.2.3,145.20848309921107,
2,['2'],TMT-A_1_1.png,TMT-A_1_1firstgreen.png,TMT-A_1_1firstred.png,10,,,,,,,,,0,1,1,1,,,,,,,,,,,,,,,,,,,,,,,,,,,,,,,,,,,,,,,,,,,,20.236716899991734,None,['3'],0,[0.11443070000677835],20.236716899991734,None,,,,001,2021_Nov_17_1648,TMTAB,2021.2.3,145.20848309921107,
3,['3'],TMT-A_1_1linestimulus0.png,TMT-A_1_1greenlinestimulus0.png,TMT-A_1_1redlinestimulus0.png,10,,,,,,,,,0,2,2,2,,,,,,,,,,,,,,,,,,,,,,,,,,,,,,,,,,,,,,,,,,,,20.424172400002135,None,['1'],0,[-0.008691299997735769],20.424172400002135,None,,,,001,2021_Nov_17_1648,TMTAB,2021.2.3,145.20848309921107,
4,['1'],TMT-A_1_1linestimulus1.png,TMT-A_1_1greenlinestimulus1.png,TMT-A_1_1redlinestimulus1.png,10,,,,,,,,,0,3,3,3,,,,,,,,,,,,,,,,,,,,,,,,,,,,,,,,,,,,,,,,,,,,20.50063689998933,None,['2'],0,[0.10331979999318719],20.50063689998933,None,,,,001,2021_Nov_17_1648,TMTAB,2021.2.3,145.20848309921107,
5,['3'],TMT-A_1_1linestimulus2.png,TMT-A_1_1greenlinestimulus2.png,TMT-A_1_1redlinestimulus2.png,10,,,,,,,,,0,4,4,4,,,,,,,,,,,,,,,,,,,,,,,,,,,,,,,,,,,,,,,,,,,,20.674591399991186,None,['3'],1,[-0.047403999997186475],20.674591399991186,None,,,,001,2021_Nov_17_1648,TMTAB,2021.2.3,145.20848309921107,
6,['2'],TMT-A_1_1linestimulus3.png,TMT-A_1_1greenlinestimulus3.png,TMT-A_1_1redlinestimulus3.png,10,,,,,,,,,0,5,5,5,,,,,,,,,,,,,,,,,,,,,,,,,,,,,,,,,,,,,,,,,,,,20.750890700001037,None,['1'],0,[0.006655799996224232],20.750890700001037,None,,,,001,2021_Nov_17_1648,TMTAB,2021.2.3,145.20848309921107,
7,['1'],TMT-A_1_1linestimulus4.png,TMT-A_1_1greenlinestimulus4.png,TMT-A_1_1redlinestimulus4.png,10,,,,,,,,,0,6,6,6,,,,,,,,,,,,,,,,,,,,,,,,,,,,,,,,,,,,,,,,,,,,20.83433800000057,None,['2'],0,[0.0645747999951709],20.83433800000057,None,,,,001,2021_Nov_17_1648,TMTAB,2021.2.3,145.20848309921107,
8,['2'],TMT-A_1_1linestimulus5.png,TMT-A_1_1greenlinestimulus5.png,TMT-A_1_1redlinestimulus5.png,10,,,,,,,,,0,7,7,7,,,,,,,,,,,,,,,,,,,,,,,,,,,,,,,,,,,,,,,,,,,,20.972859899993637,None,['3'],0,[-0.026555899996310472],20.972859899993637,None,,,,001,2021_Nov_17_1648,TMTAB,2021.2.3,145.20848309921107,
9,['1'],TMT-A_1_1linestimulus6.png,TMT-A_1_1greenlinestimulus6.png,TMT-A_1_1redlinestimulus6.png,10,,,,,,,,,0,8,8,8,,,,,,,,,,,,,,,,,,,,,,,,,,,,,,,,,,,,,,,,,,,,21.04257539998798,None,['1'],1,[0.027047900002798997],21.04257539998798,None,,,,001,2021_Nov_17_1648,TMTAB,2021.2.3,145.20848309921107,
10,['3'],TMT-A_1_1linestimulus7.png,TMT-A_1_1greenlinestimulus7.png,TMT-A_1_1redlinestimulus7.png,10,,,,,,,,,0,9,9,9,,,,,,,,,,,,,,,,,,,,,,,,,,,,,,,,,,,,,,,,,,,,21.13951619999716,None,['2'],0,[0.029582699993625283],21.13951619999716,None,,,,001,2021_Nov_17_1648,TMTAB,2021.2.3,145.20848309921107,
11,['2'],TMT-A_1_1linestimulus8.png,TMT-A_1_1greenlinestimulus8.png,TMT-A_1_1redlinestimulus8.png,10,,,,,,,,,0,10,10,10,,,,,,,,,,,,,,,,,,,,,,,,,,,,,,,,,,,,,,,,,,,,21.244903099999647,None,['3'],0,[0.010999100006301887],21.244903099999647,None,,,,001,2021_Nov_17_1648,TMTAB,2021.2.3,145.20848309921107,
12,['1'],TMT-A_1_1linestimulus9.png,TMT-A_1_1greenlinestimulus9.png,TMT-A_1_1redlinestimulus9.png,10,,,,,,,,,0,11,11,11,,,,,,,,,,,,,,,,,,,,,,,,,,,,,,,,,,,,,,,,,,,,21.327316700000665,None,['1'],1,[0.11724429999594577],21.327316700000665,None,,,,001,2021_Nov_17_1648,TMTAB,2021.2.3,145.20848309921107,
13,['2'],TMT-A_1_1linestimulus10.png,TMT-A_1_1greenlinestimulus10.png,TMT-A_1_1redlinestimulus10.png,1,,,,,,,,,0,12,12,12,,,,,,,,,,,,,,,,,,,,,,,,,,,,,,,,,,,,,,,,,,,,21.521532899991143,None,['1'],0,[0.41858399999910034],21.521532899991143,None,,,,001,2021_Nov_17_1648,TMTAB,2021.2.3,145.20848309921107,
14,['3'],TMT-A_1_1linestimulus11.png,TMT-A_1_1greenlinestimulus11.png,TMT-A_1_1redlinestimulus11.png,None,,,,,,,,,0,13,13,13,,,,,,,,,,,,,,,,,,,,,,,,,,,,,,,,,,,,,,,,,,,,22.036447999998927,None,"['3', '2']",0,"[0.0739021000044886, 0.07728660000429954]",22.036447999998927,None,,,,001,2021_Nov_17_1648,TMTAB,2021.2.3,145.20848309921107,
15,['2'],TMT-A_1_1linestimulus12.png,TMT-A_1_1greenlinestimulus12.png,TMT-A_1_1redlinestimulus12.png,None,,,,,,,,,0,14,14,14,,,,,,,,,,,,,,,,,,,,,,,,,,,,,,,,,,,,,,,,,,,,22.204239499988034,None,['1'],0,[0.052032299994607456],22.204239499988034,None,,,,001,2021_Nov_17_1648,TMTAB,2021.2.3,145.20848309921107,
16,['1'],TMT-A_1_1linestimulus13.png,TMT-A_1_1greenlinestimulus13.png,TMT-A_1_1redlinestimulus13.png,None,,,,,,,,,0,15,15,15,,,,,,,,,,,,,,,,,,,,,,,,,,,,,,,,,,,,,,,,,,,,22.335107199993217,None,['2'],0,[0.056778700003633276],22.335107199993217,None,,,,001,2021_Nov_17_1648,TMTAB,2021.2.3,145.20848309921107,
17,['3'],TMT-A_1_1linestimulus14.png,TMT-A_1_1greenlinestimulus14.png,TMT-A_1_1redlinestimulus14.png,None,,,,,,,,,0,16,16,16,,,,,,,,,,,,,,,,,,,,,,,,,,,,,,,,,,,,,,,,,,,,22.472845099997357,None,['3'],1,[-0.044352600001730025],22.472845099997357,None,,,,001,2021_Nov_17_1648,TMTAB,2021.2.3,145.20848309921107,
18,['2'],TMT-A_1_1linestimulus15.png,TMT-A_1_1greenlinestimulus15.png,TMT-A_1_1redlinestimulus15.png,None,,,,,,,,,0,17,17,17,,,,,,,,,,,,,,,,,,,,,,,,,,,,,,,,,,,,,,,,,,,,22.54231589999108,None,['1'],0,[0.19748729999992065],22.54231589999108,None,,,,001,2021_Nov_17_1648,TMTAB,2021.2.3,145.20848309921107,
19,['1'],TMT-A_1_1linestimulus16.png,TMT-A_1_1greenlinestimulus16.png,TMT-A_1_1redlinestimulus16.png,None,,,,,,,,,0,18,18,18,,,,,,,,,,,,,,,,,,,,,,,,,,,,,,,,,,,,,,,,,,,,22.820200299989665,None,['3'],0,[0.06726690000505187],22.820200299989665,None,,,,001,2021_Nov_17_1648,TMTAB,2021.2.3,145.20848309921107,
20,['3'],TMT-A_1_1linestimulus17.png,TMT-A_1_1greenlinestimulus17.png,TMT-A_1_1redlinestimulus17.png,None,,,,,,,,,0,19,19,19,,,,,,,,,,,,,,,,,,,,,,,,,,,,,,,,,,,,,,,,,,,,22.973085299992817,None,['2'],0,[0.7351422000065213],22.973085299992817,None,,,,001,2021_Nov_17_1648,TMTAB,2021.2.3,145.20848309921107,
21,['2'],TMT-A_1_1linestimulus18.png,TMT-A_1_1greenlinestimulus18.png,TMT-A_1_1redlinestimulus18.png,None,,,,,,,,,0,20,20,20,,,,,,,,,,,,,,,,,,,,,,,,,,,,,,,,,,,,,,,,,,,,23.778349000000162,None,['1'],0,[0.4886751999874832],23.778349000000162,None,,,,001,2021_Nov_17_1648,TMTAB,2021.2.3,145.20848309921107,
22,['1'],TMT-A_1_1linestimulus19.png,TMT-A_1_1greenlinestimulus19.png,TMT-A_1_1redlinestimulus19.png,None,,,,,,,,,0,21,21,21,,,,,,,,,,,,,,,,,,,,,,,,,,,,,,,,,,,,,,,,,,,,24.34786449999956,None,['1'],1,[0.567048099997919],24.34786449999956,None,,,,001,2021_Nov_17_1648,TMTAB,2021.2.3,145.20848309921107,
23,['3'],TMT-A_1_1linestimulus20.png,TMT-A_1_1greenlinestimulus20.png,TMT-A_1_1redlinestimulus20.png,None,,,,,,,,,0,22,22,22,,,,,,,,,,,,,,,,,,,,,,,,,,,,,,,,,,,,,,,,,,,,24.986797699995805,None,['3'],1,[0.4374736000027042],24.986797699995805,None,,,,001,2021_Nov_17_1648,TMTAB,2021.2.3,145.20848309921107,
24,['2'],TMT-A_1_1linestimulus21.png,TMT-A_1_1greenlinestimulus21.png,TMT-A_1_1redlinestimulus21.png,None,,,,,,,,,0,23,23,23,,,,,,,,,,,,,,,,,,,,,,,,,,,,,,,,,,,,,,,,,,,,25.507448999996996,None,['2'],1,[1.5329981000104453],25.507448999996996,None,,,,001,2021_Nov_17_1648,TMTAB,2021.2.3,145.20848309921107,
25,['3'],TMT-A_1_1linestimulus22.png,TMT-A_1_1greenlinestimulus22.png,TMT-A_1_1redlinestimulus22.png,None,,,,,,,,,0,24,24,24,,,,,,,,,,,,,,,,,,,,,,,,,,,,,,,,,,,,,,,,,,,,27.118673999997554,None,['3'],1,[1.3871901000093203],27.118673999997554,None,,,,001,2021_Nov_17_1648,TMTAB,2021.2.3,145.20848309921107,
None,None,TMT-A_1_1linestimulus23.png,TMT-A_1_1greenlinestimulus23.png,TMT-A_1_1redlinestimulus23.png,None,,,,,,,,,0,25,25,25,,,,,,,,,,,,,,,,,,,,,,,,,,,,,,,,,,,,,,,,,,,,28.576892600001884,None,['3'],0,[0.18369609999353997],28.576892600001884,None,,,,001,2021_Nov_17_1648,TMTAB,2021.2.3,145.20848309921107,
1,['2'],TMT-A_1_2.png,TMT-A_1_2.png,TMT-A_1_2.png,10,,,,,,,,,,,,,0,0,0,0,,,,,,,,,,,,,,,,,,,,,,,,,28.782508799995412,None,,,,,,,,,,,,,,31.847645399990142,None,['1'],0,[0.9788917999976547],31.847645399990142,None,,,,001,2021_Nov_17_1648,TMTAB,2021.2.3,145.20848309921107,
2,['1'],TMT-A_1_2.png,TMT-A_1_2firstgreen.png,TMT-A_1_2firstred.png,10,,,,,,,,,,,,,0,1,1,1,,,,,,,,,,,,,,,,,,,,,,,,,,,,,,,,,,,,,,,,32.90308269999514,None,['2'],0,[0.2619534000114072],32.90308269999514,None,,,,001,2021_Nov_17_1648,TMTAB,2021.2.3,145.20848309921107,
3,['2'],TMT-A_1_2linestimulus0.png,TMT-A_1_2greenlinestimulus0.png,TMT-A_1_2redlinestimulus0.png,10,,,,,,,,,,,,,0,2,2,2,,,,,,,,,,,,,,,,,,,,,,,,,,,,,,,,,,,,,,,,33.23652469999797,None,['3'],0,[0.15243760000157636],33.23652469999797,None,,,,001,2021_Nov_17_1648,TMTAB,2021.2.3,145.20848309921107,
4,['3'],TMT-A_1_2linestimulus1.png,TMT-A_1_2greenlinestimulus1.png,TMT-A_1_2redlinestimulus1.png,10,,,,,,,,,,,,,0,3,3,3,,,,,,,,,,,,,,,,,,,,,,,,,,,,,,,,,,,,,,,,33.47255979999318,None,['1'],0,[0.1521082999970531],33.47255979999318,None,,,,001,2021_Nov_17_1648,TMTAB,2021.2.3,145.20848309921107,
5,['1'],TMT-A_1_2linestimulus2.png,TMT-A_1_2greenlinestimulus2.png,TMT-A_1_2redlinestimulus2.png,10,,,,,,,,,,,,,0,4,4,4,,,,,,,,,,,,,,,,,,,,,,,,,,,,,,,,,,,,,,,,33.70162779999373,None,['2'],0,[1.0417908000090392],33.70162779999373,None,,,,001,2021_Nov_17_1648,TMTAB,2021.2.3,145.20848309921107,
6,['3'],TMT-A_1_2linestimulus3.png,TMT-A_1_2greenlinestimulus3.png,TMT-A_1_2redlinestimulus3.png,10,,,,,,,,,,,,,0,5,5,5,,,,,,,,,,,,,,,,,,,,,,,,,,,,,,,,,,,,,,,,34.81294019999041,None,['1'],0,[0.04318770000827499],34.81294019999041,None,,,,001,2021_Nov_17_1648,TMTAB,2021.2.3,145.20848309921107,
7,['2'],TMT-A_1_2linestimulus4.png,TMT-A_1_2greenlinestimulus4.png,TMT-A_1_2redlinestimulus4.png,10,,,,,,,,,,,,,0,6,6,6,,,,,,,,,,,,,,,,,,,,,,,,,,,,,,,,,,,,,,,,34.93781299999682,None,['3'],0,[0.04346369999984745],34.93781299999682,None,,,,001,2021_Nov_17_1648,TMTAB,2021.2.3,145.20848309921107,
8,['3'],TMT-A_1_2linestimulus5.png,TMT-A_1_2greenlinestimulus5.png,TMT-A_1_2redlinestimulus5.png,10,,,,,,,,,,,,,0,7,7,7,,,,,,,,,,,,,,,,,,,,,,,,,,,,,,,,,,,,,,,,35.06280079999124,None,['1'],0,[0.08342520000587683],35.06280079999124,None,,,,001,2021_Nov_17_1648,TMTAB,2021.2.3,145.20848309921107,
9,['2'],TMT-A_1_2linestimulus6.png,TMT-A_1_2greenlinestimulus6.png,TMT-A_1_2redlinestimulus6.png,10,,,,,,,,,,,,,0,8,8,8,,,,,,,,,,,,,,,,,,,,,,,,,,,,,,,,,,,,,,,,35.21568139998999,None,['3'],0,[0.1306330999941565],35.21568139998999,None,,,,001,2021_Nov_17_1648,TMTAB,2021.2.3,145.20848309921107,
10,['3'],TMT-A_1_2linestimulus7.png,TMT-A_1_2greenlinestimulus7.png,TMT-A_1_2redlinestimulus7.png,10,,,,,,,,,,,,,0,9,9,9,,,,,,,,,,,,,,,,,,,,,,,,,,,,,,,,,,,,,,,,35.41705589999037,None,['1'],0,[0.08383340000000317],35.41705589999037,None,,,,001,2021_Nov_17_1648,TMTAB,2021.2.3,145.20848309921107,
11,['2'],TMT-A_1_2linestimulus8.png,TMT-A_1_2greenlinestimulus8.png,TMT-A_1_2redlinestimulus8.png,10,,,,,,,,,,,,,0,10,10,10,,,,,,,,,,,,,,,,,,,,,,,,,,,,,,,,,,,,,,,,35.56977229999029,None,['2'],1,[0.11481410000124015],35.56977229999029,None,,,,001,2021_Nov_17_1648,TMTAB,2021.2.3,145.20848309921107,
12,['3'],TMT-A_1_2linestimulus9.png,TMT-A_1_2greenlinestimulus9.png,TMT-A_1_2redlinestimulus9.png,10,,,,,,,,,,,,,0,11,11,11,,,,,,,,,,,,,,,,,,,,,,,,,,,,,,,,,,,,,,,,35.764392799988855,None,['1'],0,[0.34576450000167824],35.764392799988855,None,,,,001,2021_Nov_17_1648,TMTAB,2021.2.3,145.20848309921107,
13,['1'],TMT-A_1_2linestimulus10.png,TMT-A_1_2greenlinestimulus10.png,TMT-A_1_2redlinestimulus10.png,1,,,,,,,,,,,,,0,12,12,12,,,,,,,,,,,,,,,,,,,,,,,,,,,,,,,,,,,,,,,,36.18795419999515,None,['2'],0,[0.2770575999893481],36.18795419999515,None,,,,001,2021_Nov_17_1648,TMTAB,2021.2.3,145.20848309921107,
14,['2'],TMT-A_1_2linestimulus11.png,TMT-A_1_2greenlinestimulus11.png,TMT-A_1_2redlinestimulus11.png,None,,,,,,,,,,,,,0,13,13,13,,,,,,,,,,,,,,,,,,,,,,,,,,,,,,,,,,,,,,,,36.53507559999707,None,['3'],0,[0.13563520000025164],36.53507559999707,None,,,,001,2021_Nov_17_1648,TMTAB,2021.2.3,145.20848309921107,
15,['3'],TMT-A_1_2linestimulus12.png,TMT-A_1_2greenlinestimulus12.png,TMT-A_1_2redlinestimulus12.png,None,,,,,,,,,,,,,0,14,14,14,,,,,,,,,,,,,,,,,,,,,,,,,,,,,,,,,,,,,,,,36.74357069999678,None,['1'],0,[0.16979390000051353],36.74357069999678,None,,,,001,2021_Nov_17_1648,TMTAB,2021.2.3,145.20848309921107,
16,['1'],TMT-A_1_2linestimulus13.png,TMT-A_1_2greenlinestimulus13.png,TMT-A_1_2redlinestimulus13.png,None,,,,,,,,,,,,,0,15,15,15,,,,,,,,,,,,,,,,,,,,,,,,,,,,,,,,,,,,,,,,36.99347770000168,None,['3'],0,[0.2445783000002848],36.99347770000168,None,,,,001,2021_Nov_17_1648,TMTAB,2021.2.3,145.20848309921107,
17,['3'],TMT-A_1_2linestimulus14.png,TMT-A_1_2greenlinestimulus14.png,TMT-A_1_2redlinestimulus14.png,None,,,,,,,,,,,,,0,16,16,16,,,,,,,,,,,,,,,,,,,,,,,,,,,,,,,,,,,,,,,,37.319653999991715,None,['1'],0,[0.16210190000128932],37.319653999991715,None,,,,001,2021_Nov_17_1648,TMTAB,2021.2.3,145.20848309921107,
18,['2'],TMT-A_1_2linestimulus15.png,TMT-A_1_2greenlinestimulus15.png,TMT-A_1_2redlinestimulus15.png,None,,,,,,,,,,,,,0,17,17,17,,,,,,,,,,,,,,,,,,,,,,,,,,,,,,,,,,,,,,,,37.555958400000236,None,['3'],0,[0.32305449999694247],37.555958400000236,None,,,,001,2021_Nov_17_1648,TMTAB,2021.2.3,145.20848309921107,
19,['3'],TMT-A_1_2linestimulus16.png,TMT-A_1_2greenlinestimulus16.png,TMT-A_1_2redlinestimulus16.png,None,,,,,,,,,,,,,0,18,18,18,,,,,,,,,,,,,,,,,,,,,,,,,,,,,,,,,,,,,,,,37.9593382999883,None,['1'],0,[0.1513522000022931],37.9593382999883,None,,,,001,2021_Nov_17_1648,TMTAB,2021.2.3,145.20848309921107,
20,['2'],TMT-A_1_2linestimulus17.png,TMT-A_1_2greenlinestimulus17.png,TMT-A_1_2redlinestimulus17.png,None,,,,,,,,,,,,,0,19,19,19,,,,,,,,,,,,,,,,,,,,,,,,,,,,,,,,,,,,,,,,38.180844999995315,None,['3'],0,[0.4334338999906322],38.180844999995315,None,,,,001,2021_Nov_17_1648,TMTAB,2021.2.3,145.20848309921107,
21,['1'],TMT-A_1_2linestimulus18.png,TMT-A_1_2greenlinestimulus18.png,TMT-A_1_2redlinestimulus18.png,None,,,,,,,,,,,,,0,20,20,20,,,,,,,,,,,,,,,,,,,,,,,,,,,,,,,,,,,,,,,,38.69481869999436,None,['3'],0,[1.3401030999957584],38.69481869999436,None,,,,001,2021_Nov_17_1648,TMTAB,2021.2.3,145.20848309921107,
22,['3'],TMT-A_1_2linestimulus19.png,TMT-A_1_2greenlinestimulus19.png,TMT-A_1_2redlinestimulus19.png,None,,,,,,,,,,,,,0,21,21,21,,,,,,,,,,,,,,,,,,,,,,,,,,,,,,,,,,,,,,,,40.10463719999825,None,['3'],1,[0.47028940000745934],40.10463719999825,None,,,,001,2021_Nov_17_1648,TMTAB,2021.2.3,145.20848309921107,
23,['2'],TMT-A_1_2linestimulus20.png,TMT-A_1_2greenlinestimulus20.png,TMT-A_1_2redlinestimulus20.png,None,,,,,,,,,,,,,0,22,22,22,,,,,,,,,,,,,,,,,,,,,,,,,,,,,,,,,,,,,,,,40.65305439999793,None,['3'],0,[3.1911825999995926],40.65305439999793,None,,,,001,2021_Nov_17_1648,TMTAB,2021.2.3,145.20848309921107,
24,['3'],TMT-A_1_2linestimulus21.png,TMT-A_1_2greenlinestimulus21.png,TMT-A_1_2redlinestimulus21.png,None,,,,,,,,,,,,,0,23,23,23,,,,,,,,,,,,,,,,,,,,,,,,,,,,,,,,,,,,,,,,43.91690799999924,None,['3'],1,[0.17800140001054388],43.91690799999924,None,,,,001,2021_Nov_17_1648,TMTAB,2021.2.3,145.20848309921107,
25,['2'],TMT-A_1_2linestimulus22.png,TMT-A_1_2greenlinestimulus22.png,TMT-A_1_2redlinestimulus22.png,None,,,,,,,,,,,,,0,24,24,24,,,,,,,,,,,,,,,,,,,,,,,,,,,,,,,,,,,,,,,,44.173753600000055,None,['3'],0,[1.20160620000388],44.173753600000055,None,,,,001,2021_Nov_17_1648,TMTAB,2021.2.3,145.20848309921107,
None,None,TMT-A_1_2linestimulus23.png,TMT-A_1_2greenlinestimulus23.png,TMT-A_1_2redlinestimulus23.png,None,,,,,,,,,,,,,0,25,25,25,,,,,,,,,,,,,,,,,,,,,,,,,,,,,,,,,,,,,,,,45.44450559999677,None,['3'],0,[0.25875240001187194],45.44450559999677,None,,,,001,2021_Nov_17_1648,TMTAB,2021.2.3,145.20848309921107,
1,['2'],TMT-A_1_3.png,TMT-A_1_3.png,TMT-A_1_3.png,10,,,,,,,,,,,,,,,,,0,0,0,0,,,,,,,,,,,,,,,,,,,,,45.71971669999766,None,,,,,,,,,,,,,,48.78485989999899,None,['1'],0,[4.174397800001316],48.78485989999899,None,,,,001,2021_Nov_17_1648,TMTAB,2021.2.3,145.20848309921107,
2,['3'],TMT-A_1_3.png,TMT-A_1_3firstgreen.png,TMT-A_1_3firstred.png,10,,,,,,,,,,,,,,,,,0,1,1,1,,,,,,,,,,,,,,,,,,,,,,,,,,,,,,,,,,,,53.03452309999557,None,['2'],0,[-0.005153300007805228],53.03452309999557,None,,,,001,2021_Nov_17_1648,TMTAB,2021.2.3,145.20848309921107,
3,['1'],TMT-A_1_3linestimulus0.png,TMT-A_1_3greenlinestimulus0.png,TMT-A_1_3redlinestimulus0.png,10,,,,,,,,,,,,,,,,,0,2,2,2,,,,,,,,,,,,,,,,,,,,,,,,,,,,,,,,,,,,53.11796499999764,None,['3'],0,[0.044042100009392016],53.11796499999764,None,,,,001,2021_Nov_17_1648,TMTAB,2021.2.3,145.20848309921107,
4,['2'],TMT-A_1_3linestimulus1.png,TMT-A_1_3greenlinestimulus1.png,TMT-A_1_3redlinestimulus1.png,10,,,,,,,,,,,,,,,,,0,3,3,3,,,,,,,,,,,,,,,,,,,,,,,,,,,,,,,,,,,,53.23609459999716,None,['1'],0,[0.1413604999979725],53.23609459999716,None,,,,001,2021_Nov_17_1648,TMTAB,2021.2.3,145.20848309921107,
5,['3'],TMT-A_1_3linestimulus2.png,TMT-A_1_3greenlinestimulus2.png,TMT-A_1_3redlinestimulus2.png,10,,,,,,,,,,,,,,,,,0,4,4,4,,,,,,,,,,,,,,,,,,,,,,,,,,,,,,,,,,,,53.45985689999361,None,['2'],0,[-0.01010080000560265],53.45985689999361,None,,,,001,2021_Nov_17_1648,TMTAB,2021.2.3,145.20848309921107,
6,['2'],TMT-A_1_3linestimulus3.png,TMT-A_1_3greenlinestimulus3.png,TMT-A_1_3redlinestimulus3.png,10,,,,,,,,,,,,,,,,,0,5,5,5,,,,,,,,,,,,,,,,,,,,,,,,,,,,,,,,,,,,53.53542249999009,None,['1'],0,[0.32954269999754615],53.53542249999009,None,,,,001,2021_Nov_17_1648,TMTAB,2021.2.3,145.20848309921107,
7,['1'],TMT-A_1_3linestimulus4.png,TMT-A_1_3greenlinestimulus4.png,TMT-A_1_3redlinestimulus4.png,10,,,,,,,,,,,,,,,,,0,6,6,6,,,,,,,,,,,,,,,,,,,,,,,,,,,,,,,,,,,,53.94435549998889,None,['2'],0,[-0.005484599998453632],53.94435549998889,None,,,,001,2021_Nov_17_1648,TMTAB,2021.2.3,145.20848309921107,
8,['2'],TMT-A_1_3linestimulus5.png,TMT-A_1_3greenlinestimulus5.png,TMT-A_1_3redlinestimulus5.png,10,,,,,,,,,,,,,,,,,0,7,7,7,,,,,,,,,,,,,,,,,,,,,,,,,,,,,,,,,,,,54.02119839999068,None,['3'],0,[0.09325049999461044],54.02119839999068,None,,,,001,2021_Nov_17_1648,TMTAB,2021.2.3,145.20848309921107,
9,['1'],TMT-A_1_3linestimulus6.png,TMT-A_1_3greenlinestimulus6.png,TMT-A_1_3redlinestimulus6.png,10,,,,,,,,,,,,,,,,,0,8,8,8,,,,,,,,,,,,,,,,,,,,,,,,,,,,,,,,,,,,54.18055999999342,None,['1'],1,[0.6997550999949453],54.18055999999342,None,,,,001,2021_Nov_17_1648,TMTAB,2021.2.3,145.20848309921107,
10,['2'],TMT-A_1_3linestimulus7.png,TMT-A_1_3greenlinestimulus7.png,TMT-A_1_3redlinestimulus7.png,10,,,,,,,,,,,,,,,,,0,9,9,9,,,,,,,,,,,,,,,,,,,,,,,,,,,,,,,,,,,,54.958368199993856,None,['3'],0,[0.3132620999967912],54.958368199993856,None,,,,001,2021_Nov_17_1648,TMTAB,2021.2.3,145.20848309921107,
11,['1'],TMT-A_1_3linestimulus8.png,TMT-A_1_3greenlinestimulus8.png,TMT-A_1_3redlinestimulus8.png,10,,,,,,,,,,,,,,,,,0,10,10,10,,,,,,,,,,,,,,,,,,,,,,,,,,,,,,,,,,,,55.35420049999084,None,['1'],1,[0.5918898999952944],55.35420049999084,None,,,,001,2021_Nov_17_1648,TMTAB,2021.2.3,145.20848309921107,
12,['3'],TMT-A_1_3linestimulus9.png,TMT-A_1_3greenlinestimulus9.png,TMT-A_1_3redlinestimulus9.png,10,,,,,,,,,,,,,,,,,0,11,11,11,,,,,,,,,,,,,,,,,,,,,,,,,,,,,,,,,,,,56.02136459999019,None,['2'],0,[0.14282490000186954],56.02136459999019,None,,,,001,2021_Nov_17_1648,TMTAB,2021.2.3,145.20848309921107,
13,['1'],TMT-A_1_3linestimulus10.png,TMT-A_1_3greenlinestimulus10.png,TMT-A_1_3redlinestimulus10.png,1,,,,,,,,,,,,,,,,,0,12,12,12,,,,,,,,,,,,,,,,,,,,,,,,,,,,,,,,,,,,56.242789700001595,None,['3'],0,[0.1780237000057241],56.242789700001595,None,,,,001,2021_Nov_17_1648,TMTAB,2021.2.3,145.20848309921107,
14,['2'],TMT-A_1_3linestimulus11.png,TMT-A_1_3greenlinestimulus11.png,TMT-A_1_3redlinestimulus11.png,None,,,,,,,,,,,,,,,,,0,13,13,13,,,,,,,,,,,,,,,,,,,,,,,,,,,,,,,,,,,,56.4860869999975,None,['1'],0,[0.26069970001117326],56.4860869999975,None,,,,001,2021_Nov_17_1648,TMTAB,2021.2.3,145.20848309921107,
15,['3'],TMT-A_1_3linestimulus12.png,TMT-A_1_3greenlinestimulus12.png,TMT-A_1_3redlinestimulus12.png,None,,,,,,,,,,,,,,,,,0,14,14,14,,,,,,,,,,,,,,,,,,,,,,,,,,,,,,,,,,,,56.81924579999759,None,['2'],0,[0.14550810000218917],56.81924579999759,None,,,,001,2021_Nov_17_1648,TMTAB,2021.2.3,145.20848309921107,
16,['2'],TMT-A_1_3linestimulus13.png,TMT-A_1_3greenlinestimulus13.png,TMT-A_1_3redlinestimulus13.png,None,,,,,,,,,,,,,,,,,0,15,15,15,,,,,,,,,,,,,,,,,,,,,,,,,,,,,,,,,,,,57.034676399998716,None,['3'],0,[0.04984350000449922],57.034676399998716,None,,,,001,2021_Nov_17_1648,TMTAB,2021.2.3,145.20848309921107,
17,['3'],TMT-A_1_3linestimulus14.png,TMT-A_1_3greenlinestimulus14.png,TMT-A_1_3redlinestimulus14.png,None,,,,,,,,,,,,,,,,,0,16,16,16,,,,,,,,,,,,,,,,,,,,,,,,,,,,,,,,,,,,57.159354699993855,None,['1'],0,[0.18244820000836626],57.159354699993855,None,,,,001,2021_Nov_17_1648,TMTAB,2021.2.3,145.20848309921107,
18,['2'],TMT-A_1_3linestimulus15.png,TMT-A_1_3greenlinestimulus15.png,TMT-A_1_3redlinestimulus15.png,None,,,,,,,,,,,,,,,,,0,17,17,17,,,,,,,,,,,,,,,,,,,,,,,,,,,,,,,,,,,,57.423352799989516,None,['2'],1,[0.36565419999533333],57.423352799989516,None,,,,001,2021_Nov_17_1648,TMTAB,2021.2.3,145.20848309921107,
19,['1'],TMT-A_1_3linestimulus16.png,TMT-A_1_3greenlinestimulus16.png,TMT-A_1_3redlinestimulus16.png,None,,,,,,,,,,,,,,,,,0,18,18,18,,,,,,,,,,,,,,,,,,,,,,,,,,,,,,,,,,,,57.86077590000059,None,['3'],0,[0.2562489999982063],57.86077590000059,None,,,,001,2021_Nov_17_1648,TMTAB,2021.2.3,145.20848309921107,
20,['3'],TMT-A_1_3linestimulus17.png,TMT-A_1_3greenlinestimulus17.png,TMT-A_1_3redlinestimulus17.png,None,,,,,,,,,,,,,,,,,0,19,19,19,,,,,,,,,,,,,,,,,,,,,,,,,,,,,,,,,,,,58.19499039999209,None,['1'],0,[0.7426395999937085],58.19499039999209,None,,,,001,2021_Nov_17_1648,TMTAB,2021.2.3,145.20848309921107,
21,['1'],TMT-A_1_3linestimulus18.png,TMT-A_1_3greenlinestimulus18.png,TMT-A_1_3redlinestimulus18.png,None,,,,,,,,,,,,,,,,,0,20,20,20,,,,,,,,,,,,,,,,,,,,,,,,,,,,,,,,,,,,59.020694699996966,None,['2'],0,[0.3860922999883769],59.020694699996966,None,,,,001,2021_Nov_17_1648,TMTAB,2021.2.3,145.20848309921107,
22,['2'],TMT-A_1_3linestimulus19.png,TMT-A_1_3greenlinestimulus19.png,TMT-A_1_3redlinestimulus19.png,None,,,,,,,,,,,,,,,,,0,21,21,21,,,,,,,,,,,,,,,,,,,,,,,,,,,,,,,,,,,,59.48582469999383,None,['2'],1,[0.35123260000545997],59.48582469999383,None,,,,001,2021_Nov_17_1648,TMTAB,2021.2.3,145.20848309921107,
23,['3'],TMT-A_1_3linestimulus20.png,TMT-A_1_3greenlinestimulus20.png,TMT-A_1_3redlinestimulus20.png,None,,,,,,,,,,,,,,,,,0,22,22,22,,,,,,,,,,,,,,,,,,,,,,,,,,,,,,,,,,,,59.9096872999944,None,['3'],1,[0.4877964999905089],59.9096872999944,None,,,,001,2021_Nov_17_1648,TMTAB,2021.2.3,145.20848309921107,
24,['2'],TMT-A_1_3linestimulus21.png,TMT-A_1_3greenlinestimulus21.png,TMT-A_1_3redlinestimulus21.png,None,,,,,,,,,,,,,,,,,0,23,23,23,,,,,,,,,,,,,,,,,,,,,,,,,,,,,,,,,,,,60.47905949999404,None,['1'],0,[0.747180100006517],60.47905949999404,None,,,,001,2021_Nov_17_1648,TMTAB,2021.2.3,145.20848309921107,
25,['3'],TMT-A_1_3linestimulus22.png,TMT-A_1_3greenlinestimulus22.png,TMT-A_1_3redlinestimulus22.png,None,,,,,,,,,,,,,,,,,0,24,24,24,,,,,,,,,,,,,,,,,,,,,,,,,,,,,,,,,,,,61.29837609999231,None,['1'],0,[0.7829819000035059],61.29837609999231,None,,,,001,2021_Nov_17_1648,TMTAB,2021.2.3,145.20848309921107,
None,None,TMT-A_1_3linestimulus23.png,TMT-A_1_3greenlinestimulus23.png,TMT-A_1_3redlinestimulus23.png,None,,,,,,,,,,,,,,,,,0,25,25,25,,,,,,,,,,,,,,,,,,,,,,,,,,,,,,,,,,,,62.15972260000126,None,None,1,,62.15972260000126,None,,,,001,2021_Nov_17_1648,TMTAB,2021.2.3,145.20848309921107,
1,['3'],TMT-A_1_4.png,TMT-A_1_4.png,TMT-A_1_4.png,10,,,,,,,,,,,,,,,,,,,,,0,0,0,0,,,,,,,,,,,,,,,,,63.170877600001404,None,,,,,,,,,,,,,,66.23562369999127,None,['1'],0,[0.876223300001584],66.23562369999127,None,,,,001,2021_Nov_17_1648,TMTAB,2021.2.3,145.20848309921107,
2,['1'],TMT-A_1_4.png,TMT-A_1_4firstgreen.png,TMT-A_1_4firstred.png,10,,,,,,,,,,,,,,,,,,,,,0,1,1,1,,,,,,,,,,,,,,,,,,,,,,,,,,,,,,,,67.18706029999885,None,['2'],0,[-0.006374500007950701],67.18706029999885,None,,,,001,2021_Nov_17_1648,TMTAB,2021.2.3,145.20848309921107,
3,['2'],TMT-A_1_4linestimulus0.png,TMT-A_1_4greenlinestimulus0.png,TMT-A_1_4redlinestimulus0.png,10,,,,,,,,,,,,,,,,,,,,,0,2,2,2,,,,,,,,,,,,,,,,,,,,,,,,,,,,,,,,67.25662159999774,None,['3'],0,[0.08320379999349825],67.25662159999774,None,,,,001,2021_Nov_17_1648,TMTAB,2021.2.3,145.20848309921107,
4,['1'],TMT-A_1_4linestimulus1.png,TMT-A_1_4greenlinestimulus1.png,TMT-A_1_4redlinestimulus1.png,10,,,,,,,,,,,,,,,,,,,,,0,3,3,3,,,,,,,,,,,,,,,,,,,,,,,,,,,,,,,,67.40948089999438,None,['1'],1,[0.09909489999699872],67.40948089999438,None,,,,001,2021_Nov_17_1648,TMTAB,2021.2.3,145.20848309921107,
5,['2'],TMT-A_1_4linestimulus2.png,TMT-A_1_4greenlinestimulus2.png,TMT-A_1_4redlinestimulus2.png,10,,,,,,,,,,,,,,,,,,,,,0,4,4,4,,,,,,,,,,,,,,,,,,,,,,,,,,,,,,,,67.58974820000003,None,['2'],1,[0.014089699994656257],67.58974820000003,None,,,,001,2021_Nov_17_1648,TMTAB,2021.2.3,145.20848309921107,
6,['3'],TMT-A_1_4linestimulus3.png,TMT-A_1_4greenlinestimulus3.png,TMT-A_1_4redlinestimulus3.png,10,,,,,,,,,,,,,,,,,,,,,0,5,5,5,,,,,,,,,,,,,,,,,,,,,,,,,,,,,,,,67.67306459999236,None,['3'],1,[0.01884079999581445],67.67306459999236,None,,,,001,2021_Nov_17_1648,TMTAB,2021.2.3,145.20848309921107,
7,['2'],TMT-A_1_4linestimulus4.png,TMT-A_1_4greenlinestimulus4.png,TMT-A_1_4redlinestimulus4.png,10,,,,,,,,,,,,,,,,,,,,,0,6,6,6,,,,,,,,,,,,,,,,,,,,,,,,,,,,,,,,67.77034719999938,None,['1'],0,[0.06365729999379255],67.77034719999938,None,,,,001,2021_Nov_17_1648,TMTAB,2021.2.3,145.20848309921107,
8,['3'],TMT-A_1_4linestimulus5.png,TMT-A_1_4greenlinestimulus5.png,TMT-A_1_4redlinestimulus5.png,10,,,,,,,,,,,,,,,,,,,,,0,7,7,7,,,,,,,,,,,,,,,,,,,,,,,,,,,,,,,,67.90943659999175,None,['2'],0,[-0.0061274000036064535],67.90943659999175,None,,,,001,2021_Nov_17_1648,TMTAB,2021.2.3,145.20848309921107,
9,['2'],TMT-A_1_4linestimulus6.png,TMT-A_1_4greenlinestimulus6.png,TMT-A_1_4redlinestimulus6.png,10,,,,,,,,,,,,,,,,,,,,,0,8,8,8,,,,,,,,,,,,,,,,,,,,,,,,,,,,,,,,67.97896569999284,None,['3'],0,[0.05359949999547098],67.97896569999284,None,,,,001,2021_Nov_17_1648,TMTAB,2021.2.3,145.20848309921107,
10,['3'],TMT-A_1_4linestimulus7.png,TMT-A_1_4greenlinestimulus7.png,TMT-A_1_4redlinestimulus7.png,10,,,,,,,,,,,,,,,,,,,,,0,9,9,9,,,,,,,,,,,,,,,,,,,,,,,,,,,,,,,,68.10367309999128,None,['1'],0,[0.0593213999964064],68.10367309999128,None,,,,001,2021_Nov_17_1648,TMTAB,2021.2.3,145.20848309921107,
11,['1'],TMT-A_1_4linestimulus8.png,TMT-A_1_4greenlinestimulus8.png,TMT-A_1_4redlinestimulus8.png,10,,,,,,,,,,,,,,,,,,,,,0,10,10,10,,,,,,,,,,,,,,,,,,,,,,,,,,,,,,,,68.2357420999906,None,['2'],0,[0.034016899997368455],68.2357420999906,None,,,,001,2021_Nov_17_1648,TMTAB,2021.2.3,145.20848309921107,
12,['3'],TMT-A_1_4linestimulus9.png,TMT-A_1_4greenlinestimulus9.png,TMT-A_1_4redlinestimulus9.png,10,,,,,,,,,,,,,,,,,,,,,0,11,11,11,,,,,,,,,,,,,,,,,,,,,,,,,,,,,,,,68.3468312999903,None,['3'],1,[0.0026453000027686357],68.3468312999903,None,,,,001,2021_Nov_17_1648,TMTAB,2021.2.3,145.20848309921107,
13,['1'],TMT-A_1_4linestimulus10.png,TMT-A_1_4greenlinestimulus10.png,TMT-A_1_4redlinestimulus10.png,1,,,,,,,,,,,,,,,,,,,,,0,12,12,12,,,,,,,,,,,,,,,,,,,,,,,,,,,,,,,,68.42348099999072,None,['1'],1,[0.07534149999264628],68.42348099999072,None,,,,001,2021_Nov_17_1648,TMTAB,2021.2.3,145.20848309921107,
14,['3'],TMT-A_1_4linestimulus11.png,TMT-A_1_4greenlinestimulus11.png,TMT-A_1_4redlinestimulus11.png,None,,,,,,,,,,,,,,,,,,,,,0,13,13,13,,,,,,,,,,,,,,,,,,,,,,,,,,,,,,,,68.56892669999797,None,['2'],0,[0.08849460000055842],68.56892669999797,None,,,,001,2021_Nov_17_1648,TMTAB,2021.2.3,145.20848309921107,
15,['2'],TMT-A_1_4linestimulus12.png,TMT-A_1_4greenlinestimulus12.png,TMT-A_1_4redlinestimulus12.png,None,,,,,,,,,,,,,,,,,,,,,0,14,14,14,,,,,,,,,,,,,,,,,,,,,,,,,,,,,,,,68.73564919999626,None,['1'],0,[0.08312609999848064],68.73564919999626,None,,,,001,2021_Nov_17_1648,TMTAB,2021.2.3,145.20848309921107,
16,['1'],TMT-A_1_4linestimulus13.png,TMT-A_1_4greenlinestimulus13.png,TMT-A_1_4redlinestimulus13.png,None,,,,,,,,,,,,,,,,,,,,,0,15,15,15,,,,,,,,,,,,,,,,,,,,,,,,,,,,,,,,68.88848499998858,None,['2'],0,[0.023730900007649325],68.88848499998858,None,,,,001,2021_Nov_17_1648,TMTAB,2021.2.3,145.20848309921107,
17,['3'],TMT-A_1_4linestimulus14.png,TMT-A_1_4greenlinestimulus14.png,TMT-A_1_4redlinestimulus14.png,None,,,,,,,,,,,,,,,,,,,,,0,16,16,16,,,,,,,,,,,,,,,,,,,,,,,,,,,,,,,,68.98589219999849,None,['3'],1,[0.0001306999911321327],68.98589219999849,None,,,,001,2021_Nov_17_1648,TMTAB,2021.2.3,145.20848309921107,
18,['1'],TMT-A_1_4linestimulus15.png,TMT-A_1_4greenlinestimulus15.png,TMT-A_1_4redlinestimulus15.png,None,,,,,,,,,,,,,,,,,,,,,0,17,17,17,,,,,,,,,,,,,,,,,,,,,,,,,,,,,,,,69.05508819999523,None,['1'],1,[0.07802889999584295],69.05508819999523,None,,,,001,2021_Nov_17_1648,TMTAB,2021.2.3,145.20848309921107,
19,['2'],TMT-A_1_4linestimulus16.png,TMT-A_1_4greenlinestimulus16.png,TMT-A_1_4redlinestimulus16.png,None,,,,,,,,,,,,,,,,,,,,,0,18,18,18,,,,,,,,,,,,,,,,,,,,,,,,,,,,,,,,69.20788419999008,None,['2'],1,[0.05323409999255091],69.20788419999008,None,,,,001,2021_Nov_17_1648,TMTAB,2021.2.3,145.20848309921107,
20,['3'],TMT-A_1_4linestimulus17.png,TMT-A_1_4greenlinestimulus17.png,TMT-A_1_4redlinestimulus17.png,None,,,,,,,,,,,,,,,,,,,,,0,19,19,19,,,,,,,,,,,,,,,,,,,,,,,,,,,,,,,,69.33305319999636,None,['3'],1,[-0.03028390000690706],69.33305319999636,None,,,,001,2021_Nov_17_1648,TMTAB,2021.2.3,145.20848309921107,
21,['2'],TMT-A_1_4linestimulus18.png,TMT-A_1_4greenlinestimulus18.png,TMT-A_1_4redlinestimulus18.png,None,,,,,,,,,,,,,,,,,,,,,0,20,20,20,,,,,,,,,,,,,,,,,,,,,,,,,,,,,,,,69.41003519999504,None,['1'],0,[0.05639379999774974],69.41003519999504,None,,,,001,2021_Nov_17_1648,TMTAB,2021.2.3,145.20848309921107,
22,['3'],TMT-A_1_4linestimulus19.png,TMT-A_1_4greenlinestimulus19.png,TMT-A_1_4redlinestimulus19.png,None,,,,,,,,,,,,,,,,,,,,,0,21,21,21,,,,,,,,,,,,,,,,,,,,,,,,,,,,,,,,69.5483288999967,None,['1'],0,[0.41067140000814106],69.5483288999967,None,,,,001,2021_Nov_17_1648,TMTAB,2021.2.3,145.20848309921107,
23,['1'],TMT-A_1_4linestimulus20.png,TMT-A_1_4greenlinestimulus20.png,TMT-A_1_4redlinestimulus20.png,None,,,,,,,,,,,,,,,,,,,,,0,22,22,22,,,,,,,,,,,,,,,,,,,,,,,,,,,,,,,,70.0345462999976,None,['2'],0,[0.005334499990567565],70.0345462999976,None,,,,001,2021_Nov_17_1648,TMTAB,2021.2.3,145.20848309921107,
24,['2'],TMT-A_1_4linestimulus21.png,TMT-A_1_4greenlinestimulus21.png,TMT-A_1_4redlinestimulus21.png,None,,,,,,,,,,,,,,,,,,,,,0,23,23,23,,,,,,,,,,,,,,,,,,,,,,,,,,,,,,,,70.12520559999393,None,['3'],0,[0.012283400006708689],70.12520559999393,None,,,,001,2021_Nov_17_1648,TMTAB,2021.2.3,145.20848309921107,
25,['1'],TMT-A_1_4linestimulus22.png,TMT-A_1_4greenlinestimulus22.png,TMT-A_1_4redlinestimulus22.png,None,,,,,,,,,,,,,,,,,,,,,0,24,24,24,,,,,,,,,,,,,,,,,,,,,,,,,,,,,,,,70.20861289999448,None,['1'],1,[0.3865717000007862],70.20861289999448,None,,,,001,2021_Nov_17_1648,TMTAB,2021.2.3,145.20848309921107,
None,None,TMT-A_1_4linestimulus23.png,TMT-A_1_4greenlinestimulus23.png,TMT-A_1_4redlinestimulus23.png,None,,,,,,,,,,,,,,,,,,,,,0,25,25,25,,,,,,,,,,,,,,,,,,,,,,,,,,,,,,,,70.66615269999602,None,['2'],0,[0.3047960999974748],70.66615269999602,None,,,,001,2021_Nov_17_1648,TMTAB,2021.2.3,145.20848309921107,
1,['3'],TMT-A_1_5.png,TMT-A_1_5.png,TMT-A_1_5.png,10,,,,,,,,,,,,,,,,,,,,,,,,,0,0,0,0,,,,,,,,,,,,,70.98988149999059,None,,,,,,,,,,,,,,74.05488080000214,None,['1'],0,[0.7659930999943754],74.05488080000214,None,,,,001,2021_Nov_17_1648,TMTAB,2021.2.3,145.20848309921107,
2,['1'],TMT-A_1_5.png,TMT-A_1_5firstgreen.png,TMT-A_1_5firstred.png,10,,,,,,,,,,,,,,,,,,,,,,,,,0,1,1,1,,,,,,,,,,,,,,,,,,,,,,,,,,,,74.90212809998775,None,['2'],0,[0.06416029999672901],74.90212809998775,None,,,,001,2021_Nov_17_1648,TMTAB,2021.2.3,145.20848309921107,
3,['2'],TMT-A_1_5linestimulus0.png,TMT-A_1_5greenlinestimulus0.png,TMT-A_1_5redlinestimulus0.png,10,,,,,,,,,,,,,,,,,,,,,,,,,0,2,2,2,,,,,,,,,,,,,,,,,,,,,,,,,,,,75.03405519999797,None,['3'],0,[-0.03302379998785909],75.03405519999797,None,,,,001,2021_Nov_17_1648,TMTAB,2021.2.3,145.20848309921107,
4,['1'],TMT-A_1_5linestimulus1.png,TMT-A_1_5greenlinestimulus1.png,TMT-A_1_5redlinestimulus1.png,10,,,,,,,,,,,,,,,,,,,,,,,,,0,3,3,3,,,,,,,,,,,,,,,,,,,,,,,,,,,,75.10381459999189,None,['1'],1,[0.04597549999016337],75.10381459999189,None,,,,001,2021_Nov_17_1648,TMTAB,2021.2.3,145.20848309921107,
5,['2'],TMT-A_1_5linestimulus2.png,TMT-A_1_5greenlinestimulus2.png,TMT-A_1_5redlinestimulus2.png,10,,,,,,,,,,,,,,,,,,,,,,,,,0,4,4,4,,,,,,,,,,,,,,,,,,,,,,,,,,,,75.22860579998815,None,['2'],1,[0.004684900006395765],75.22860579998815,None,,,,001,2021_Nov_17_1648,TMTAB,2021.2.3,145.20848309921107,
6,['1'],TMT-A_1_5linestimulus3.png,TMT-A_1_5greenlinestimulus3.png,TMT-A_1_5redlinestimulus3.png,10,,,,,,,,,,,,,,,,,,,,,,,,,0,5,5,5,,,,,,,,,,,,,,,,,,,,,,,,,,,,75.31181529999594,None,['3'],0,[0.022376900000381283],75.31181529999594,None,,,,001,2021_Nov_17_1648,TMTAB,2021.2.3,145.20848309921107,
7,['3'],TMT-A_1_5linestimulus4.png,TMT-A_1_5greenlinestimulus4.png,TMT-A_1_5redlinestimulus4.png,10,,,,,,,,,,,,,,,,,,,,,,,,,0,6,6,6,,,,,,,,,,,,,,,,,,,,,,,,,,,,75.4021694999974,None,['1'],0,[0.050510000000940636],75.4021694999974,None,,,,001,2021_Nov_17_1648,TMTAB,2021.2.3,145.20848309921107,
8,['1'],TMT-A_1_5linestimulus5.png,TMT-A_1_5greenlinestimulus5.png,TMT-A_1_5redlinestimulus5.png,10,,,,,,,,,,,,,,,,,,,,,,,,,0,7,7,7,,,,,,,,,,,,,,,,,,,,,,,,,,,,75.52707529999316,None,['2'],0,[0.010891800004174002],75.52707529999316,None,,,,001,2021_Nov_17_1648,TMTAB,2021.2.3,145.20848309921107,
9,['3'],TMT-A_1_5linestimulus6.png,TMT-A_1_5greenlinestimulus6.png,TMT-A_1_5redlinestimulus6.png,10,,,,,,,,,,,,,,,,,,,,,,,,,0,8,8,8,,,,,,,,,,,,,,,,,,,,,,,,,,,,75.61055449998821,None,['3'],1,[0.015267900002072565],75.61055449998821,None,,,,001,2021_Nov_17_1648,TMTAB,2021.2.3,145.20848309921107,
10,['1'],TMT-A_1_5linestimulus7.png,TMT-A_1_5greenlinestimulus7.png,TMT-A_1_5redlinestimulus7.png,10,,,,,,,,,,,,,,,,,,,,,,,,,0,9,9,9,,,,,,,,,,,,,,,,,,,,,,,,,,,,75.7079112999927,None,['1'],1,[0.03394619999744464],75.7079112999927,None,,,,001,2021_Nov_17_1648,TMTAB,2021.2.3,145.20848309921107,
11,['3'],TMT-A_1_5linestimulus8.png,TMT-A_1_5greenlinestimulus8.png,TMT-A_1_5redlinestimulus8.png,10,,,,,,,,,,,,,,,,,,,,,,,,,0,10,10,10,,,,,,,,,,,,,,,,,,,,,,,,,,,,75.8188533999928,None,['2'],0,[-0.009922500001266599],75.8188533999928,None,,,,001,2021_Nov_17_1648,TMTAB,2021.2.3,145.20848309921107,
12,['2'],TMT-A_1_5linestimulus9.png,TMT-A_1_5greenlinestimulus9.png,TMT-A_1_5redlinestimulus9.png,10,,,,,,,,,,,,,,,,,,,,,,,,,0,11,11,11,,,,,,,,,,,,,,,,,,,,,,,,,,,,75.88840149999305,None,['3'],0,[0.026136200001928955],75.88840149999305,None,,,,001,2021_Nov_17_1648,TMTAB,2021.2.3,145.20848309921107,
13,['1'],TMT-A_1_5linestimulus10.png,TMT-A_1_5greenlinestimulus10.png,TMT-A_1_5redlinestimulus10.png,1,,,,,,,,,,,,,,,,,,,,,,,,,0,12,12,12,,,,,,,,,,,,,,,,,,,,,,,,,,,,75.98564109999279,None,['1'],1,[0.06879309999931138],75.98564109999279,None,,,,001,2021_Nov_17_1648,TMTAB,2021.2.3,145.20848309921107,
14,['2'],TMT-A_1_5linestimulus11.png,TMT-A_1_5greenlinestimulus11.png,TMT-A_1_5redlinestimulus11.png,None,,,,,,,,,,,,,,,,,,,,,,,,,0,13,13,13,,,,,,,,,,,,,,,,,,,,,,,,,,,,76.12444639999012,None,['2'],1,[-0.008382100000744686],76.12444639999012,None,,,,001,2021_Nov_17_1648,TMTAB,2021.2.3,145.20848309921107,
15,['1'],TMT-A_1_5linestimulus12.png,TMT-A_1_5greenlinestimulus12.png,TMT-A_1_5redlinestimulus12.png,None,,,,,,,,,,,,,,,,,,,,,,,,,0,14,14,14,,,,,,,,,,,,,,,,,,,,,,,,,,,,76.19437189999735,None,['3'],0,[0.027136599994264543],76.19437189999735,None,,,,001,2021_Nov_17_1648,TMTAB,2021.2.3,145.20848309921107,
16,['3'],TMT-A_1_5linestimulus13.png,TMT-A_1_5greenlinestimulus13.png,TMT-A_1_5redlinestimulus13.png,None,,,,,,,,,,,,,,,,,,,,,,,,,0,15,15,15,,,,,,,,,,,,,,,,,,,,,,,,,,,,76.29103429999668,None,['1'],0,[0.06208600000536535],76.29103429999668,None,,,,001,2021_Nov_17_1648,TMTAB,2021.2.3,145.20848309921107,
17,['1'],TMT-A_1_5linestimulus14.png,TMT-A_1_5greenlinestimulus14.png,TMT-A_1_5redlinestimulus14.png,None,,,,,,,,,,,,,,,,,,,,,,,,,0,16,16,16,,,,,,,,,,,,,,,,,,,,,,,,,,,,76.42986389998987,None,['2'],0,[0.0021326999994926155],76.42986389998987,None,,,,001,2021_Nov_17_1648,TMTAB,2021.2.3,145.20848309921107,
18,['2'],TMT-A_1_5linestimulus15.png,TMT-A_1_5greenlinestimulus15.png,TMT-A_1_5redlinestimulus15.png,None,,,,,,,,,,,,,,,,,,,,,,,,,0,17,17,17,,,,,,,,,,,,,,,,,,,,,,,,,,,,76.50665440000012,None,['3'],0,[0.019109300003037788],76.50665440000012,None,,,,001,2021_Nov_17_1648,TMTAB,2021.2.3,145.20848309921107,
19,['1'],TMT-A_1_5linestimulus16.png,TMT-A_1_5greenlinestimulus16.png,TMT-A_1_5redlinestimulus16.png,None,,,,,,,,,,,,,,,,,,,,,,,,,0,18,18,18,,,,,,,,,,,,,,,,,,,,,,,,,,,,76.5966136999923,None,['1'],1,[0.05793239999911748],76.5966136999923,None,,,,001,2021_Nov_17_1648,TMTAB,2021.2.3,145.20848309921107,
20,['2'],TMT-A_1_5linestimulus17.png,TMT-A_1_5greenlinestimulus17.png,TMT-A_1_5redlinestimulus17.png,None,,,,,,,,,,,,,,,,,,,,,,,,,0,19,19,19,,,,,,,,,,,,,,,,,,,,,,,,,,,,76.73556879999524,None,['2'],1,[-0.00684049999108538],76.73556879999524,None,,,,001,2021_Nov_17_1648,TMTAB,2021.2.3,145.20848309921107,
21,['3'],TMT-A_1_5linestimulus18.png,TMT-A_1_5greenlinestimulus18.png,TMT-A_1_5redlinestimulus18.png,None,,,,,,,,,,,,,,,,,,,,,,,,,0,20,20,20,,,,,,,,,,,,,,,,,,,,,,,,,,,,76.80499289999716,None,['3'],1,[0.02808389998972416],76.80499289999716,None,,,,001,2021_Nov_17_1648,TMTAB,2021.2.3,145.20848309921107,
22,['2'],TMT-A_1_5linestimulus19.png,TMT-A_1_5greenlinestimulus19.png,TMT-A_1_5redlinestimulus19.png,None,,,,,,,,,,,,,,,,,,,,,,,,,0,21,21,21,,,,,,,,,,,,,,,,,,,,,,,,,,,,76.90909409998858,None,['1'],0,[0.06136809999588877],76.90909409998858,None,,,,001,2021_Nov_17_1648,TMTAB,2021.2.3,145.20848309921107,
23,['1'],TMT-A_1_5linestimulus20.png,TMT-A_1_5greenlinestimulus20.png,TMT-A_1_5redlinestimulus20.png,None,,,,,,,,,,,,,,,,,,,,,,,,,0,22,22,22,,,,,,,,,,,,,,,,,,,,,,,,,,,,77.04794079999556,None,['2'],0,[-0.009139000001596287],77.04794079999556,None,,,,001,2021_Nov_17_1648,TMTAB,2021.2.3,145.20848309921107,
24,['2'],TMT-A_1_5linestimulus21.png,TMT-A_1_5greenlinestimulus21.png,TMT-A_1_5redlinestimulus21.png,None,,,,,,,,,,,,,,,,,,,,,,,,,0,23,23,23,,,,,,,,,,,,,,,,,,,,,,,,,,,,77.11737059999723,None,['3'],0,[0.027429299996583723],77.11737059999723,None,,,,001,2021_Nov_17_1648,TMTAB,2021.2.3,145.20848309921107,
25,['3'],TMT-A_1_5linestimulus22.png,TMT-A_1_5greenlinestimulus22.png,TMT-A_1_5redlinestimulus22.png,None,,,,,,,,,,,,,,,,,,,,,,,,,0,24,24,24,,,,,,,,,,,,,,,,,,,,,,,,,,,,77.21526219999942,None,['1'],0,[0.4215189999958966],77.21526219999942,None,,,,001,2021_Nov_17_1648,TMTAB,2021.2.3,145.20848309921107,
None,None,TMT-A_1_5linestimulus23.png,TMT-A_1_5greenlinestimulus23.png,TMT-A_1_5redlinestimulus23.png,None,,,,,,,,,,,,,,,,,,,,,,,,,0,25,25,25,,,,,,,,,,,,,,,,,,,,,,,,,,,,77.70082240000193,None,None,1,,77.70082240000193,None,,,,001,2021_Nov_17_1648,TMTAB,2021.2.3,145.20848309921107,
1,['1'],TMT-A_1_6.png,TMT-A_1_6.png,TMT-A_1_6.png,10,,,,,,,,,,,,,,,,,,,,,,,,,,,,,0,0,0,0,,,,,,,,,78.7119648999942,None,,,,,,,,,,,,,,81.77702199999476,None,['1'],1,[0.44538879999890924],81.77702199999476,None,,,,001,2021_Nov_17_1648,TMTAB,2021.2.3,145.20848309921107,
2,['3'],TMT-A_1_6.png,TMT-A_1_6firstgreen.png,TMT-A_1_6firstred.png,10,,,,,,,,,,,,,,,,,,,,,,,,,,,,,0,1,1,1,,,,,,,,,,,,,,,,,,,,,,,,82.29105699999491,None,['2'],0,[0.027138999997987412],82.29105699999491,None,,,,001,2021_Nov_17_1648,TMTAB,2021.2.3,145.20848309921107,
3,['2'],TMT-A_1_6linestimulus0.png,TMT-A_1_6greenlinestimulus0.png,TMT-A_1_6redlinestimulus0.png,10,,,,,,,,,,,,,,,,,,,,,,,,,,,,,0,2,2,2,,,,,,,,,,,,,,,,,,,,,,,,82.38121690000116,None,['3'],0,[0.019272399993496947],82.38121690000116,None,,,,001,2021_Nov_17_1648,TMTAB,2021.2.3,145.20848309921107,
4,['1'],TMT-A_1_6linestimulus1.png,TMT-A_1_6greenlinestimulus1.png,TMT-A_1_6redlinestimulus1.png,10,,,,,,,,,,,,,,,,,,,,,,,,,,,,,0,3,3,3,,,,,,,,,,,,,,,,,,,,,,,,82.47147079999559,None,['1'],1,[0.07073629999649711],82.47147079999559,None,,,,001,2021_Nov_17_1648,TMTAB,2021.2.3,145.20848309921107,
5,['2'],TMT-A_1_6linestimulus2.png,TMT-A_1_6greenlinestimulus2.png,TMT-A_1_6redlinestimulus2.png,10,,,,,,,,,,,,,,,,,,,,,,,,,,,,,0,4,4,4,,,,,,,,,,,,,,,,,,,,,,,,82.61806819999765,None,['2'],1,[-0.012600399990333244],82.61806819999765,None,,,,001,2021_Nov_17_1648,TMTAB,2021.2.3,145.20848309921107,
6,['3'],TMT-A_1_6linestimulus3.png,TMT-A_1_6greenlinestimulus3.png,TMT-A_1_6redlinestimulus3.png,10,,,,,,,,,,,,,,,,,,,,,,,,,,,,,0,5,5,5,,,,,,,,,,,,,,,,,,,,,,,,82.68667229999846,None,['1'],0,[0.12610459999996237],82.68667229999846,None,,,,001,2021_Nov_17_1648,TMTAB,2021.2.3,145.20848309921107,
7,['1'],TMT-A_1_6linestimulus4.png,TMT-A_1_6greenlinestimulus4.png,TMT-A_1_6redlinestimulus4.png,10,,,,,,,,,,,,,,,,,,,,,,,,,,,,,0,6,6,6,,,,,,,,,,,,,,,,,,,,,,,,82.89535510000132,None,['2'],0,[0.0016026000084821135],82.89535510000132,None,,,,001,2021_Nov_17_1648,TMTAB,2021.2.3,145.20848309921107,
8,['3'],TMT-A_1_6linestimulus5.png,TMT-A_1_6greenlinestimulus5.png,TMT-A_1_6redlinestimulus5.png,10,,,,,,,,,,,,,,,,,,,,,,,,,,,,,0,7,7,7,,,,,,,,,,,,,,,,,,,,,,,,82.96445780000067,None,['3'],1,[0.006779400006053038],82.96445780000067,None,,,,001,2021_Nov_17_1648,TMTAB,2021.2.3,145.20848309921107,
9,['1'],TMT-A_1_6linestimulus6.png,TMT-A_1_6greenlinestimulus6.png,TMT-A_1_6redlinestimulus6.png,10,,,,,,,,,,,,,,,,,,,,,,,,,,,,,0,8,8,8,,,,,,,,,,,,,,,,,,,,,,,,83.04796859998896,None,['1'],1,[0.031176300006336533],83.04796859998896,None,,,,001,2021_Nov_17_1648,TMTAB,2021.2.3,145.20848309921107,
10,['3'],TMT-A_1_6linestimulus7.png,TMT-A_1_6greenlinestimulus7.png,TMT-A_1_6redlinestimulus7.png,10,,,,,,,,,,,,,,,,,,,,,,,,,,,,,0,9,9,9,,,,,,,,,,,,,,,,,,,,,,,,83.15895309999178,None,['2'],0,[-0.015291700008674525],83.15895309999178,None,,,,001,2021_Nov_17_1648,TMTAB,2021.2.3,145.20848309921107,
11,['1'],TMT-A_1_6linestimulus8.png,TMT-A_1_6greenlinestimulus8.png,TMT-A_1_6redlinestimulus8.png,10,,,,,,,,,,,,,,,,,,,,,,,,,,,,,0,10,10,10,,,,,,,,,,,,,,,,,,,,,,,,83.2358521999995,None,['3'],0,[-0.007663700002012774],83.2358521999995,None,,,,001,2021_Nov_17_1648,TMTAB,2021.2.3,145.20848309921107,
12,['2'],TMT-A_1_6linestimulus9.png,TMT-A_1_6greenlinestimulus9.png,TMT-A_1_6redlinestimulus9.png,10,,,,,,,,,,,,,,,,,,,,,,,,,,,,,0,11,11,11,,,,,,,,,,,,,,,,,,,,,,,,83.31191509999917,None,['1'],0,[0.020968800003174692],83.31191509999917,None,,,,001,2021_Nov_17_1648,TMTAB,2021.2.3,145.20848309921107,
13,['3'],TMT-A_1_6linestimulus10.png,TMT-A_1_6greenlinestimulus10.png,TMT-A_1_6redlinestimulus10.png,1,,,,,,,,,,,,,,,,,,,,,,,,,,,,,0,12,12,12,,,,,,,,,,,,,,,,,,,,,,,,83.40891769999871,None,['2'],0,[0.002876400001696311],83.40891769999871,None,,,,001,2021_Nov_17_1648,TMTAB,2021.2.3,145.20848309921107,
14,['1'],TMT-A_1_6linestimulus11.png,TMT-A_1_6greenlinestimulus11.png,TMT-A_1_6redlinestimulus11.png,None,,,,,,,,,,,,,,,,,,,,,,,,,,,,,0,13,13,13,,,,,,,,,,,,,,,,,,,,,,,,83.49249699999928,None,['3'],0,[-0.004928199996356852],83.49249699999928,None,,,,001,2021_Nov_17_1648,TMTAB,2021.2.3,145.20848309921107,
15,['2'],TMT-A_1_6linestimulus12.png,TMT-A_1_6greenlinestimulus12.png,TMT-A_1_6redlinestimulus12.png,None,,,,,,,,,,,,,,,,,,,,,,,,,,,,,0,14,14,14,,,,,,,,,,,,,,,,,,,,,,,,83.56182109999645,None,['2'],1,[0.11403459998837207],83.56182109999645,None,,,,001,2021_Nov_17_1648,TMTAB,2021.2.3,145.20848309921107,
16,['1'],TMT-A_1_6linestimulus13.png,TMT-A_1_6greenlinestimulus13.png,TMT-A_1_6redlinestimulus13.png,None,,,,,,,,,,,,,,,,,,,,,,,,,,,,,0,15,15,15,,,,,,,,,,,,,,,,,,,,,,,,83.75630699998874,None,['3'],0,[-0.0013349999935599044],83.75630699998874,None,,,,001,2021_Nov_17_1648,TMTAB,2021.2.3,145.20848309921107,
17,['2'],TMT-A_1_6linestimulus14.png,TMT-A_1_6greenlinestimulus14.png,TMT-A_1_6redlinestimulus14.png,None,,,,,,,,,,,,,,,,,,,,,,,,,,,,,0,16,16,16,,,,,,,,,,,,,,,,,,,,,,,,83.82586699999229,None,['1'],0,[0.042264799994882196],83.82586699999229,None,,,,001,2021_Nov_17_1648,TMTAB,2021.2.3,145.20848309921107,
18,['1'],TMT-A_1_6linestimulus15.png,TMT-A_1_6greenlinestimulus15.png,TMT-A_1_6redlinestimulus15.png,None,,,,,,,,,,,,,,,,,,,,,,,,,,,,,0,17,17,17,,,,,,,,,,,,,,,,,,,,,,,,83.95162690000143,None,['2'],0,[-0.000949399996898137],83.95162690000143,None,,,,001,2021_Nov_17_1648,TMTAB,2021.2.3,145.20848309921107,
19,['3'],TMT-A_1_6linestimulus16.png,TMT-A_1_6greenlinestimulus16.png,TMT-A_1_6redlinestimulus16.png,None,,,,,,,,,,,,,,,,,,,,,,,,,,,,,0,18,18,18,,,,,,,,,,,,,,,,,,,,,,,,84.02015189999656,None,['3'],1,[0.026827300011063926],84.02015189999656,None,,,,001,2021_Nov_17_1648,TMTAB,2021.2.3,145.20848309921107,
20,['1'],TMT-A_1_6linestimulus17.png,TMT-A_1_6greenlinestimulus17.png,TMT-A_1_6redlinestimulus17.png,None,,,,,,,,,,,,,,,,,,,,,,,,,,,,,0,19,19,19,,,,,,,,,,,,,,,,,,,,,,,,84.11742569999478,None,['1'],1,[0.10261570000147913],84.11742569999478,None,,,,001,2021_Nov_17_1648,TMTAB,2021.2.3,145.20848309921107,
21,['3'],TMT-A_1_6linestimulus18.png,TMT-A_1_6greenlinestimulus18.png,TMT-A_1_6redlinestimulus18.png,None,,,,,,,,,,,,,,,,,,,,,,,,,,,,,0,20,20,20,,,,,,,,,,,,,,,,,,,,,,,,84.2908383999893,None,['2'],0,[-0.006265899995923974],84.2908383999893,None,,,,001,2021_Nov_17_1648,TMTAB,2021.2.3,145.20848309921107,
22,['1'],TMT-A_1_6linestimulus19.png,TMT-A_1_6greenlinestimulus19.png,TMT-A_1_6redlinestimulus19.png,None,,,,,,,,,,,,,,,,,,,,,,,,,,,,,0,21,21,21,,,,,,,,,,,,,,,,,,,,,,,,84.36040720000165,None,['3'],0,[-0.00043319999531377107],84.36040720000165,None,,,,001,2021_Nov_17_1648,TMTAB,2021.2.3,145.20848309921107,
23,['3'],TMT-A_1_6linestimulus20.png,TMT-A_1_6greenlinestimulus20.png,TMT-A_1_6redlinestimulus20.png,None,,,,,,,,,,,,,,,,,,,,,,,,,,,,,0,22,22,22,,,,,,,,,,,,,,,,,,,,,,,,84.42974989999493,None,['2'],0,[0.3816828999988502],84.42974989999493,None,,,,001,2021_Nov_17_1648,TMTAB,2021.2.3,145.20848309921107,
24,['2'],TMT-A_1_6linestimulus21.png,TMT-A_1_6greenlinestimulus21.png,TMT-A_1_6redlinestimulus21.png,None,,,,,,,,,,,,,,,,,,,,,,,,,,,,,0,23,23,23,,,,,,,,,,,,,,,,,,,,,,,,84.88111989999015,None,['1'],0,[-0.05617789999814704],84.88111989999015,None,,,,001,2021_Nov_17_1648,TMTAB,2021.2.3,145.20848309921107,
25,['3'],TMT-A_1_6linestimulus22.png,TMT-A_1_6greenlinestimulus22.png,TMT-A_1_6redlinestimulus22.png,None,,,,,,,,,,,,,,,,,,,,,,,,,,,,,0,24,24,24,,,,,,,,,,,,,,,,,,,,,,,,84.95829529999173,None,['2'],0,[0.5672913999878801],84.95829529999173,None,,,,001,2021_Nov_17_1648,TMTAB,2021.2.3,145.20848309921107,
None,None,TMT-A_1_6linestimulus23.png,TMT-A_1_6greenlinestimulus23.png,TMT-A_1_6redlinestimulus23.png,None,,,,,,,,,,,,,,,,,,,,,,,,,,,,,0,25,25,25,,,,,,,,,,,,,,,,,,,,,,,,85.5964651999966,None,None,1,,85.5964651999966,None,,,,001,2021_Nov_17_1648,TMTAB,2021.2.3,145.20848309921107,
,,,,,,,,,,,,,,,,,,,,,,,,,,,,,,,,,,,,,,,,,,,,,,,,,,,,,,,,,,,,,,,,,,,,86.5937275999895,None,,,,,,,
