NumberLetter,corrAns,StimFile,Correct_StimFile,False_StimFile,DurationTrial,restartpractice.thisRepN,restartpractice.thisTrialN,restartpractice.thisN,restartpractice.thisIndex,trials_practice.thisRepN,trials_practice.thisTrialN,trials_practice.thisN,trials_practice.thisIndex,trials.thisRepN,trials.thisTrialN,trials.thisN,trials.thisIndex,trials_2.thisRepN,trials_2.thisTrialN,trials_2.thisN,trials_2.thisIndex,trials_3.thisRepN,trials_3.thisTrialN,trials_3.thisN,trials_3.thisIndex,Instruct.started,Instruct.stopped,image_2.started,image_2.stopped,key_resp_6.keys,key_resp_6.rt,key_resp_6.started,key_resp_6.stopped,polygon.started,polygon.stopped,Stim_practice.started,Stim_practice.stopped,key_resp_practice.keys,key_resp_practice.corr,key_resp_practice.rt,key_resp_practice.started,key_resp_practice.stopped,text_5.started,text_5.stopped,key_resp_5.keys,key_resp_5.rt,key_resp_5.started,key_resp_5.stopped,Stim.started,Stim.stopped,key_resp_2.keys,key_resp_2.corr,key_resp_2.rt,key_resp_2.started,key_resp_2.stopped,participant,session,date,expName,psychopyVersion,frameRate,
,,,,,,,,,,,,,,,,,,,,,,,,,,9.405856999976095,None,14.587609699985478,None,2,55.31396170001244,14.587609699985478,None,,,,,,,,,,,,,,,,,,,,,,,,001,2021_Nov_25_1210,TMTAB,2021.2.3,144.86119395043107,
1,2,TMT-A_1_practice.png,TMT-A_1_practice.png,TMT-A_1_practice.png,10,0,0,0,0,0,0,0,0,,,,,,,,,,,,,,,,,,,,,69.91955130000133,None,73.06442680000328,None,2,1,2.8847092000069097,73.06442680000328,None,,,,,,,,,,,,,,,001,2021_Nov_25_1210,TMTAB,2021.2.3,144.86119395043107,
2,3,TMT-A_1_practice.png,TMT-A_1_practicefirstgreen.png,TMT-A_1_practicefirstred.png,10,0,0,0,0,0,1,1,1,,,,,,,,,,,,,,,,,,,,,,,76.0437099999981,None,3,1,0.9759840999613516,76.0437099999981,None,,,,,,,,,,,,,,,001,2021_Nov_25_1210,TMTAB,2021.2.3,144.86119395043107,
3,1,TMT-A_1_practicelinestimulus0.png,TMT-A_1_practicegreenlinestimulus0.png,TMT-A_1_practiceredlinestimulus0.png,10,0,0,0,0,0,2,2,2,,,,,,,,,,,,,,,,,,,,,,,77.11407609999878,None,1,1,4.413443199999165,77.11407609999878,None,,,,,,,,,,,,,,,001,2021_Nov_25_1210,TMTAB,2021.2.3,144.86119395043107,
4,3,TMT-A_1_practicelinestimulus1.png,TMT-A_1_practicegreenlinestimulus1.png,TMT-A_1_practiceredlinestimulus1.png,10,0,0,0,0,0,3,3,3,,,,,,,,,,,,,,,,,,,,,,,81.63361009996152,None,1,0,6.109859700023662,81.63361009996152,None,,,,,,,,,,,,,,,001,2021_Nov_25_1210,TMTAB,2021.2.3,144.86119395043107,
5,1,TMT-A_1_practicelinestimulus2.png,TMT-A_1_practicegreenlinestimulus2.png,TMT-A_1_practiceredlinestimulus2.png,10,0,0,0,0,0,4,4,4,,,,,,,,,,,,,,,,,,,,,,,87.84318809997058,None,1,1,4.85795869998401,87.84318809997058,None,,,,,,,,,,,,,,,001,2021_Nov_25_1210,TMTAB,2021.2.3,144.86119395043107,
6,2,TMT-A_1_practicelinestimulus3.png,TMT-A_1_practicegreenlinestimulus3.png,TMT-A_1_practiceredlinestimulus3.png,10,0,0,0,0,0,5,5,5,,,,,,,,,,,,,,,,,,,,,,,92.80207649996737,None,2,1,1.4331030999892391,92.80207649996737,None,,,,,,,,,,,,,,,001,2021_Nov_25_1210,TMTAB,2021.2.3,144.86119395043107,
7,3,TMT-A_1_practicelinestimulus4.png,TMT-A_1_practicegreenlinestimulus4.png,TMT-A_1_practiceredlinestimulus4.png,10,0,0,0,0,0,6,6,6,,,,,,,,,,,,,,,,,,,,,,,94.32369799999287,None,3,1,0.46316939999815077,94.32369799999287,None,,,,,,,,,,,,,,,001,2021_Nov_25_1210,TMTAB,2021.2.3,144.86119395043107,
8,2,TMT-A_1_practicelinestimulus5.png,TMT-A_1_practicegreenlinestimulus5.png,TMT-A_1_practiceredlinestimulus5.png,10,0,0,0,0,0,7,7,7,,,,,,,,,,,,,,,,,,,,,,,94.89926689997083,None,2,1,0.36580059997504577,94.89926689997083,None,,,,,,,,,,,,,,,001,2021_Nov_25_1210,TMTAB,2021.2.3,144.86119395043107,
9,3,TMT-A_1_practicelinestimulus6.png,TMT-A_1_practicegreenlinestimulus6.png,TMT-A_1_practiceredlinestimulus6.png,10,0,0,0,0,0,8,8,8,,,,,,,,,,,,,,,,,,,,,,,95.36986149998847,None,3,1,0.597813899978064,95.36986149998847,None,,,,,,,,,,,,,,,001,2021_Nov_25_1210,TMTAB,2021.2.3,144.86119395043107,
10,2,TMT-A_1_practicelinestimulus7.png,TMT-A_1_practicegreenlinestimulus7.png,TMT-A_1_practiceredlinestimulus7.png,10,0,0,0,0,0,9,9,9,,,,,,,,,,,,,,,,,,,,,,,96.05748429999221,None,2,1,0.47837690002052113,96.05748429999221,None,,,,,,,,,,,,,,,001,2021_Nov_25_1210,TMTAB,2021.2.3,144.86119395043107,
11,3,TMT-A_1_practicelinestimulus8.png,TMT-A_1_practicegreenlinestimulus8.png,TMT-A_1_practiceredlinestimulus8.png,10,0,0,0,0,0,10,10,10,,,,,,,,,,,,,,,,,,,,,,,96.80785529996501,None,3,1,0.6743739999947138,96.80785529996501,None,,,,,,,,,,,,,,,001,2021_Nov_25_1210,TMTAB,2021.2.3,144.86119395043107,
12,1,TMT-A_1_practicelinestimulus9.png,TMT-A_1_practicegreenlinestimulus9.png,TMT-A_1_practiceredlinestimulus9.png,10,0,0,0,0,0,11,11,11,,,,,,,,,,,,,,,,,,,,,,,97.5711707000155,None,1,1,1.8175168000161648,97.5711707000155,None,,,,,,,,,,,,,,,001,2021_Nov_25_1210,TMTAB,2021.2.3,144.86119395043107,
None,None,TMT-A_1_practicelinestimulus10.png,TMT-A_1_practicegreenlinestimulus10.png,TMT-A_1_practiceredlinestimulus10.png,None,0,0,0,0,0,12,12,12,,,,,,,,,,,,,,,,,,,,,,,99.47369099996286,None,None,1,,99.47369099996286,None,,,,,,,,,,,,,,,001,2021_Nov_25_1210,TMTAB,2021.2.3,144.86119395043107,
,,,,,,0,0,0,0,,,,,,,,,,,,,,,,,,,,,,,,,,,,,,,,,,100.5756790000014,None,x,21.709711600036826,100.5756790000014,None,,,,,,,,,001,2021_Nov_25_1210,TMTAB,2021.2.3,144.86119395043107,
1,2,TMT-A_1_practice.png,TMT-A_1_practice.png,TMT-A_1_practice.png,10,1,0,1,0,0,0,0,0,,,,,,,,,,,,,,,,,,,,,,,122.43164610001259,None,2,1,2.9956502999993972,122.43164610001259,None,,,,,,,,,,,,,,,001,2021_Nov_25_1210,TMTAB,2021.2.3,144.86119395043107,
2,3,TMT-A_1_practice.png,TMT-A_1_practicefirstgreen.png,TMT-A_1_practicefirstred.png,10,1,0,1,0,0,1,1,1,,,,,,,,,,,,,,,,,,,,,,,125.52274939999916,None,3,1,0.8583734999992885,125.52274939999916,None,,,,,,,,,,,,,,,001,2021_Nov_25_1210,TMTAB,2021.2.3,144.86119395043107,
3,1,TMT-A_1_practicelinestimulus0.png,TMT-A_1_practicegreenlinestimulus0.png,TMT-A_1_practiceredlinestimulus0.png,10,1,0,1,0,0,2,2,2,,,,,,,,,,,,,,,,,,,,,,,126.47412410000106,None,1,1,0.30134179996093735,126.47412410000106,None,,,,,,,,,,,,,,,001,2021_Nov_25_1210,TMTAB,2021.2.3,144.86119395043107,
4,3,TMT-A_1_practicelinestimulus1.png,TMT-A_1_practicegreenlinestimulus1.png,TMT-A_1_practiceredlinestimulus1.png,10,1,0,1,0,0,3,3,3,,,,,,,,,,,,,,,,,,,,,,,127.05182990001049,None,2,0,0.005687600001692772,127.05182990001049,None,,,,,,,,,,,,,,,001,2021_Nov_25_1210,TMTAB,2021.2.3,144.86119395043107,
5,1,TMT-A_1_practicelinestimulus2.png,TMT-A_1_practicegreenlinestimulus2.png,TMT-A_1_practiceredlinestimulus2.png,10,1,0,1,0,0,4,4,4,,,,,,,,,,,,,,,,,,,,,,,127.16052320000017,None,3,0,0.17506609996780753,127.16052320000017,None,,,,,,,,,,,,,,,001,2021_Nov_25_1210,TMTAB,2021.2.3,144.86119395043107,
6,2,TMT-A_1_practicelinestimulus3.png,TMT-A_1_practicegreenlinestimulus3.png,TMT-A_1_practiceredlinestimulus3.png,10,1,0,1,0,0,5,5,5,,,,,,,,,,,,,,,,,,,,,,,127.42427439999301,None,1,0,0.25033189996611327,127.42427439999301,None,,,,,,,,,,,,,,,001,2021_Nov_25_1210,TMTAB,2021.2.3,144.86119395043107,
7,3,TMT-A_1_practicelinestimulus4.png,TMT-A_1_practicegreenlinestimulus4.png,TMT-A_1_practiceredlinestimulus4.png,10,1,0,1,0,0,6,6,6,,,,,,,,,,,,,,,,,,,,,,,127.75802319997456,None,2,0,0.02015260001644492,127.75802319997456,None,,,,,,,,,,,,,,,001,2021_Nov_25_1210,TMTAB,2021.2.3,144.86119395043107,
8,2,TMT-A_1_practicelinestimulus5.png,TMT-A_1_practicegreenlinestimulus5.png,TMT-A_1_practiceredlinestimulus5.png,10,1,0,1,0,0,7,7,7,,,,,,,,,,,,,,,,,,,,,,,127.86891429999378,None,3,0,0.07166700001107529,127.86891429999378,None,,,,,,,,,,,,,,,001,2021_Nov_25_1210,TMTAB,2021.2.3,144.86119395043107,
9,3,TMT-A_1_practicelinestimulus6.png,TMT-A_1_practicegreenlinestimulus6.png,TMT-A_1_practiceredlinestimulus6.png,10,1,0,1,0,0,8,8,8,,,,,,,,,,,,,,,,,,,,,,,128.0444033999811,None,1,0,0.1279283000039868,128.0444033999811,None,,,,,,,,,,,,,,,001,2021_Nov_25_1210,TMTAB,2021.2.3,144.86119395043107,
10,2,TMT-A_1_practicelinestimulus7.png,TMT-A_1_practicegreenlinestimulus7.png,TMT-A_1_practiceredlinestimulus7.png,10,1,0,1,0,0,9,9,9,,,,,,,,,,,,,,,,,,,,,,,128.2718727000174,None,3,0,0.0961204000050202,128.2718727000174,None,,,,,,,,,,,,,,,001,2021_Nov_25_1210,TMTAB,2021.2.3,144.86119395043107,
11,3,TMT-A_1_practicelinestimulus8.png,TMT-A_1_practicegreenlinestimulus8.png,TMT-A_1_practiceredlinestimulus8.png,10,1,0,1,0,0,10,10,10,,,,,,,,,,,,,,,,,,,,,,,128.46057210001163,None,1,0,0.21974769997177646,128.46057210001163,None,,,,,,,,,,,,,,,001,2021_Nov_25_1210,TMTAB,2021.2.3,144.86119395043107,
12,1,TMT-A_1_practicelinestimulus9.png,TMT-A_1_practicegreenlinestimulus9.png,TMT-A_1_practiceredlinestimulus9.png,10,1,0,1,0,0,11,11,11,,,,,,,,,,,,,,,,,,,,,,,128.7659466000041,None,3,0,0.6004912999924272,128.7659466000041,None,,,,,,,,,,,,,,,001,2021_Nov_25_1210,TMTAB,2021.2.3,144.86119395043107,
None,None,TMT-A_1_practicelinestimulus10.png,TMT-A_1_practicegreenlinestimulus10.png,TMT-A_1_practiceredlinestimulus10.png,None,1,0,1,0,0,12,12,12,,,,,,,,,,,,,,,,,,,,,,,129.45979900000384,None,None,1,,129.45979900000384,None,,,,,,,,,,,,,,,001,2021_Nov_25_1210,TMTAB,2021.2.3,144.86119395043107,
,,,,,,1,0,1,0,,,,,,,,,,,,,,,,,,,,,,,,,,,,,,,,,,130.4581367999781,None,2,34.00982259999728,130.4581367999781,None,,,,,,,,,001,2021_Nov_25_1210,TMTAB,2021.2.3,144.86119395043107,
1,['3'],TMT-A_1_1.png,TMT-A_1_1.png,TMT-A_1_1.png,10,,,,,,,,,0,0,0,0,,,,,,,,,,,,,,,,,164.49049809999997,None,,,,,,,,,,,,,,167.6251071000006,None,['2'],0,[2.9868461000151],167.6251071000006,None,,001,2021_Nov_25_1210,TMTAB,2021.2.3,144.86119395043107,
2,['2'],TMT-A_1_1.png,TMT-A_1_1firstgreen.png,TMT-A_1_1firstred.png,10,,,,,,,,,0,1,1,1,,,,,,,,,,,,,,,,,,,,,,,,,,,,,,,,170.71538030001102,None,['1'],0,[-0.0807304999907501],170.71538030001102,None,,001,2021_Nov_25_1210,TMTAB,2021.2.3,144.86119395043107,
3,['3'],TMT-A_1_1linestimulus0.png,TMT-A_1_1greenlinestimulus0.png,TMT-A_1_1redlinestimulus0.png,10,,,,,,,,,0,2,2,2,,,,,,,,,,,,,,,,,,,,,,,,,,,,,,,,170.85471829999005,None,['3'],1,[-0.032484699971973896],170.85471829999005,None,,001,2021_Nov_25_1210,TMTAB,2021.2.3,144.86119395043107,
4,['1'],TMT-A_1_1linestimulus1.png,TMT-A_1_1greenlinestimulus1.png,TMT-A_1_1redlinestimulus1.png,10,,,,,,,,,0,3,3,3,,,,,,,,,,,,,,,,,,,,,,,,,,,,,,,,170.95237770001404,None,['1'],1,[0.037085299962200224],170.95237770001404,None,,001,2021_Nov_25_1210,TMTAB,2021.2.3,144.86119395043107,
5,['3'],TMT-A_1_1linestimulus2.png,TMT-A_1_1greenlinestimulus2.png,TMT-A_1_1redlinestimulus2.png,10,,,,,,,,,0,4,4,4,,,,,,,,,,,,,,,,,,,,,,,,,,,,,,,,171.07800460001454,None,['2'],0,[-0.007036600029096007],171.07800460001454,None,,001,2021_Nov_25_1210,TMTAB,2021.2.3,144.86119395043107,
6,['2'],TMT-A_1_1linestimulus3.png,TMT-A_1_1greenlinestimulus3.png,TMT-A_1_1redlinestimulus3.png,10,,,,,,,,,0,5,5,5,,,,,,,,,,,,,,,,,,,,,,,,,,,,,,,,171.1594097999623,None,['3'],0,[0.07599240000126883],171.1594097999623,None,,001,2021_Nov_25_1210,TMTAB,2021.2.3,144.86119395043107,
7,['1'],TMT-A_1_1linestimulus4.png,TMT-A_1_1greenlinestimulus4.png,TMT-A_1_1redlinestimulus4.png,10,,,,,,,,,0,6,6,6,,,,,,,,,,,,,,,,,,,,,,,,,,,,,,,,171.34001240000362,None,['1'],1,[0.018401699955575168],171.34001240000362,None,,001,2021_Nov_25_1210,TMTAB,2021.2.3,144.86119395043107,
8,['2'],TMT-A_1_1linestimulus5.png,TMT-A_1_1greenlinestimulus5.png,TMT-A_1_1redlinestimulus5.png,10,,,,,,,,,0,7,7,7,,,,,,,,,,,,,,,,,,,,,,,,,,,,,,,,171.44676919997437,None,['2'],1,[-0.029510999971535057],171.44676919997437,None,,001,2021_Nov_25_1210,TMTAB,2021.2.3,144.86119395043107,
9,['1'],TMT-A_1_1linestimulus6.png,TMT-A_1_1greenlinestimulus6.png,TMT-A_1_1redlinestimulus6.png,10,,,,,,,,,0,8,8,8,,,,,,,,,,,,,,,,,,,,,,,,,,,,,,,,171.52769939997233,None,['3'],0,[-0.014128999959211797],171.52769939997233,None,,001,2021_Nov_25_1210,TMTAB,2021.2.3,144.86119395043107,
10,['3'],TMT-A_1_1linestimulus7.png,TMT-A_1_1greenlinestimulus7.png,TMT-A_1_1redlinestimulus7.png,10,,,,,,,,,0,9,9,9,,,,,,,,,,,,,,,,,,,,,,,,,,,,,,,,171.61405879998347,None,['1'],0,[0.060599799966439605],171.61405879998347,None,,001,2021_Nov_25_1210,TMTAB,2021.2.3,144.86119395043107,
11,['2'],TMT-A_1_1linestimulus8.png,TMT-A_1_1greenlinestimulus8.png,TMT-A_1_1redlinestimulus8.png,10,,,,,,,,,0,10,10,10,,,,,,,,,,,,,,,,,,,,,,,,,,,,,,,,171.79214410000714,None,['2'],1,[-0.05760759999975562],171.79214410000714,None,,001,2021_Nov_25_1210,TMTAB,2021.2.3,144.86119395043107,
12,['1'],TMT-A_1_1linestimulus9.png,TMT-A_1_1greenlinestimulus9.png,TMT-A_1_1redlinestimulus9.png,10,,,,,,,,,0,11,11,11,,,,,,,,,,,,,,,,,,,,,,,,,,,,,,,,171.87709069997072,None,['3'],0,[-0.04219349997583777],171.87709069997072,None,,001,2021_Nov_25_1210,TMTAB,2021.2.3,144.86119395043107,
13,['2'],TMT-A_1_1linestimulus10.png,TMT-A_1_1greenlinestimulus10.png,TMT-A_1_1redlinestimulus10.png,1,,,,,,,,,0,12,12,12,,,,,,,,,,,,,,,,,,,,,,,,,,,,,,,,171.96628160000546,None,['1'],0,[0.04461359995184466],171.96628160000546,None,,001,2021_Nov_25_1210,TMTAB,2021.2.3,144.86119395043107,
14,['3'],TMT-A_1_1linestimulus11.png,TMT-A_1_1greenlinestimulus11.png,TMT-A_1_1redlinestimulus11.png,None,,,,,,,,,0,13,13,13,,,,,,,,,,,,,,,,,,,,,,,,,,,,,,,,172.10544919996755,None,['2'],0,[-0.06461470003705472],172.10544919996755,None,,001,2021_Nov_25_1210,TMTAB,2021.2.3,144.86119395043107,
15,['2'],TMT-A_1_1linestimulus12.png,TMT-A_1_1greenlinestimulus12.png,TMT-A_1_1redlinestimulus12.png,None,,,,,,,,,0,14,14,14,,,,,,,,,,,,,,,,,,,,,,,,,,,,,,,,172.20143780001672,None,['3'],0,[-0.036591899988707155],172.20143780001672,None,,001,2021_Nov_25_1210,TMTAB,2021.2.3,144.86119395043107,
16,['1'],TMT-A_1_1linestimulus13.png,TMT-A_1_1greenlinestimulus13.png,TMT-A_1_1redlinestimulus13.png,None,,,,,,,,,0,15,15,15,,,,,,,,,,,,,,,,,,,,,,,,,,,,,,,,172.298874399974,None,['1'],1,[0.01716709998436272],172.298874399974,None,,001,2021_Nov_25_1210,TMTAB,2021.2.3,144.86119395043107,
17,['3'],TMT-A_1_1linestimulus14.png,TMT-A_1_1greenlinestimulus14.png,TMT-A_1_1redlinestimulus14.png,None,,,,,,,,,0,16,16,16,,,,,,,,,,,,,,,,,,,,,,,,,,,,,,,,172.42463859997224,None,['2'],0,[-0.041241099999751896],172.42463859997224,None,,001,2021_Nov_25_1210,TMTAB,2021.2.3,144.86119395043107,
18,['2'],TMT-A_1_1linestimulus15.png,TMT-A_1_1greenlinestimulus15.png,TMT-A_1_1redlinestimulus15.png,None,,,,,,,,,0,17,17,17,,,,,,,,,,,,,,,,,,,,,,,,,,,,,,,,172.52736489998642,None,['3'],0,[-0.017432100023142993],172.52736489998642,None,,001,2021_Nov_25_1210,TMTAB,2021.2.3,144.86119395043107,
19,['1'],TMT-A_1_1linestimulus16.png,TMT-A_1_1greenlinestimulus16.png,TMT-A_1_1redlinestimulus16.png,None,,,,,,,,,0,18,18,18,,,,,,,,,,,,,,,,,,,,,,,,,,,,,,,,172.6563434000127,None,['1'],1,[0.03040839999448508],172.6563434000127,None,,001,2021_Nov_25_1210,TMTAB,2021.2.3,144.86119395043107,
20,['3'],TMT-A_1_1linestimulus17.png,TMT-A_1_1greenlinestimulus17.png,TMT-A_1_1redlinestimulus17.png,None,,,,,,,,,0,19,19,19,,,,,,,,,,,,,,,,,,,,,,,,,,,,,,,,172.79137619998073,None,['2'],0,[-0.04432509996695444],172.79137619998073,None,,001,2021_Nov_25_1210,TMTAB,2021.2.3,144.86119395043107,
21,['2'],TMT-A_1_1linestimulus18.png,TMT-A_1_1greenlinestimulus18.png,TMT-A_1_1redlinestimulus18.png,None,,,,,,,,,0,20,20,20,,,,,,,,,,,,,,,,,,,,,,,,,,,,,,,,172.89607819996309,None,['3'],0,[0.0012384000001475215],172.89607819996309,None,,001,2021_Nov_25_1210,TMTAB,2021.2.3,144.86119395043107,
22,['1'],TMT-A_1_1linestimulus19.png,TMT-A_1_1greenlinestimulus19.png,TMT-A_1_1redlinestimulus19.png,None,,,,,,,,,0,21,21,21,,,,,,,,,,,,,,,,,,,,,,,,,,,,,,,,172.9940872999723,None,['1'],1,[-0.007285200001206249],172.9940872999723,None,,001,2021_Nov_25_1210,TMTAB,2021.2.3,144.86119395043107,
23,['3'],TMT-A_1_1linestimulus20.png,TMT-A_1_1greenlinestimulus20.png,TMT-A_1_1redlinestimulus20.png,None,,,,,,,,,0,22,22,22,,,,,,,,,,,,,,,,,,,,,,,,,,,,,,,,173.07634999998845,None,['2'],0,[0.009539099992252886],173.07634999998845,None,,001,2021_Nov_25_1210,TMTAB,2021.2.3,144.86119395043107,
24,['2'],TMT-A_1_1linestimulus21.png,TMT-A_1_1greenlinestimulus21.png,TMT-A_1_1redlinestimulus21.png,None,,,,,,,,,0,23,23,23,,,,,,,,,,,,,,,,,,,,,,,,,,,,,,,,173.18077689997153,None,['3'],0,[0.010687800007872283],173.18077689997153,None,,001,2021_Nov_25_1210,TMTAB,2021.2.3,144.86119395043107,
25,['3'],TMT-A_1_1linestimulus22.png,TMT-A_1_1greenlinestimulus22.png,TMT-A_1_1redlinestimulus22.png,None,,,,,,,,,0,24,24,24,,,,,,,,,,,,,,,,,,,,,,,,,,,,,,,,173.2877240999951,None,['1'],0,[0.10550889995647594],173.2877240999951,None,,001,2021_Nov_25_1210,TMTAB,2021.2.3,144.86119395043107,
None,None,TMT-A_1_1linestimulus23.png,TMT-A_1_1greenlinestimulus23.png,TMT-A_1_1redlinestimulus23.png,None,,,,,,,,,0,25,25,25,,,,,,,,,,,,,,,,,,,,,,,,,,,,,,,,173.50832640001317,None,None,1,,173.50832640001317,None,,001,2021_Nov_25_1210,TMTAB,2021.2.3,144.86119395043107,
1,['2'],TMT-A_1_2.png,TMT-A_1_2.png,TMT-A_1_2.png,10,,,,,,,,,,,,,0,0,0,0,,,,,,,,,,,,,174.5042231999687,None,,,,,,,,,,,,,,177.59090439998545,None,['1'],0,[1.6022086000302806],177.59090439998545,None,,001,2021_Nov_25_1210,TMTAB,2021.2.3,144.86119395043107,
2,['1'],TMT-A_1_2.png,TMT-A_1_2firstgreen.png,TMT-A_1_2firstred.png,10,,,,,,,,,,,,,0,1,1,1,,,,,,,,,,,,,,,,,,,,,,,,,,,,179.2871729999897,None,['2'],0,[-0.04823770001530647],179.2871729999897,None,,001,2021_Nov_25_1210,TMTAB,2021.2.3,144.86119395043107,
3,['2'],TMT-A_1_2linestimulus0.png,TMT-A_1_2greenlinestimulus0.png,TMT-A_1_2redlinestimulus0.png,10,,,,,,,,,,,,,0,2,2,2,,,,,,,,,,,,,,,,,,,,,,,,,,,,179.39087659999495,None,['3'],0,[-0.002394899958744645],179.39087659999495,None,,001,2021_Nov_25_1210,TMTAB,2021.2.3,144.86119395043107,
4,['3'],TMT-A_1_2linestimulus1.png,TMT-A_1_2greenlinestimulus1.png,TMT-A_1_2redlinestimulus1.png,10,,,,,,,,,,,,,0,3,3,3,,,,,,,,,,,,,,,,,,,,,,,,,,,,179.4800689999829,None,['1'],0,[0.08198319998336956],179.4800689999829,None,,001,2021_Nov_25_1210,TMTAB,2021.2.3,144.86119395043107,
5,['1'],TMT-A_1_2linestimulus2.png,TMT-A_1_2greenlinestimulus2.png,TMT-A_1_2redlinestimulus2.png,10,,,,,,,,,,,,,0,4,4,4,,,,,,,,,,,,,,,,,,,,,,,,,,,,179.6904010999715,None,['2'],0,[-0.0800994000164792],179.6904010999715,None,,001,2021_Nov_25_1210,TMTAB,2021.2.3,144.86119395043107,
6,['3'],TMT-A_1_2linestimulus3.png,TMT-A_1_2greenlinestimulus3.png,TMT-A_1_2redlinestimulus3.png,10,,,,,,,,,,,,,0,5,5,5,,,,,,,,,,,,,,,,,,,,,,,,,,,,179.80802699999185,None,['3'],1,[-0.11122530000284314],179.80802699999185,None,,001,2021_Nov_25_1210,TMTAB,2021.2.3,144.86119395043107,
7,['2'],TMT-A_1_2linestimulus4.png,TMT-A_1_2greenlinestimulus4.png,TMT-A_1_2redlinestimulus4.png,10,,,,,,,,,,,,,0,6,6,6,,,,,,,,,,,,,,,,,,,,,,,,,,,,179.93321539997123,None,"['1', '2']",0,"[-0.07352869998430833, -0.022029199986718595]",179.93321539997123,None,,001,2021_Nov_25_1210,TMTAB,2021.2.3,144.86119395043107,
8,['3'],TMT-A_1_2linestimulus5.png,TMT-A_1_2greenlinestimulus5.png,TMT-A_1_2redlinestimulus5.png,10,,,,,,,,,,,,,0,7,7,7,,,,,,,,,,,,,,,,,,,,,,,,,,,,180.04439429997,None,['3'],1,[-0.020048399979714304],180.04439429997,None,,001,2021_Nov_25_1210,TMTAB,2021.2.3,144.86119395043107,
9,['2'],TMT-A_1_2linestimulus6.png,TMT-A_1_2greenlinestimulus6.png,TMT-A_1_2redlinestimulus6.png,10,,,,,,,,,,,,,0,8,8,8,,,,,,,,,,,,,,,,,,,,,,,,,,,,180.14686139998958,None,['1'],0,[0.03918819996761158],180.14686139998958,None,,001,2021_Nov_25_1210,TMTAB,2021.2.3,144.86119395043107,
10,['3'],TMT-A_1_2linestimulus7.png,TMT-A_1_2greenlinestimulus7.png,TMT-A_1_2redlinestimulus7.png,10,,,,,,,,,,,,,0,9,9,9,,,,,,,,,,,,,,,,,,,,,,,,,,,,180.27164589997847,None,['2'],0,[-0.029232400003820658],180.27164589997847,None,,001,2021_Nov_25_1210,TMTAB,2021.2.3,144.86119395043107,
11,['2'],TMT-A_1_2linestimulus8.png,TMT-A_1_2greenlinestimulus8.png,TMT-A_1_2redlinestimulus8.png,10,,,,,,,,,,,,,0,10,10,10,,,,,,,,,,,,,,,,,,,,,,,,,,,,180.36390960001154,None,['3'],0,[-0.03026889998000115],180.36390960001154,None,,001,2021_Nov_25_1210,TMTAB,2021.2.3,144.86119395043107,
12,['3'],TMT-A_1_2linestimulus9.png,TMT-A_1_2greenlinestimulus9.png,TMT-A_1_2redlinestimulus9.png,10,,,,,,,,,,,,,0,11,11,11,,,,,,,,,,,,,,,,,,,,,,,,,,,,180.47391999996034,None,['1'],0,[0.01612879999447614],180.47391999996034,None,,001,2021_Nov_25_1210,TMTAB,2021.2.3,144.86119395043107,
13,['1'],TMT-A_1_2linestimulus10.png,TMT-A_1_2greenlinestimulus10.png,TMT-A_1_2redlinestimulus10.png,1,,,,,,,,,,,,,0,12,12,12,,,,,,,,,,,,,,,,,,,,,,,,,,,,180.60410399996908,None,['2'],0,[-0.057788999984040856],180.60410399996908,None,,001,2021_Nov_25_1210,TMTAB,2021.2.3,144.86119395043107,
14,['2'],TMT-A_1_2linestimulus11.png,TMT-A_1_2greenlinestimulus11.png,TMT-A_1_2redlinestimulus11.png,None,,,,,,,,,,,,,0,13,13,13,,,,,,,,,,,,,,,,,,,,,,,,,,,,180.69429720001062,None,['3'],0,[-0.040038400038611144],180.69429720001062,None,,001,2021_Nov_25_1210,TMTAB,2021.2.3,144.86119395043107,
15,['3'],TMT-A_1_2linestimulus12.png,TMT-A_1_2greenlinestimulus12.png,TMT-A_1_2redlinestimulus12.png,None,,,,,,,,,,,,,0,14,14,14,,,,,,,,,,,,,,,,,,,,,,,,,,,,180.78194839996286,None,['1'],0,[0.032058300042990595],180.78194839996286,None,,001,2021_Nov_25_1210,TMTAB,2021.2.3,144.86119395043107,
16,['1'],TMT-A_1_2linestimulus13.png,TMT-A_1_2greenlinestimulus13.png,TMT-A_1_2redlinestimulus13.png,None,,,,,,,,,,,,,0,15,15,15,,,,,,,,,,,,,,,,,,,,,,,,,,,,180.91733829997247,None,['2'],0,[-0.03465139999752864],180.91733829997247,None,,001,2021_Nov_25_1210,TMTAB,2021.2.3,144.86119395043107,
17,['3'],TMT-A_1_2linestimulus14.png,TMT-A_1_2greenlinestimulus14.png,TMT-A_1_2redlinestimulus14.png,None,,,,,,,,,,,,,0,16,16,16,,,,,,,,,,,,,,,,,,,,,,,,,,,,181.01395220000995,None,['3'],1,[0.004758600029163063],181.01395220000995,None,,001,2021_Nov_25_1210,TMTAB,2021.2.3,144.86119395043107,
18,['2'],TMT-A_1_2linestimulus15.png,TMT-A_1_2greenlinestimulus15.png,TMT-A_1_2redlinestimulus15.png,None,,,,,,,,,,,,,0,17,17,17,,,,,,,,,,,,,,,,,,,,,,,,,,,,181.11774799996056,None,['1'],0,[0.06427329999860376],181.11774799996056,None,,001,2021_Nov_25_1210,TMTAB,2021.2.3,144.86119395043107,
19,['3'],TMT-A_1_2linestimulus16.png,TMT-A_1_2greenlinestimulus16.png,TMT-A_1_2redlinestimulus16.png,None,,,,,,,,,,,,,0,18,18,18,,,,,,,,,,,,,,,,,,,,,,,,,,,,181.2708763999981,None,['2'],0,[-0.07290490000741556],181.2708763999981,None,,001,2021_Nov_25_1210,TMTAB,2021.2.3,144.86119395043107,
20,['2'],TMT-A_1_2linestimulus17.png,TMT-A_1_2greenlinestimulus17.png,TMT-A_1_2redlinestimulus17.png,None,,,,,,,,,,,,,0,19,19,19,,,,,,,,,,,,,,,,,,,,,,,,,,,,181.39163139997981,None,['3'],0,[-0.08895810000831261],181.39163139997981,None,,001,2021_Nov_25_1210,TMTAB,2021.2.3,144.86119395043107,
21,['1'],TMT-A_1_2linestimulus18.png,TMT-A_1_2greenlinestimulus18.png,TMT-A_1_2redlinestimulus18.png,None,,,,,,,,,,,,,0,20,20,20,,,,,,,,,,,,,,,,,,,,,,,,,,,,181.50119729997823,None,['1'],1,[-0.007590499997604638],181.50119729997823,None,,001,2021_Nov_25_1210,TMTAB,2021.2.3,144.86119395043107,
22,['3'],TMT-A_1_2linestimulus19.png,TMT-A_1_2greenlinestimulus19.png,TMT-A_1_2redlinestimulus19.png,None,,,,,,,,,,,,,0,21,21,21,,,,,,,,,,,,,,,,,,,,,,,,,,,,181.59120709996205,None,['2'],0,[-0.018410899967420846],181.59120709996205,None,,001,2021_Nov_25_1210,TMTAB,2021.2.3,144.86119395043107,
23,['2'],TMT-A_1_2linestimulus20.png,TMT-A_1_2greenlinestimulus20.png,TMT-A_1_2redlinestimulus20.png,None,,,,,,,,,,,,,0,22,22,22,,,,,,,,,,,,,,,,,,,,,,,,,,,,181.68274650000967,None,['3'],0,[-0.023128600034397095],181.68274650000967,None,,001,2021_Nov_25_1210,TMTAB,2021.2.3,144.86119395043107,
24,['3'],TMT-A_1_2linestimulus21.png,TMT-A_1_2greenlinestimulus21.png,TMT-A_1_2redlinestimulus21.png,None,,,,,,,,,,,,,0,23,23,23,,,,,,,,,,,,,,,,,,,,,,,,,,,,181.78477839997504,None,['1'],0,[0.03429189999587834],181.78477839997504,None,,001,2021_Nov_25_1210,TMTAB,2021.2.3,144.86119395043107,
25,['2'],TMT-A_1_2linestimulus22.png,TMT-A_1_2greenlinestimulus22.png,TMT-A_1_2redlinestimulus22.png,None,,,,,,,,,,,,,0,24,24,24,,,,,,,,,,,,,,,,,,,,,,,,,,,,181.9164833999821,None,['2'],1,[-0.02321509999455884],181.9164833999821,None,,001,2021_Nov_25_1210,TMTAB,2021.2.3,144.86119395043107,
None,None,TMT-A_1_2linestimulus23.png,TMT-A_1_2greenlinestimulus23.png,TMT-A_1_2redlinestimulus23.png,None,,,,,,,,,,,,,0,25,25,25,,,,,,,,,,,,,,,,,,,,,,,,,,,,182.0076970999944,None,['3'],0,[-0.024212900025304407],182.0076970999944,None,,001,2021_Nov_25_1210,TMTAB,2021.2.3,144.86119395043107,
1,['2'],TMT-A_1_3.png,TMT-A_1_3.png,TMT-A_1_3.png,10,,,,,,,,,,,,,,,,,0,0,0,0,,,,,,,,,182.01937579998048,None,,,,,,,,,,,,,,185.11757309996756,None,"['1', '2', '3']",0,"[-3.001402199966833, -2.9183181999833323, -2.8292186000035144]",185.11757309996756,None,,001,2021_Nov_25_1210,TMTAB,2021.2.3,144.86119395043107,
2,['3'],TMT-A_1_3.png,TMT-A_1_3firstgreen.png,TMT-A_1_3firstred.png,10,,,,,,,,,,,,,,,,,0,1,1,1,,,,,,,,,,,,,,,,,,,,,,,,185.20368299999973,None,['2'],0,[0.9012619000277482],185.20368299999973,None,,001,2021_Nov_25_1210,TMTAB,2021.2.3,144.86119395043107,
3,['1'],TMT-A_1_3linestimulus0.png,TMT-A_1_3greenlinestimulus0.png,TMT-A_1_3redlinestimulus0.png,10,,,,,,,,,,,,,,,,,0,2,2,2,,,,,,,,,,,,,,,,,,,,,,,,186.2018059999682,None,['3'],0,[0.030043100006878376],186.2018059999682,None,,001,2021_Nov_25_1210,TMTAB,2021.2.3,144.86119395043107,
4,['2'],TMT-A_1_3linestimulus1.png,TMT-A_1_3greenlinestimulus1.png,TMT-A_1_3redlinestimulus1.png,10,,,,,,,,,,,,,,,,,0,3,3,3,,,,,,,,,,,,,,,,,,,,,,,,186.33285120001528,None,['1'],0,[-0.0181824000319466],186.33285120001528,None,,001,2021_Nov_25_1210,TMTAB,2021.2.3,144.86119395043107,
5,['3'],TMT-A_1_3linestimulus2.png,TMT-A_1_3greenlinestimulus2.png,TMT-A_1_3redlinestimulus2.png,10,,,,,,,,,,,,,,,,,0,4,4,4,,,,,,,,,,,,,,,,,,,,,,,,186.4189394999994,None,['2'],0,[0.05078670004149899],186.4189394999994,None,,001,2021_Nov_25_1210,TMTAB,2021.2.3,144.86119395043107,
6,['2'],TMT-A_1_3linestimulus3.png,TMT-A_1_3greenlinestimulus3.png,TMT-A_1_3redlinestimulus3.png,10,,,,,,,,,,,,,,,,,0,5,5,5,,,,,,,,,,,,,,,,,,,,,,,,186.55838840000797,None,"['3', '1']",0,"[0.005406000011134893, 0.1697530000237748]",186.55838840000797,None,,001,2021_Nov_25_1210,TMTAB,2021.2.3,144.86119395043107,
7,['1'],TMT-A_1_3linestimulus4.png,TMT-A_1_3greenlinestimulus4.png,TMT-A_1_3redlinestimulus4.png,10,,,,,,,,,,,,,,,,,0,6,6,6,,,,,,,,,,,,,,,,,,,,,,,,186.83435079996707,None,['2'],0,[-0.039706599956844],186.83435079996707,None,,001,2021_Nov_25_1210,TMTAB,2021.2.3,144.86119395043107,
8,['2'],TMT-A_1_3linestimulus5.png,TMT-A_1_3greenlinestimulus5.png,TMT-A_1_3redlinestimulus5.png,10,,,,,,,,,,,,,,,,,0,7,7,7,,,,,,,,,,,,,,,,,,,,,,,,186.92360549996374,None,['3'],0,[-0.012852299958467484],186.92360549996374,None,,001,2021_Nov_25_1210,TMTAB,2021.2.3,144.86119395043107,
9,['1'],TMT-A_1_3linestimulus6.png,TMT-A_1_3greenlinestimulus6.png,TMT-A_1_3redlinestimulus6.png,10,,,,,,,,,,,,,,,,,0,8,8,8,,,,,,,,,,,,,,,,,,,,,,,,187.02092260000063,None,['1'],1,[0.054150400042999536],187.02092260000063,None,,001,2021_Nov_25_1210,TMTAB,2021.2.3,144.86119395043107,
10,['2'],TMT-A_1_3linestimulus7.png,TMT-A_1_3greenlinestimulus7.png,TMT-A_1_3redlinestimulus7.png,10,,,,,,,,,,,,,,,,,0,9,9,9,,,,,,,,,,,,,,,,,,,,,,,,187.16790920001222,None,['2'],1,[-0.020365700009278953],187.16790920001222,None,,001,2021_Nov_25_1210,TMTAB,2021.2.3,144.86119395043107,
11,['1'],TMT-A_1_3linestimulus8.png,TMT-A_1_3greenlinestimulus8.png,TMT-A_1_3redlinestimulus8.png,10,,,,,,,,,,,,,,,,,0,10,10,10,,,,,,,,,,,,,,,,,,,,,,,,187.24291460000677,None,['3'],0,[0.008388299960643053],187.24291460000677,None,,001,2021_Nov_25_1210,TMTAB,2021.2.3,144.86119395043107,
12,['3'],TMT-A_1_3linestimulus9.png,TMT-A_1_3greenlinestimulus9.png,TMT-A_1_3redlinestimulus9.png,10,,,,,,,,,,,,,,,,,0,11,11,11,,,,,,,,,,,,,,,,,,,,,,,,187.3475151999737,None,['1'],0,[0.08021360001293942],187.3475151999737,None,,001,2021_Nov_25_1210,TMTAB,2021.2.3,144.86119395043107,
13,['1'],TMT-A_1_3linestimulus10.png,TMT-A_1_3greenlinestimulus10.png,TMT-A_1_3redlinestimulus10.png,1,,,,,,,,,,,,,,,,,0,12,12,12,,,,,,,,,,,,,,,,,,,,,,,,187.53727349999826,None,['2'],0,[-0.05284580000443384],187.53727349999826,None,,001,2021_Nov_25_1210,TMTAB,2021.2.3,144.86119395043107,
14,['2'],TMT-A_1_3linestimulus11.png,TMT-A_1_3greenlinestimulus11.png,TMT-A_1_3redlinestimulus11.png,None,,,,,,,,,,,,,,,,,0,13,13,13,,,,,,,,,,,,,,,,,,,,,,,,187.63848829997005,None,['3'],0,[-0.06429209996713325],187.63848829997005,None,,001,2021_Nov_25_1210,TMTAB,2021.2.3,144.86119395043107,
15,['3'],TMT-A_1_3linestimulus12.png,TMT-A_1_3greenlinestimulus12.png,TMT-A_1_3redlinestimulus12.png,None,,,,,,,,,,,,,,,,,0,14,14,14,,,,,,,,,,,,,,,,,,,,,,,,187.72885849996237,None,['1'],0,[0.02700659999391064],187.72885849996237,None,,001,2021_Nov_25_1210,TMTAB,2021.2.3,144.86119395043107,
16,['2'],TMT-A_1_3linestimulus13.png,TMT-A_1_3greenlinestimulus13.png,TMT-A_1_3redlinestimulus13.png,None,,,,,,,,,,,,,,,,,0,15,15,15,,,,,,,,,,,,,,,,,,,,,,,,187.89783819997683,None,['2'],1,[-0.08941349998349324],187.89783819997683,None,,001,2021_Nov_25_1210,TMTAB,2021.2.3,144.86119395043107,
17,['3'],TMT-A_1_3linestimulus14.png,TMT-A_1_3greenlinestimulus14.png,TMT-A_1_3redlinestimulus14.png,None,,,,,,,,,,,,,,,,,0,16,16,16,,,,,,,,,,,,,,,,,,,,,,,,188.00019900000188,None,['1'],0,[0.37682099995436147],188.00019900000188,None,,001,2021_Nov_25_1210,TMTAB,2021.2.3,144.86119395043107,
18,['2'],TMT-A_1_3linestimulus15.png,TMT-A_1_3greenlinestimulus15.png,TMT-A_1_3redlinestimulus15.png,None,,,,,,,,,,,,,,,,,0,17,17,17,,,,,,,,,,,,,,,,,,,,,,,,188.48005989997182,None,['2'],1,[-0.09074280003551394],188.48005989997182,None,,001,2021_Nov_25_1210,TMTAB,2021.2.3,144.86119395043107,
19,['1'],TMT-A_1_3linestimulus16.png,TMT-A_1_3greenlinestimulus16.png,TMT-A_1_3redlinestimulus16.png,None,,,,,,,,,,,,,,,,,0,18,18,18,,,,,,,,,,,,,,,,,,,,,,,,188.5696561000077,None,['3'],0,[-0.03428769996389747],188.5696561000077,None,,001,2021_Nov_25_1210,TMTAB,2021.2.3,144.86119395043107,
20,['3'],TMT-A_1_3linestimulus17.png,TMT-A_1_3greenlinestimulus17.png,TMT-A_1_3redlinestimulus17.png,None,,,,,,,,,,,,,,,,,0,19,19,19,,,,,,,,,,,,,,,,,,,,,,,,188.66240969998762,None,['1'],0,[0.04873550002230331],188.66240969998762,None,,001,2021_Nov_25_1210,TMTAB,2021.2.3,144.86119395043107,
21,['1'],TMT-A_1_3linestimulus18.png,TMT-A_1_3greenlinestimulus18.png,TMT-A_1_3redlinestimulus18.png,None,,,,,,,,,,,,,,,,,0,20,20,20,,,,,,,,,,,,,,,,,,,,,,,,188.80685300001642,None,['2'],0,[-0.0467447999981232],188.80685300001642,None,,001,2021_Nov_25_1210,TMTAB,2021.2.3,144.86119395043107,
22,['2'],TMT-A_1_3linestimulus19.png,TMT-A_1_3greenlinestimulus19.png,TMT-A_1_3redlinestimulus19.png,None,,,,,,,,,,,,,,,,,0,21,21,21,,,,,,,,,,,,,,,,,,,,,,,,188.90368439996382,None,['3'],0,[-0.02433849999215454],188.90368439996382,None,,001,2021_Nov_25_1210,TMTAB,2021.2.3,144.86119395043107,
23,['3'],TMT-A_1_3linestimulus20.png,TMT-A_1_3greenlinestimulus20.png,TMT-A_1_3redlinestimulus20.png,None,,,,,,,,,,,,,,,,,0,22,22,22,,,,,,,,,,,,,,,,,,,,,,,,188.99378749995958,None,['1'],0,[0.02621839998755604],188.99378749995958,None,,001,2021_Nov_25_1210,TMTAB,2021.2.3,144.86119395043107,
24,['2'],TMT-A_1_3linestimulus21.png,TMT-A_1_3greenlinestimulus21.png,TMT-A_1_3redlinestimulus21.png,None,,,,,,,,,,,,,,,,,0,23,23,23,,,,,,,,,,,,,,,,,,,,,,,,189.11829750001198,None,['2'],1,[-0.050568100006785244],189.11829750001198,None,,001,2021_Nov_25_1210,TMTAB,2021.2.3,144.86119395043107,
25,['3'],TMT-A_1_3linestimulus22.png,TMT-A_1_3greenlinestimulus22.png,TMT-A_1_3redlinestimulus22.png,None,,,,,,,,,,,,,,,,,0,24,24,24,,,,,,,,,,,,,,,,,,,,,,,,189.22200279997196,None,['3'],1,[-0.041639600007329136],189.22200279997196,None,,001,2021_Nov_25_1210,TMTAB,2021.2.3,144.86119395043107,
None,None,TMT-A_1_3linestimulus23.png,TMT-A_1_3greenlinestimulus23.png,TMT-A_1_3redlinestimulus23.png,None,,,,,,,,,,,,,,,,,0,25,25,25,,,,,,,,,,,,,,,,,,,,,,,,189.32609539997065,None,None,1,,189.32609539997065,None,,001,2021_Nov_25_1210,TMTAB,2021.2.3,144.86119395043107,
