NumberLetter,corrAns,StimFile,trials.thisRepN,trials.thisTrialN,trials.thisN,trials.thisIndex,trials_2.thisRepN,trials_2.thisTrialN,trials_2.thisN,trials_2.thisIndex,Instruct.started,Instruct.stopped,text_2.started,text_2.stopped,Stim.started,Stim.stopped,key_resp_2.keys,key_resp_2.corr,key_resp_2.rt,key_resp_2.started,key_resp_2.stopped,text_3.started,text_3.stopped,key_resp_3.keys,key_resp_3.rt,key_resp_3.started,key_resp_3.stopped,participant,session,date,expName,psychopyVersion,frameRate,
1,1,TMTAD1.bmp,0,0,0,0,,,,,6.5257901000004495,None,6.5257901000004495,None,7.928211799997371,None,1,1,1.3051166999939596,7.928211799997371,None,,,,,,,fxdsnb,001,2021_Jun_09_1100,TMTAB,2021.1.4,144.01875700154943,
2,3,TMTAD1.bmp,0,1,1,1,,,,,,,,,9.250701699987985,None,3,1,2.4638879999984056,9.250701699987985,None,,,,,,,fxdsnb,001,2021_Jun_09_1100,TMTAB,2021.1.4,144.01875700154943,
3,2,TMTAD11.bmp,0,2,2,2,,,,,,,,,11.728137999991304,None,1,0,0.692354200000409,11.728137999991304,None,,,,,,,fxdsnb,001,2021_Jun_09_1100,TMTAB,2021.1.4,144.01875700154943,
4,1,TMTAD12.bmp,0,3,3,3,,,,,,,,,12.436334999991232,None,2,0,0.14011659999960102,12.436334999991232,None,,,,,,,fxdsnb,001,2021_Jun_09_1100,TMTAB,2021.1.4,144.01875700154943,
5,2,TMTAD13.bmp,0,4,4,4,,,,,,,,,12.591840199995204,None,3,0,0.1156353999977,12.591840199995204,None,,,,,,,fxdsnb,001,2021_Jun_09_1100,TMTAB,2021.1.4,144.01875700154943,
6,3,TMTAD14.bmp,0,5,5,5,,,,,,,,,12.719498799997382,None,1,0,0.38397660000191536,12.719498799997382,None,,,,,,,fxdsnb,001,2021_Jun_09_1100,TMTAB,2021.1.4,144.01875700154943,
7,2,TMTAD15.bmp,0,6,6,6,,,,,,,,,13.114604699992924,None,2,1,0.05373870000767056,13.114604699992924,None,,,,,,,fxdsnb,001,2021_Jun_09_1100,TMTAB,2021.1.4,144.01875700154943,
8,1,TMTAD16.bmp,0,7,7,7,,,,,,,,,13.179366399999708,None,3,0,0.1741360000014538,13.179366399999708,None,,,,,,,fxdsnb,001,2021_Jun_09_1100,TMTAB,2021.1.4,144.01875700154943,
9,3,TMTAD17.bmp,0,8,8,8,,,,,,,,,13.36977959999058,None,1,0,0.17967149999458343,13.36977959999058,None,,,,,,,fxdsnb,001,2021_Jun_09_1100,TMTAB,2021.1.4,144.01875700154943,
10,2,TMTAD18.bmp,0,9,9,9,,,,,,,,,13.560472500001197,None,2,1,0.06293689999438357,13.560472500001197,None,,,,,,,fxdsnb,001,2021_Jun_09_1100,TMTAB,2021.1.4,144.01875700154943,
11,3,TMTAD19.bmp,0,10,10,10,,,,,,,,,13.640049900001031,None,1,0,0.3144045999943046,13.640049900001031,None,,,,,,,fxdsnb,001,2021_Jun_09_1100,TMTAB,2021.1.4,144.01875700154943,
12,1,TMTAD110.bmp,0,11,11,11,,,,,,,,,13.96534039999824,None,2,0,0.30714230000739917,13.96534039999824,None,,,,,,,fxdsnb,001,2021_Jun_09_1100,TMTAB,2021.1.4,144.01875700154943,
13,2,TMTAD111.bmp,0,12,12,12,,,,,,,,,14.288319999992382,None,3,0,0.020016900001792237,14.288319999992382,None,,,,,,,fxdsnb,001,2021_Jun_09_1100,TMTAB,2021.1.4,144.01875700154943,
14,3,TMTAD112.bmp,0,13,13,13,,,,,,,,,14.321553599991603,None,1,0,0.2749156999925617,14.321553599991603,None,,,,,,,fxdsnb,001,2021_Jun_09_1100,TMTAB,2021.1.4,144.01875700154943,
15,1,TMTAD113.bmp,0,14,14,14,,,,,,,,,14.611415899998974,None,2,0,0.03815630001190584,14.611415899998974,None,,,,,,,fxdsnb,001,2021_Jun_09_1100,TMTAB,2021.1.4,144.01875700154943,
16,2,TMTAD114.bmp,0,15,15,15,,,,,,,,,14.660549599997466,None,3,0,0.3388591999973869,14.660549599997466,None,,,,,,,fxdsnb,001,2021_Jun_09_1100,TMTAB,2021.1.4,144.01875700154943,
17,3,TMTAD115.bmp,0,16,16,16,,,,,,,,,15.011567699999432,None,1,0,0.5617996999935713,15.011567699999432,None,,,,,,,fxdsnb,001,2021_Jun_09_1100,TMTAB,2021.1.4,144.01875700154943,
18,2,TMTAD116.bmp,0,17,17,17,,,,,,,,,15.586775399991893,None,2,1,0.36172260000603274,15.586775399991893,None,,,,,,,fxdsnb,001,2021_Jun_09_1100,TMTAB,2021.1.4,144.01875700154943,
19,3,TMTAD117.bmp,0,18,18,18,,,,,,,,,15.95901409999351,None,3,1,0.35650179999356624,15.95901409999351,None,,,,,,,fxdsnb,001,2021_Jun_09_1100,TMTAB,2021.1.4,144.01875700154943,
20,1,TMTAD118.bmp,0,19,19,19,,,,,,,,,16.33153689999017,None,1,1,0.3058651000028476,16.33153689999017,None,,,,,,,fxdsnb,001,2021_Jun_09_1100,TMTAB,2021.1.4,144.01875700154943,
21,2,TMTAD119.bmp,0,20,20,20,,,,,,,,,16.6482313000015,None,2,1,0.6063100000028498,16.6482313000015,None,,,,,,,fxdsnb,001,2021_Jun_09_1100,TMTAB,2021.1.4,144.01875700154943,
22,3,TMTAD120.bmp,0,21,21,21,,,,,,,,,17.26549619999423,None,3,1,0.4368650000105845,17.26549619999423,None,,,,,,,fxdsnb,001,2021_Jun_09_1100,TMTAB,2021.1.4,144.01875700154943,
23,1,TMTAD121.bmp,0,22,22,22,,,,,,,,,17.71330719999969,None,1,1,0.44313109999347944,17.71330719999969,None,,,,,,,fxdsnb,001,2021_Jun_09_1100,TMTAB,2021.1.4,144.01875700154943,
24,2,TMTAD122.bmp,0,23,23,23,,,,,,,,,18.170160399997258,None,2,1,0.4053585999936331,18.170160399997258,None,,,,,,,fxdsnb,001,2021_Jun_09_1100,TMTAB,2021.1.4,144.01875700154943,
None,None,TMTAD123.bmp,0,24,24,24,,,,,,,,,18.59086959999695,None,3,0,0.3537594999943394,18.59086959999695,None,,,,,,,fxdsnb,001,2021_Jun_09_1100,TMTAB,2021.1.4,144.01875700154943,
,,,,,,,,,,,,,,,,,,,,,,18.952857600001153,None,1,5.268619299997226,18.952857600001153,None,fxdsnb,001,2021_Jun_09_1100,TMTAB,2021.1.4,144.01875700154943,
1,3,TMTBD1.bmp,,,,,0,0,0,0,24.229814799997257,None,24.229814799997257,None,36.75669270000071,None,1,0,0.9239070000039646,36.75669270000071,None,,,,,,,fxdsnb,001,2021_Jun_09_1100,TMTAB,2021.1.4,144.01875700154943,
A,1,TMTBD1.bmp,,,,,0,1,1,1,,,,,37.69121869999799,None,2,0,0.5562255999975605,37.69121869999799,None,,,,,,,fxdsnb,001,2021_Jun_09_1100,TMTAB,2021.1.4,144.01875700154943,
2,3,TMTBD11.bmp,,,,,0,2,2,2,,,,,38.26000729999214,None,3,1,0.40248679999785963,38.26000729999214,None,,,,,,,fxdsnb,001,2021_Jun_09_1100,TMTAB,2021.1.4,144.01875700154943,
B,2,TMTBD1A.bmp,,,,,0,3,3,3,,,,,38.67780130000028,None,1,0,0.26375569999800064,38.67780130000028,None,,,,,,,fxdsnb,001,2021_Jun_09_1100,TMTAB,2021.1.4,144.01875700154943,
3,1,TMTBD12.bmp,,,,,0,4,4,4,,,,,38.953162399993744,None,2,0,0.15827970000100322,38.953162399993744,None,,,,,,,fxdsnb,001,2021_Jun_09_1100,TMTAB,2021.1.4,144.01875700154943,
C,2,TMTBD1B.bmp,,,,,0,5,5,5,,,,,39.12268909999693,None,3,0,0.1268524999904912,39.12268909999693,None,,,,,,,fxdsnb,001,2021_Jun_09_1100,TMTAB,2021.1.4,144.01875700154943,
4,3,TMTBD13.bmp,,,,,0,6,6,6,,,,,39.264254199995776,None,1,0,0.11517879999883007,39.264254199995776,None,,,,,,,fxdsnb,001,2021_Jun_09_1100,TMTAB,2021.1.4,144.01875700154943,
D,1,TMTBD1C.bmp,,,,,0,7,7,7,,,,,39.39192460000049,None,2,0,0.08850220000022091,39.39192460000049,None,,,,,,,fxdsnb,001,2021_Jun_09_1100,TMTAB,2021.1.4,144.01875700154943,
5,2,TMTBD14.bmp,,,,,0,8,8,8,,,,,39.491624699992826,None,3,0,0.10900399999809451,39.491624699992826,None,,,,,,,fxdsnb,001,2021_Jun_09_1100,TMTAB,2021.1.4,144.01875700154943,
E,3,TMTBD1D.bmp,,,,,0,9,9,9,,,,,39.61229299999832,None,1,0,0.15408569999272004,39.61229299999832,None,,,,,,,fxdsnb,001,2021_Jun_09_1100,TMTAB,2021.1.4,144.01875700154943,
6,2,TMTBD15.bmp,,,,,0,10,10,10,,,,,39.78277859999798,None,2,1,0.05368569999700412,39.78277859999798,None,,,,,,,fxdsnb,001,2021_Jun_09_1100,TMTAB,2021.1.4,144.01875700154943,
F,1,TMTBD1E.bmp,,,,,0,11,11,11,,,,,39.84778430000006,None,3,0,0.09653670000261627,39.84778430000006,None,,,,,,,fxdsnb,001,2021_Jun_09_1100,TMTAB,2021.1.4,144.01875700154943,
7,2,TMTBD16.bmp,,,,,0,12,12,12,,,,,39.96146219999355,None,1,0,0.14191530000243802,39.96146219999355,None,,,,,,,fxdsnb,001,2021_Jun_09_1100,TMTAB,2021.1.4,144.01875700154943,
G,1,TMTBD1F.bmp,,,,,0,13,13,13,,,,,40.11708250000083,None,2,0,0.07539649998943787,40.11708250000083,None,,,,,,,fxdsnb,001,2021_Jun_09_1100,TMTAB,2021.1.4,144.01875700154943,
8,3,TMTBD17.bmp,,,,,0,14,14,14,,,,,40.20190109999385,None,3,1,0.08651009999448434,40.20190109999385,None,,,,,,,fxdsnb,001,2021_Jun_09_1100,TMTAB,2021.1.4,144.01875700154943,
H,2,TMTBD1G.bmp,,,,,0,15,15,15,,,,,40.30063969999901,None,1,0,0.15495609999925364,40.30063969999901,None,,,,,,,fxdsnb,001,2021_Jun_09_1100,TMTAB,2021.1.4,144.01875700154943,
9,3,TMTBD18.bmp,,,,,0,16,16,16,,,,,40.47025179999764,None,2,0,0.07820859999628738,40.47025179999764,None,,,,,,,fxdsnb,001,2021_Jun_09_1100,TMTAB,2021.1.4,144.01875700154943,
I,1,TMTBD1H.bmp,,,,,0,17,17,17,,,,,40.56189649998851,None,3,0,0.09867320000194013,40.56189649998851,None,,,,,,,fxdsnb,001,2021_Jun_09_1100,TMTAB,2021.1.4,144.01875700154943,
10,2,TMTBD19.bmp,,,,,0,18,18,18,,,,,40.67668049999338,None,1,0,0.14898810000158846,40.67668049999338,None,,,,,,,fxdsnb,001,2021_Jun_09_1100,TMTAB,2021.1.4,144.01875700154943,
J,1,TMTBD1I.bmp,,,,,0,19,19,19,,,,,40.84010560000024,None,2,0,0.08030459999281447,40.84010560000024,None,,,,,,,fxdsnb,001,2021_Jun_09_1100,TMTAB,2021.1.4,144.01875700154943,
11,3,TMTBD110.bmp,,,,,0,20,20,20,,,,,40.93294210000022,None,3,1,0.0934873000078369,40.93294210000022,None,,,,,,,fxdsnb,001,2021_Jun_09_1100,TMTAB,2021.1.4,144.01875700154943,
K,1,TMTBD1J.bmp,,,,,0,21,21,21,,,,,41.03976469999179,None,1,1,0.2707737000018824,41.03976469999179,None,,,,,,,fxdsnb,001,2021_Jun_09_1100,TMTAB,2021.1.4,144.01875700154943,
12,2,TMTBD111.bmp,,,,,0,22,22,22,,,,,41.32772560000012,None,2,1,0.03278620001219679,41.32772560000012,None,,,,,,,fxdsnb,001,2021_Jun_09_1100,TMTAB,2021.1.4,144.01875700154943,
L,3,TMTBD1K.bmp,,,,,0,23,23,23,,,,,41.37747969999327,None,3,1,0.1301028000016231,41.37747969999327,None,,,,,,,fxdsnb,001,2021_Jun_09_1100,TMTAB,2021.1.4,144.01875700154943,
None,None,TMTBD112.bmp,,,,,0,24,24,24,,,,,41.51921459998994,None,1,0,0.19909520000510383,41.51921459998994,None,,,,,,,fxdsnb,001,2021_Jun_09_1100,TMTAB,2021.1.4,144.01875700154943,
