Block_file,Condition_rows,NumberLetter,corrAns,StimFile,Correct_StimFile,False_StimFile,DurationTrial,Correct,restartpractice.thisRepN,restartpractice.thisTrialN,restartpractice.thisN,restartpractice.thisIndex,trials_practice.thisRepN,trials_practice.thisTrialN,trials_practice.thisN,trials_practice.thisIndex,Blocks_loop.thisRepN,Blocks_loop.thisTrialN,Blocks_loop.thisN,Blocks_loop.thisIndex,trials.thisRepN,trials.thisTrialN,trials.thisN,trials.thisIndex,key_resp_6.keys,key_resp_6.rt,key_resp_6.started,key_resp_6.stopped,Stim_practice.started,Stim_practice.stopped,key_resp_practice.keys,key_resp_practice.rt,key_resp_practice.started,key_resp_practice.stopped,key_resp_5.keys,key_resp_5.rt,Attempts,First_attempt,Stim.started,Stim.stopped,key_resp_2.keys,key_resp_2.corr,key_resp_2.rt,key_resp_2.started,key_resp_2.stopped,participant,session,date,expName,psychopyVersion,frameRate,
,,,,,,,,,,,,,,,,,,,,,,,,,2,0.4375282998662442,8.03810240002349,None,,,,,,,,,,,,,,,,,,,001,2022_Feb_02_1215,TMTAstop-A,2021.2.3,149.4125100940747,
TMTstop-A_1_1.xlsx,0:26,1,['2'],TMTstop-A_1_1.png,TMTstop-A_1_1.png,TMTstop-A_1_1.png,10,,,,,,,,,,0,0,0,0,0,0,0,0,,,,,14.998021099949256,None,1,0.12875359994359314,14.998021099949256,None,2,0.5039543998427689,2,1,19.638906999956816,None,"['1', '2']",1,"[0.4470801001880318, 0.46823170012794435]",19.638906999956816,None,,001,2022_Feb_02_1215,TMTAstop-A,2021.2.3,149.4125100940747,
TMTstop-A_1_1.xlsx,0:26,2,['1'],TMTstop-A_1_1.png,TMTstop-A_1_1firstgreen.png,TMTstop-A_1_1firstred.png,10,,,,,,,,,,0,0,0,0,0,1,1,1,,,,,,,,,,,,,2,1,20.21283179987222,None,"['3', '1']",1,"[0.05579630006104708, 0.2156738000921905]",20.21283179987222,None,,001,2022_Feb_02_1215,TMTAstop-A,2021.2.3,149.4125100940747,
TMTstop-A_1_1.xlsx,0:26,3,['2'],TMTstop-A_1_1linestimulus0.png,TMTstop-A_1_1greenlinestimulus0.png,TMTstop-A_1_1redlinestimulus0.png,10,,,,,,,,,,0,0,0,0,0,2,2,2,,,,,,,,,,,,,1,1,20.512253199936822,None,['2'],1,[-0.03455989994108677],20.512253199936822,None,,001,2022_Feb_02_1215,TMTAstop-A,2021.2.3,149.4125100940747,
TMTstop-A_1_1.xlsx,0:26,4,['3'],TMTstop-A_1_1linestimulus1.png,TMTstop-A_1_1greenlinestimulus1.png,TMTstop-A_1_1redlinestimulus1.png,10,,,,,,,,,,0,0,0,0,0,3,3,3,,,,,,,,,,,,,1,1,20.594969199970365,None,['3'],1,[-0.022998200030997396],20.594969199970365,None,,001,2022_Feb_02_1215,TMTAstop-A,2021.2.3,149.4125100940747,
TMTstop-A_1_1.xlsx,0:26,5,['2'],TMTstop-A_1_1linestimulus2.png,TMTstop-A_1_1greenlinestimulus2.png,TMTstop-A_1_1redlinestimulus2.png,10,,,,,,,,,,0,0,0,0,0,4,4,4,,,,,,,,,,,,,2,1,20.67128930008039,None,"['1', '2']",1,"[0.037348799873143435, 0.082559899892658]",20.67128930008039,None,,001,2022_Feb_02_1215,TMTAstop-A,2021.2.3,149.4125100940747,
TMTstop-A_1_1.xlsx,0:26,6,['3'],TMTstop-A_1_1linestimulus3.png,TMTstop-A_1_1greenlinestimulus3.png,TMTstop-A_1_1redlinestimulus3.png,10,,,,,,,,,,0,0,0,0,0,5,5,5,,,,,,,,,,,,,1,1,20.83087920001708,None,['3'],1,[-0.005169000010937452],20.83087920001708,None,,001,2022_Feb_02_1215,TMTAstop-A,2021.2.3,149.4125100940747,
TMTstop-A_1_1.xlsx,0:26,7,['2'],TMTstop-A_1_1linestimulus4.png,TMTstop-A_1_1greenlinestimulus4.png,TMTstop-A_1_1redlinestimulus4.png,10,,,,,,,,,,0,0,0,0,0,6,6,6,,,,,,,,,,,,,2,1,20.90736179985106,None,"['1', '2']",1,"[0.06536399992182851, 0.12546900007873774]",20.90736179985106,None,,001,2022_Feb_02_1215,TMTAstop-A,2021.2.3,149.4125100940747,
TMTstop-A_1_1.xlsx,0:26,8,['1'],TMTstop-A_1_1linestimulus5.png,TMTstop-A_1_1greenlinestimulus5.png,TMTstop-A_1_1redlinestimulus5.png,10,,,,,,,,,,0,0,0,0,0,7,7,7,,,,,,,,,,,,,2,1,21.136762999929488,None,"['3', '1']",1,"[-0.030748500023037195, 0.11957870004698634]",21.136762999929488,None,,001,2022_Feb_02_1215,TMTAstop-A,2021.2.3,149.4125100940747,
TMTstop-A_1_1.xlsx,0:26,9,['2'],TMTstop-A_1_1linestimulus6.png,TMTstop-A_1_1greenlinestimulus6.png,TMTstop-A_1_1redlinestimulus6.png,10,,,,,,,,,,0,0,0,0,0,8,8,8,,,,,,,,,,,,,1,1,21.34480890003033,None,['2'],1,[-0.031631399877369404],21.34480890003033,None,,001,2022_Feb_02_1215,TMTAstop-A,2021.2.3,149.4125100940747,
TMTstop-A_1_1.xlsx,0:26,10,['1'],TMTstop-A_1_1linestimulus7.png,TMTstop-A_1_1greenlinestimulus7.png,TMTstop-A_1_1redlinestimulus7.png,10,,,,,,,,,,0,0,0,0,0,9,9,9,,,,,,,,,,,,,2,1,21.41477999999188,None,"['3', '1']",1,"[-0.014492499874904752, 0.12968400004319847]",21.41477999999188,None,,001,2022_Feb_02_1215,TMTAstop-A,2021.2.3,149.4125100940747,
TMTstop-A_1_1.xlsx,0:26,11,['2'],TMTstop-A_1_1linestimulus8.png,TMTstop-A_1_1greenlinestimulus8.png,TMTstop-A_1_1redlinestimulus8.png,10,,,,,,,,,,0,0,0,0,0,10,10,10,,,,,,,,,,,,,1,1,21.657362199854106,None,['2'],1,[-0.04672540002502501],21.657362199854106,None,,001,2022_Feb_02_1215,TMTAstop-A,2021.2.3,149.4125100940747,
TMTstop-A_1_1.xlsx,0:26,12,['3'],TMTstop-A_1_1linestimulus9.png,TMTstop-A_1_1greenlinestimulus9.png,TMTstop-A_1_1redlinestimulus9.png,10,,,,,,,,,,0,0,0,0,0,11,11,11,,,,,,,,,,,,,1,1,21.73370960005559,None,['3'],1,[-0.03274799999780953],21.73370960005559,None,,001,2022_Feb_02_1215,TMTAstop-A,2021.2.3,149.4125100940747,
TMTstop-A_1_1.xlsx,0:26,13,['2'],TMTstop-A_1_1linestimulus10.png,TMTstop-A_1_1greenlinestimulus10.png,TMTstop-A_1_1redlinestimulus10.png,1,,,,,,,,,,0,0,0,0,0,12,12,12,,,,,,,,,,,,,4,1,21.8100210998673,None,"['1', '3', '1', '2']",1,"[0.019058299949392676, 0.19531950005330145, 0.4121149000711739, 0.48933340003713965]",21.8100210998673,None,,001,2022_Feb_02_1215,TMTAstop-A,2021.2.3,149.4125100940747,
TMTstop-A_1_1.xlsx,0:26,14,['3'],TMTstop-A_1_1linestimulus11.png,TMTstop-A_1_1greenlinestimulus11.png,TMTstop-A_1_1redlinestimulus11.png,None,,,,,,,,,,0,0,0,0,0,13,13,13,,,,,,,,,,,,,1,1,22.437949300045148,None,['3'],1,[-0.03940899996086955],22.437949300045148,None,,001,2022_Feb_02_1215,TMTAstop-A,2021.2.3,149.4125100940747,
TMTstop-A_1_1.xlsx,0:26,15,['1'],TMTstop-A_1_1linestimulus12.png,TMTstop-A_1_1greenlinestimulus12.png,TMTstop-A_1_1redlinestimulus12.png,None,,,,,,,,,,0,0,0,0,0,14,14,14,,,,,,,,,,,,,1,1,22.519580099964514,None,['1'],1,[0.28299979981966317],22.519580099964514,None,,001,2022_Feb_02_1215,TMTAstop-A,2021.2.3,149.4125100940747,
TMTstop-A_1_1.xlsx,0:26,16,['3'],TMTstop-A_1_1linestimulus13.png,TMTstop-A_1_1greenlinestimulus13.png,TMTstop-A_1_1redlinestimulus13.png,None,,,,,,,,,,0,0,0,0,0,15,15,15,,,,,,,,,,,,,2,1,22.89498750003986,None,"['2', '3']",1,"[0.039273499976843596, 0.12194869993254542]",22.89498750003986,None,,001,2022_Feb_02_1215,TMTAstop-A,2021.2.3,149.4125100940747,
TMTstop-A_1_1.xlsx,0:26,17,['2'],TMTstop-A_1_1linestimulus14.png,TMTstop-A_1_1greenlinestimulus14.png,TMTstop-A_1_1redlinestimulus14.png,None,,,,,,,,,,0,0,0,0,0,16,16,16,,,,,,,,,,,,,2,1,23.101848100079224,None,"['1', '2']",1,"[0.14675269997678697, 0.2443643999285996]",23.101848100079224,None,,001,2022_Feb_02_1215,TMTAstop-A,2021.2.3,149.4125100940747,
TMTstop-A_1_1.xlsx,0:26,18,['3'],TMTstop-A_1_1linestimulus15.png,TMTstop-A_1_1greenlinestimulus15.png,TMTstop-A_1_1redlinestimulus15.png,None,,,,,,,,,,0,0,0,0,0,17,17,17,,,,,,,,,,,,,1,1,23.456590899964795,None,['3'],1,[-0.005023699952289462],23.456590899964795,None,,001,2022_Feb_02_1215,TMTAstop-A,2021.2.3,149.4125100940747,
TMTstop-A_1_1.xlsx,0:26,19,['1'],TMTstop-A_1_1linestimulus16.png,TMTstop-A_1_1greenlinestimulus16.png,TMTstop-A_1_1redlinestimulus16.png,None,,,,,,,,,,0,0,0,0,0,18,18,18,,,,,,,,,,,,,1,1,23.53265229985118,None,['1'],1,[0.24831060017459095],23.53265229985118,None,,001,2022_Feb_02_1215,TMTAstop-A,2021.2.3,149.4125100940747,
TMTstop-A_1_1.xlsx,0:26,20,['3'],TMTstop-A_1_1linestimulus17.png,TMTstop-A_1_1greenlinestimulus17.png,TMTstop-A_1_1redlinestimulus17.png,None,,,,,,,,,,0,0,0,0,0,19,19,19,,,,,,,,,,,,,2,1,23.866934099933133,None,"['2', '3']",1,"[0.03530280012637377, 0.1317172001581639]",23.866934099933133,None,,001,2022_Feb_02_1215,TMTAstop-A,2021.2.3,149.4125100940747,
TMTstop-A_1_1.xlsx,0:26,21,['1'],TMTstop-A_1_1linestimulus18.png,TMTstop-A_1_1greenlinestimulus18.png,TMTstop-A_1_1redlinestimulus18.png,None,,,,,,,,,,0,0,0,0,0,20,20,20,,,,,,,,,,,,,1,1,24.10880919988267,None,['1'],1,[0.09546880004927516],24.10880919988267,None,,001,2022_Feb_02_1215,TMTAstop-A,2021.2.3,149.4125100940747,
TMTstop-A_1_1.xlsx,0:26,22,['3'],TMTstop-A_1_1linestimulus19.png,TMTstop-A_1_1greenlinestimulus19.png,TMTstop-A_1_1redlinestimulus19.png,None,,,,,,,,,,0,0,0,0,0,21,21,21,,,,,,,,,,,,,2,1,24.28392000007443,None,"['2', '3']",1,"[-0.011834700126200914, 0.07470060000196099]",24.28392000007443,None,,001,2022_Feb_02_1215,TMTAstop-A,2021.2.3,149.4125100940747,
TMTstop-A_1_1.xlsx,0:26,23,['1'],TMTstop-A_1_1linestimulus20.png,TMTstop-A_1_1greenlinestimulus20.png,TMTstop-A_1_1redlinestimulus20.png,None,,,,,,,,,,0,0,0,0,0,22,22,22,,,,,,,,,,,,,1,1,24.442955599864945,None,['1'],1,[0.08746149996295571],24.442955599864945,None,,001,2022_Feb_02_1215,TMTAstop-A,2021.2.3,149.4125100940747,
TMTstop-A_1_1.xlsx,0:26,24,['2'],TMTstop-A_1_1linestimulus21.png,TMTstop-A_1_1greenlinestimulus21.png,TMTstop-A_1_1redlinestimulus21.png,None,,,,,,,,,,0,0,0,0,0,23,23,23,,,,,,,,,,,,,1,1,24.61570359999314,None,['2'],1,[-0.01817309996113181],24.61570359999314,None,,001,2022_Feb_02_1215,TMTAstop-A,2021.2.3,149.4125100940747,
TMTstop-A_1_1.xlsx,0:26,25,['3'],TMTstop-A_1_1linestimulus22.png,TMTstop-A_1_1greenlinestimulus22.png,TMTstop-A_1_1redlinestimulus22.png,None,,,,,,,,,,0,0,0,0,0,24,24,24,,,,,,,,,,,,,1,1,24.692105500027537,None,['3'],1,[0.01660310011357069],24.692105500027537,None,,001,2022_Feb_02_1215,TMTAstop-A,2021.2.3,149.4125100940747,
TMTstop-A_1_1.xlsx,0:26,None,None,TMTstop-A_1_1linestimulus23.png,TMTstop-A_1_1greenlinestimulus23.png,TMTstop-A_1_1redlinestimulus23.png,None,,,,,,,,,,0,0,0,0,0,25,25,25,,,,,,,,,,,,,3,1,24.796227799961343,None,"['1', '2', '3']",0,"[0.06720079993829131, 0.15413030004128814, 0.23954869993031025]",24.796227799961343,None,,001,2022_Feb_02_1215,TMTAstop-A,2021.2.3,149.4125100940747,
TMTstop-A_1_2.xlsx,26:52,1,['3'],TMTstop-A_1_2.png,TMTstop-A_1_2.png,TMTstop-A_1_2.png,10,3,,,,,,,,,0,1,1,1,0,0,0,0,,,,,,,,,,,,,3,1,28.89352979999967,None,"['2', '2', '3']",1,"[0.3394615000579506, 0.7387453999835998, 0.9577675999607891]",28.89352979999967,None,,001,2022_Feb_02_1215,TMTAstop-A,2021.2.3,149.4125100940747,
TMTstop-A_1_2.xlsx,26:52,2,['2'],TMTstop-A_1_2.png,TMTstop-A_1_2firstgreen.png,TMTstop-A_1_2firstred.png,10,2,,,,,,,,,0,1,1,1,0,1,1,1,,,,,,,,,,,,,2,1,29.959218099946156,None,"['1', '2']",1,"[0.30982139986008406, 0.7839732998982072]",29.959218099946156,None,,001,2022_Feb_02_1215,TMTAstop-A,2021.2.3,149.4125100940747,
TMTstop-A_1_2.xlsx,26:52,3,['3'],TMTstop-A_1_2linestimulus0.png,TMTstop-A_1_2greenlinestimulus0.png,TMTstop-A_1_2redlinestimulus0.png,10,3,,,,,,,,,0,1,1,1,0,2,2,2,,,,,,,,,,,,,2,1,30.831977299880236,None,"['2', '3']",1,"[0.3714034000877291, 0.9462229001801461]",30.831977299880236,None,,001,2022_Feb_02_1215,TMTAstop-A,2021.2.3,149.4125100940747,
TMTstop-A_1_2.xlsx,26:52,4,['1'],TMTstop-A_1_2linestimulus1.png,TMTstop-A_1_2greenlinestimulus1.png,TMTstop-A_1_2redlinestimulus1.png,10,1,,,,,,,,,0,1,1,1,0,3,3,3,,,,,,,,,,,,,1,1,31.868855699896812,None,['1'],1,[0.14811509987339377],31.868855699896812,None,,001,2022_Feb_02_1215,TMTAstop-A,2021.2.3,149.4125100940747,
TMTstop-A_1_2.xlsx,26:52,5,['2'],TMTstop-A_1_2linestimulus2.png,TMTstop-A_1_2greenlinestimulus2.png,TMTstop-A_1_2redlinestimulus2.png,10,2,,,,,,,,,0,1,1,1,0,4,4,4,,,,,,,,,,,,,1,1,32.0877562998794,None,['2'],1,[0.13886280008591712],32.0877562998794,None,,001,2022_Feb_02_1215,TMTAstop-A,2021.2.3,149.4125100940747,
TMTstop-A_1_2.xlsx,26:52,6,['3'],TMTstop-A_1_2linestimulus3.png,TMTstop-A_1_2greenlinestimulus3.png,TMTstop-A_1_2redlinestimulus3.png,10,3,,,,,,,,,0,1,1,1,0,5,5,5,,,,,,,,,,,,,1,1,32.352556800004095,None,['3'],1,[0.03538680006749928],32.352556800004095,None,,001,2022_Feb_02_1215,TMTAstop-A,2021.2.3,149.4125100940747,
TMTstop-A_1_2.xlsx,26:52,7,['2'],TMTstop-A_1_2linestimulus4.png,TMTstop-A_1_2greenlinestimulus4.png,TMTstop-A_1_2redlinestimulus4.png,10,2,,,,,,,,,0,1,1,1,0,6,6,6,,,,,,,,,,,,,2,1,32.46986259985715,None,"['1', '2']",1,"[0.1878752000629902, 0.2604861001018435]",32.46986259985715,None,,001,2022_Feb_02_1215,TMTAstop-A,2021.2.3,149.4125100940747,
TMTstop-A_1_2.xlsx,26:52,8,['1'],TMTstop-A_1_2linestimulus5.png,TMTstop-A_1_2greenlinestimulus5.png,TMTstop-A_1_2redlinestimulus5.png,10,1,,,,,,,,,0,1,1,1,0,7,7,7,,,,,,,,,,,,,4,1,32.81786309997551,None,"['3', '2', '3', '1']",1,"[0.11010139994323254, 0.4498878000304103, 0.828518700087443, 1.3123236999381334]",32.81786309997551,None,,001,2022_Feb_02_1215,TMTAstop-A,2021.2.3,149.4125100940747,
TMTstop-A_1_2.xlsx,26:52,9,['2'],TMTstop-A_1_2linestimulus6.png,TMTstop-A_1_2greenlinestimulus6.png,TMTstop-A_1_2redlinestimulus6.png,10,2,,,,,,,,,0,1,1,1,0,8,8,8,,,,,,,,,,,,,1,1,34.24411959992722,None,['2'],1,[-0.0725082999560982],34.24411959992722,None,,001,2022_Feb_02_1215,TMTAstop-A,2021.2.3,149.4125100940747,
TMTstop-A_1_2.xlsx,26:52,10,['3'],TMTstop-A_1_2linestimulus7.png,TMTstop-A_1_2greenlinestimulus7.png,TMTstop-A_1_2redlinestimulus7.png,10,3,,,,,,,,,0,1,1,1,0,9,9,9,,,,,,,,,,,,,1,1,34.309726800071076,None,['3'],1,[0.03825940005481243],34.309726800071076,None,,001,2022_Feb_02_1215,TMTAstop-A,2021.2.3,149.4125100940747,
TMTstop-A_1_2.xlsx,26:52,11,['1'],TMTstop-A_1_2linestimulus8.png,TMTstop-A_1_2greenlinestimulus8.png,TMTstop-A_1_2redlinestimulus8.png,10,1,,,,,,,,,0,1,1,1,0,10,10,10,,,,,,,,,,,,,1,1,34.42072819988243,None,['1'],1,[0.5191327000502497],34.42072819988243,None,,001,2022_Feb_02_1215,TMTAstop-A,2021.2.3,149.4125100940747,
TMTstop-A_1_2.xlsx,26:52,12,['2'],TMTstop-A_1_2linestimulus9.png,TMTstop-A_1_2greenlinestimulus9.png,TMTstop-A_1_2redlinestimulus9.png,10,2,,,,,,,,,0,1,1,1,0,11,11,11,,,,,,,,,,,,,2,1,35.018216599943116,None,"['1', '2']",1,"[0.4564247999805957, 0.6016468000598252]",35.018216599943116,None,,001,2022_Feb_02_1215,TMTAstop-A,2021.2.3,149.4125100940747,
TMTstop-A_1_2.xlsx,26:52,13,['3'],TMTstop-A_1_2linestimulus10.png,TMTstop-A_1_2greenlinestimulus10.png,TMTstop-A_1_2redlinestimulus10.png,1,3,,,,,,,,,0,1,1,1,0,12,12,12,,,,,,,,,,,,,1,1,35.71257869992405,None,['3'],1,[0.04292749986052513],35.71257869992405,None,,001,2022_Feb_02_1215,TMTAstop-A,2021.2.3,149.4125100940747,
TMTstop-A_1_2.xlsx,26:52,14,['1'],TMTstop-A_1_2linestimulus11.png,TMTstop-A_1_2greenlinestimulus11.png,TMTstop-A_1_2redlinestimulus11.png,None,1,,,,,,,,,0,1,1,1,0,13,13,13,,,,,,,,,,,,,1,1,35.83258960000239,None,['1'],1,[0.17686200002208352],35.83258960000239,None,,001,2022_Feb_02_1215,TMTAstop-A,2021.2.3,149.4125100940747,
TMTstop-A_1_2.xlsx,26:52,15,['3'],TMTstop-A_1_2linestimulus12.png,TMTstop-A_1_2greenlinestimulus12.png,TMTstop-A_1_2redlinestimulus12.png,None,3,,,,,,,,,0,1,1,1,0,14,14,14,,,,,,,,,,,,,2,1,36.08768819994293,None,"['2', '3']",1,"[0.03595710010267794, 0.1464146999642253]",36.08768819994293,None,,001,2022_Feb_02_1215,TMTAstop-A,2021.2.3,149.4125100940747,
TMTstop-A_1_2.xlsx,26:52,16,['1'],TMTstop-A_1_2linestimulus13.png,TMTstop-A_1_2greenlinestimulus13.png,TMTstop-A_1_2redlinestimulus13.png,None,1,,,,,,,,,0,1,1,1,0,15,15,15,,,,,,,,,,,,,1,1,36.33056219993159,None,['1'],1,[0.09553800011053681],36.33056219993159,None,,001,2022_Feb_02_1215,TMTAstop-A,2021.2.3,149.4125100940747,
TMTstop-A_1_2.xlsx,26:52,17,['2'],TMTstop-A_1_2linestimulus14.png,TMTstop-A_1_2greenlinestimulus14.png,TMTstop-A_1_2redlinestimulus14.png,None,2,,,,,,,,,0,1,1,1,0,16,16,16,,,,,,,,,,,,,1,1,36.49803889985196,None,['2'],1,[-0.008256200002506375],36.49803889985196,None,,001,2022_Feb_02_1215,TMTAstop-A,2021.2.3,149.4125100940747,
TMTstop-A_1_2.xlsx,26:52,18,['1'],TMTstop-A_1_2linestimulus15.png,TMTstop-A_1_2greenlinestimulus15.png,TMTstop-A_1_2redlinestimulus15.png,None,1,,,,,,,,,0,1,1,1,0,17,17,17,,,,,,,,,,,,,2,1,36.5749494000338,None,"['3', '1']",1,"[0.028291899943724275, 0.20664130011573434]",36.5749494000338,None,,001,2022_Feb_02_1215,TMTAstop-A,2021.2.3,149.4125100940747,
TMTstop-A_1_2.xlsx,26:52,19,['3'],TMTstop-A_1_2linestimulus16.png,TMTstop-A_1_2greenlinestimulus16.png,TMTstop-A_1_2redlinestimulus16.png,None,3,,,,,,,,,0,1,1,1,0,18,18,18,,,,,,,,,,,,,2,1,36.85157449985854,None,"['2', '3']",1,"[0.022636699955910444, 0.12631900003179908]",36.85157449985854,None,,001,2022_Feb_02_1215,TMTAstop-A,2021.2.3,149.4125100940747,
TMTstop-A_1_2.xlsx,26:52,20,['1'],TMTstop-A_1_2linestimulus17.png,TMTstop-A_1_2greenlinestimulus17.png,TMTstop-A_1_2redlinestimulus17.png,None,1,,,,,,,,,0,1,1,1,0,19,19,19,,,,,,,,,,,,,1,1,37.08105659997091,None,['1'],1,[0.32873680000193417],37.08105659997091,None,,001,2022_Feb_02_1215,TMTAstop-A,2021.2.3,149.4125100940747,
TMTstop-A_1_2.xlsx,26:52,21,['2'],TMTstop-A_1_2linestimulus18.png,TMTstop-A_1_2greenlinestimulus18.png,TMTstop-A_1_2redlinestimulus18.png,None,2,,,,,,,,,0,1,1,1,0,20,20,20,,,,,,,,,,,,,1,1,37.49148239986971,None,['2'],1,[-0.012846499914303422],37.49148239986971,None,,001,2022_Feb_02_1215,TMTAstop-A,2021.2.3,149.4125100940747,
TMTstop-A_1_2.xlsx,26:52,22,['1'],TMTstop-A_1_2linestimulus19.png,TMTstop-A_1_2greenlinestimulus19.png,TMTstop-A_1_2redlinestimulus19.png,None,1,,,,,,,,,0,1,1,1,0,21,21,21,,,,,,,,,,,,,2,1,37.55970890005119,None,"['3', '1']",1,"[0.05216700001619756, 0.25270650000311434]",37.55970890005119,None,,001,2022_Feb_02_1215,TMTAstop-A,2021.2.3,149.4125100940747,
TMTstop-A_1_2.xlsx,26:52,23,['2'],TMTstop-A_1_2linestimulus20.png,TMTstop-A_1_2greenlinestimulus20.png,TMTstop-A_1_2redlinestimulus20.png,None,2,,,,,,,,,0,1,1,1,0,22,22,22,,,,,,,,,,,,,1,1,37.89334249985404,None,['2'],1,[-0.03033089987002313],37.89334249985404,None,,001,2022_Feb_02_1215,TMTAstop-A,2021.2.3,149.4125100940747,
TMTstop-A_1_2.xlsx,26:52,24,['1'],TMTstop-A_1_2linestimulus21.png,TMTstop-A_1_2greenlinestimulus21.png,TMTstop-A_1_2redlinestimulus21.png,None,1,,,,,,,,,0,1,1,1,0,23,23,23,,,,,,,,,,,,,2,1,37.962691799970344,None,"['3', '1']",1,"[0.029293200001120567, 0.18489000014960766]",37.962691799970344,None,,001,2022_Feb_02_1215,TMTAstop-A,2021.2.3,149.4125100940747,
TMTstop-A_1_2.xlsx,26:52,25,['2'],TMTstop-A_1_2linestimulus22.png,TMTstop-A_1_2greenlinestimulus22.png,TMTstop-A_1_2redlinestimulus22.png,None,2,,,,,,,,,0,1,1,1,0,24,24,24,,,,,,,,,,,,,1,1,38.23336169985123,None,['2'],1,[-0.03716569999232888],38.23336169985123,None,,001,2022_Feb_02_1215,TMTAstop-A,2021.2.3,149.4125100940747,
TMTstop-A_1_2.xlsx,26:52,None,None,TMTstop-A_1_2linestimulus23.png,TMTstop-A_1_2greenlinestimulus23.png,TMTstop-A_1_2redlinestimulus23.png,None,None,,,,,,,,,0,1,1,1,0,25,25,25,,,,,,,,,,,,,1,1,38.30963819986209,None,['3'],0,[0.043152600061148405],38.30963819986209,None,,001,2022_Feb_02_1215,TMTAstop-A,2021.2.3,149.4125100940747,
TMTstop-A_1_3.xlsx,52:78,1,['2'],TMTstop-A_1_3.png,TMTstop-A_1_3.png,TMTstop-A_1_3.png,10,2,,,,,,,,,0,2,2,2,0,0,0,0,,,,,,,,,,,,,1,1,42.39256579987705,None,['2'],1,[0.985306299990043],42.39256579987705,None,,001,2022_Feb_02_1215,TMTAstop-A,2021.2.3,149.4125100940747,
TMTstop-A_1_3.xlsx,52:78,2,['1'],TMTstop-A_1_3.png,TMTstop-A_1_3firstgreen.png,TMTstop-A_1_3firstred.png,10,1,,,,,,,,,0,2,2,2,0,1,1,1,,,,,,,,,,,,,2,1,43.449693700065836,None,"['3', '1']",1,"[0.23761640000157058, 0.5676576998084784]",43.449693700065836,None,,001,2022_Feb_02_1215,TMTAstop-A,2021.2.3,149.4125100940747,
TMTstop-A_1_3.xlsx,52:78,3,['3'],TMTstop-A_1_3linestimulus0.png,TMTstop-A_1_3greenlinestimulus0.png,TMTstop-A_1_3redlinestimulus0.png,10,3,,,,,,,,,0,2,2,2,0,2,2,2,,,,,,,,,,,,,2,1,44.087739599868655,None,"['2', '3']",1,"[0.17046900000423193, 0.3962220000103116]",44.087739599868655,None,,001,2022_Feb_02_1215,TMTAstop-A,2021.2.3,149.4125100940747,
TMTstop-A_1_3.xlsx,52:78,4,['2'],TMTstop-A_1_3linestimulus1.png,TMTstop-A_1_3greenlinestimulus1.png,TMTstop-A_1_3redlinestimulus1.png,10,2,,,,,,,,,0,2,2,2,0,3,3,3,,,,,,,,,,,,,2,1,44.581624399870634,None,"['1', '2']",1,"[0.08509059995412827, 0.2175984000787139]",44.581624399870634,None,,001,2022_Feb_02_1215,TMTAstop-A,2021.2.3,149.4125100940747,
TMTstop-A_1_3.xlsx,52:78,5,['3'],TMTstop-A_1_3linestimulus2.png,TMTstop-A_1_3greenlinestimulus2.png,TMTstop-A_1_3redlinestimulus2.png,10,3,,,,,,,,,0,2,2,2,0,4,4,4,,,,,,,,,,,,,1,1,44.8931199000217,None,['3'],1,[0.011908699991181493],44.8931199000217,None,,001,2022_Feb_02_1215,TMTAstop-A,2021.2.3,149.4125100940747,
TMTstop-A_1_3.xlsx,52:78,6,['2'],TMTstop-A_1_3linestimulus3.png,TMTstop-A_1_3greenlinestimulus3.png,TMTstop-A_1_3redlinestimulus3.png,10,2,,,,,,,,,0,2,2,2,0,5,5,5,,,,,,,,,,,,,2,1,44.976708200061694,None,"['1', '2']",1,"[0.09677709988318384, 0.14511109981685877]",44.976708200061694,None,,001,2022_Feb_02_1215,TMTAstop-A,2021.2.3,149.4125100940747,
TMTstop-A_1_3.xlsx,52:78,7,['1'],TMTstop-A_1_3linestimulus4.png,TMTstop-A_1_3greenlinestimulus4.png,TMTstop-A_1_3redlinestimulus4.png,10,1,,,,,,,,,0,2,2,2,0,6,6,6,,,,,,,,,,,,,2,1,45.22737289988436,None,"['3', '1']",1,"[-0.008434999966993928, 0.1562024001032114]",45.22737289988436,None,,001,2022_Feb_02_1215,TMTAstop-A,2021.2.3,149.4125100940747,
TMTstop-A_1_3.xlsx,52:78,8,['2'],TMTstop-A_1_3linestimulus5.png,TMTstop-A_1_3greenlinestimulus5.png,TMTstop-A_1_3redlinestimulus5.png,10,2,,,,,,,,,0,2,2,2,0,7,7,7,,,,,,,,,,,,,1,1,45.46231759991497,None,['2'],1,[-0.025864999974146485],45.46231759991497,None,,001,2022_Feb_02_1215,TMTAstop-A,2021.2.3,149.4125100940747,
TMTstop-A_1_3.xlsx,52:78,9,['3'],TMTstop-A_1_3linestimulus6.png,TMTstop-A_1_3greenlinestimulus6.png,TMTstop-A_1_3redlinestimulus6.png,10,3,,,,,,,,,0,2,2,2,0,8,8,8,,,,,,,,,,,,,1,1,45.532716299872845,None,['3'],1,[-0.004165099933743477],45.532716299872845,None,,001,2022_Feb_02_1215,TMTAstop-A,2021.2.3,149.4125100940747,
TMTstop-A_1_3.xlsx,52:78,10,['2'],TMTstop-A_1_3linestimulus7.png,TMTstop-A_1_3greenlinestimulus7.png,TMTstop-A_1_3redlinestimulus7.png,10,2,,,,,,,,,0,2,2,2,0,9,9,9,,,,,,,,,,,,,2,1,45.60129790008068,None,"['1', '2']",1,"[0.1019977000541985, 0.16964949993416667]",45.60129790008068,None,,001,2022_Feb_02_1215,TMTAstop-A,2021.2.3,149.4125100940747,
TMTstop-A_1_3.xlsx,52:78,11,['3'],TMTstop-A_1_3linestimulus8.png,TMTstop-A_1_3greenlinestimulus8.png,TMTstop-A_1_3redlinestimulus8.png,10,3,,,,,,,,,0,2,2,2,0,10,10,10,,,,,,,,,,,,,1,1,45.8531736000441,None,['3'],1,[0.02564199990592897],45.8531736000441,None,,001,2022_Feb_02_1215,TMTAstop-A,2021.2.3,149.4125100940747,
TMTstop-A_1_3.xlsx,52:78,12,['2'],TMTstop-A_1_3linestimulus9.png,TMTstop-A_1_3greenlinestimulus9.png,TMTstop-A_1_3redlinestimulus9.png,10,2,,,,,,,,,0,2,2,2,0,11,11,11,,,,,,,,,,,,,2,1,45.95553919998929,None,"['1', '2']",1,"[0.0805602001491934, 0.14225880010053515]",45.95553919998929,None,,001,2022_Feb_02_1215,TMTAstop-A,2021.2.3,149.4125100940747,
TMTstop-A_1_3.xlsx,52:78,13,['1'],TMTstop-A_1_3linestimulus10.png,TMTstop-A_1_3greenlinestimulus10.png,TMTstop-A_1_3redlinestimulus10.png,1,1,,,,,,,,,0,2,2,2,0,12,12,12,,,,,,,,,,,,,2,1,46.19163629994728,None,"['3', '1']",1,"[0.00857710000127554, 0.1774829002097249]",46.19163629994728,None,,001,2022_Feb_02_1215,TMTAstop-A,2021.2.3,149.4125100940747,
TMTstop-A_1_3.xlsx,52:78,14,['2'],TMTstop-A_1_3linestimulus11.png,TMTstop-A_1_3greenlinestimulus11.png,TMTstop-A_1_3redlinestimulus11.png,None,2,,,,,,,,,0,2,2,2,0,13,13,13,,,,,,,,,,,,,1,1,46.44831519993022,None,['2'],1,[-0.019827600102871656],46.44831519993022,None,,001,2022_Feb_02_1215,TMTAstop-A,2021.2.3,149.4125100940747,
TMTstop-A_1_3.xlsx,52:78,15,['1'],TMTstop-A_1_3linestimulus12.png,TMTstop-A_1_3greenlinestimulus12.png,TMTstop-A_1_3redlinestimulus12.png,None,1,,,,,,,,,0,2,2,2,0,14,14,14,,,,,,,,,,,,,2,1,46.51831869990565,None,"['3', '1']",1,"[0.03566669998690486, 0.19523700000718236]",46.51831869990565,None,,001,2022_Feb_02_1215,TMTAstop-A,2021.2.3,149.4125100940747,
TMTstop-A_1_3.xlsx,52:78,16,['2'],TMTstop-A_1_3linestimulus13.png,TMTstop-A_1_3greenlinestimulus13.png,TMTstop-A_1_3redlinestimulus13.png,None,2,,,,,,,,,0,2,2,2,0,15,15,15,,,,,,,,,,,,,1,1,46.78911149990745,None,['2'],1,[-0.024344900157302618],46.78911149990745,None,,001,2022_Feb_02_1215,TMTAstop-A,2021.2.3,149.4125100940747,
TMTstop-A_1_3.xlsx,52:78,17,['3'],TMTstop-A_1_3linestimulus14.png,TMTstop-A_1_3greenlinestimulus14.png,TMTstop-A_1_3redlinestimulus14.png,None,3,,,,,,,,,0,2,2,2,0,16,16,16,,,,,,,,,,,,,1,1,46.858817300060764,None,['3'],1,[0.03276890004053712],46.858817300060764,None,,001,2022_Feb_02_1215,TMTAstop-A,2021.2.3,149.4125100940747,
TMTstop-A_1_3.xlsx,52:78,18,['2'],TMTstop-A_1_3linestimulus15.png,TMTstop-A_1_3greenlinestimulus15.png,TMTstop-A_1_3redlinestimulus15.png,None,2,,,,,,,,,0,2,2,2,0,17,17,17,,,,,,,,,,,,,2,1,46.976365899899974,None,"['1', '2']",1,"[0.07137819984927773, 0.13369260006584227]",46.976365899899974,None,,001,2022_Feb_02_1215,TMTAstop-A,2021.2.3,149.4125100940747,
TMTstop-A_1_3.xlsx,52:78,19,['1'],TMTstop-A_1_3linestimulus16.png,TMTstop-A_1_3greenlinestimulus16.png,TMTstop-A_1_3redlinestimulus16.png,None,1,,,,,,,,,0,2,2,2,0,18,18,18,,,,,,,,,,,,,2,1,47.19847800000571,None,"['3', '1']",1,"[0.02838160004466772, 0.18291920004412532]",47.19847800000571,None,,001,2022_Feb_02_1215,TMTAstop-A,2021.2.3,149.4125100940747,
TMTstop-A_1_3.xlsx,52:78,20,['2'],TMTstop-A_1_3linestimulus17.png,TMTstop-A_1_3greenlinestimulus17.png,TMTstop-A_1_3redlinestimulus17.png,None,2,,,,,,,,,0,2,2,2,0,19,19,19,,,,,,,,,,,,,1,1,47.476125499932095,None,['2'],1,[-0.03619430004619062],47.476125499932095,None,,001,2022_Feb_02_1215,TMTAstop-A,2021.2.3,149.4125100940747,
TMTstop-A_1_3.xlsx,52:78,21,['3'],TMTstop-A_1_3linestimulus18.png,TMTstop-A_1_3greenlinestimulus18.png,TMTstop-A_1_3redlinestimulus18.png,None,3,,,,,,,,,0,2,2,2,0,20,20,20,,,,,,,,,,,,,1,1,47.55294750002213,None,['3'],1,[-0.01545940013602376],47.55294750002213,None,,001,2022_Feb_02_1215,TMTAstop-A,2021.2.3,149.4125100940747,
TMTstop-A_1_3.xlsx,52:78,22,['1'],TMTstop-A_1_3linestimulus19.png,TMTstop-A_1_3greenlinestimulus19.png,TMTstop-A_1_3redlinestimulus19.png,None,1,,,,,,,,,0,2,2,2,0,21,21,21,,,,,,,,,,,,,2,1,47.62226119986735,None,"['3', '1']",1,"[3.175182200036943, 3.2950883000157773]",47.62226119986735,None,,001,2022_Feb_02_1215,TMTAstop-A,2021.2.3,149.4125100940747,
TMTstop-A_1_3.xlsx,52:78,23,['3'],TMTstop-A_1_3linestimulus20.png,TMTstop-A_1_3greenlinestimulus20.png,TMTstop-A_1_3redlinestimulus20.png,None,3,,,,,,,,,0,2,2,2,0,22,22,22,,,,,,,,,,,,,2,1,50.99696210003458,None,"['2', '3']",1,"[0.027149999979883432, 0.13562539988197386]",50.99696210003458,None,,001,2022_Feb_02_1215,TMTAstop-A,2021.2.3,149.4125100940747,
TMTstop-A_1_3.xlsx,52:78,24,['1'],TMTstop-A_1_3linestimulus21.png,TMTstop-A_1_3greenlinestimulus21.png,TMTstop-A_1_3redlinestimulus21.png,None,1,,,,,,,,,0,2,2,2,0,23,23,23,,,,,,,,,,,,,2,1,51.226754500065,None,"['3', '1']",1,"[0.3450023999903351, 0.6622257998678833]",51.226754500065,None,,001,2022_Feb_02_1215,TMTAstop-A,2021.2.3,149.4125100940747,
TMTstop-A_1_3.xlsx,52:78,25,['3'],TMTstop-A_1_3linestimulus22.png,TMTstop-A_1_3greenlinestimulus22.png,TMTstop-A_1_3redlinestimulus22.png,None,3,,,,,,,,,0,2,2,2,0,24,24,24,,,,,,,,,,,,,2,1,51.989917299943045,None,"['2', '3']",1,"[0.0342863998375833, 0.5400948999449611]",51.989917299943045,None,,001,2022_Feb_02_1215,TMTAstop-A,2021.2.3,149.4125100940747,
TMTstop-A_1_3.xlsx,52:78,None,None,TMTstop-A_1_3linestimulus23.png,TMTstop-A_1_3greenlinestimulus23.png,TMTstop-A_1_3redlinestimulus23.png,None,None,,,,,,,,,0,2,2,2,0,25,25,25,,,,,,,,,,,,,0,1,52.61503669992089,None,None,1,,52.61503669992089,None,,001,2022_Feb_02_1215,TMTAstop-A,2021.2.3,149.4125100940747,
TMTstop-A_1_4.xlsx,78:104,1,['3'],TMTstop-A_1_4.png,TMTstop-A_1_4.png,TMTstop-A_1_4.png,10,,,,,,,,,,0,3,3,3,0,0,0,0,,,,,,,,,,,,,3,1,56.677305799908936,None,"['1', '2', '3']",1,"[0.5466495000291616, 0.6501537000294775, 0.7228131999727339]",56.677305799908936,None,,001,2022_Feb_02_1215,TMTAstop-A,2021.2.3,149.4125100940747,
TMTstop-A_1_4.xlsx,78:104,2,['1'],TMTstop-A_1_4.png,TMTstop-A_1_4firstgreen.png,TMTstop-A_1_4firstred.png,10,,,,,,,,,,0,3,3,3,0,1,1,1,,,,,,,,,,,,,1,1,57.48458190006204,None,['1'],1,[0.06733899982646108],57.48458190006204,None,,001,2022_Feb_02_1215,TMTAstop-A,2021.2.3,149.4125100940747,
TMTstop-A_1_4.xlsx,78:104,3,['3'],TMTstop-A_1_4linestimulus0.png,TMTstop-A_1_4greenlinestimulus0.png,TMTstop-A_1_4redlinestimulus0.png,10,,,,,,,,,,0,3,3,3,0,2,2,2,,,,,,,,,,,,,2,1,57.636338900076225,None,"['2', '3']",1,"[-0.046019400004297495, 0.05199950002133846]",57.636338900076225,None,,001,2022_Feb_02_1215,TMTAstop-A,2021.2.3,149.4125100940747,
TMTstop-A_1_4.xlsx,78:104,4,['1'],TMTstop-A_1_4linestimulus1.png,TMTstop-A_1_4greenlinestimulus1.png,TMTstop-A_1_4redlinestimulus1.png,10,,,,,,,,,,0,3,3,3,0,3,3,3,,,,,,,,,,,,,1,1,57.78932769992389,None,['1'],1,[0.04814670002087951],57.78932769992389,None,,001,2022_Feb_02_1215,TMTAstop-A,2021.2.3,149.4125100940747,
TMTstop-A_1_4.xlsx,78:104,5,['2'],TMTstop-A_1_4linestimulus2.png,TMTstop-A_1_4greenlinestimulus2.png,TMTstop-A_1_4redlinestimulus2.png,10,,,,,,,,,,0,3,3,3,0,4,4,4,,,,,,,,,,,,,1,1,57.91391899995506,None,['2'],1,[-0.009172300109639764],57.91391899995506,None,,001,2022_Feb_02_1215,TMTAstop-A,2021.2.3,149.4125100940747,
TMTstop-A_1_4.xlsx,78:104,6,['3'],TMTstop-A_1_4linestimulus3.png,TMTstop-A_1_4greenlinestimulus3.png,TMTstop-A_1_4redlinestimulus3.png,10,,,,,,,,,,0,3,3,3,0,5,5,5,,,,,,,,,,,,,1,1,57.982997899875045,None,['3'],1,[-0.010775099974125624],57.982997899875045,None,,001,2022_Feb_02_1215,TMTAstop-A,2021.2.3,149.4125100940747,
TMTstop-A_1_4.xlsx,78:104,7,['2'],TMTstop-A_1_4linestimulus4.png,TMTstop-A_1_4greenlinestimulus4.png,TMTstop-A_1_4redlinestimulus4.png,10,,,,,,,,,,0,3,3,3,0,6,6,6,,,,,,,,,,,,,2,1,58.05315469997004,None,"['1', '2']",1,"[0.06642840011045337, 0.10484120016917586]",58.05315469997004,None,,001,2022_Feb_02_1215,TMTAstop-A,2021.2.3,149.4125100940747,
TMTstop-A_1_4.xlsx,78:104,8,['3'],TMTstop-A_1_4linestimulus5.png,TMTstop-A_1_4greenlinestimulus5.png,TMTstop-A_1_4redlinestimulus5.png,10,,,,,,,,,,0,3,3,3,0,7,7,7,,,,,,,,,,,,,1,1,58.23970260005444,None,['3'],1,[0.02590900007635355],58.23970260005444,None,,001,2022_Feb_02_1215,TMTAstop-A,2021.2.3,149.4125100940747,
TMTstop-A_1_4.xlsx,78:104,9,['1'],TMTstop-A_1_4linestimulus6.png,TMTstop-A_1_4greenlinestimulus6.png,TMTstop-A_1_4redlinestimulus6.png,10,,,,,,,,,,0,3,3,3,0,8,8,8,,,,,,,,,,,,,1,1,58.345294599886984,None,['1'],1,[0.06795930000953376],58.345294599886984,None,,001,2022_Feb_02_1215,TMTAstop-A,2021.2.3,149.4125100940747,
TMTstop-A_1_4.xlsx,78:104,10,['2'],TMTstop-A_1_4linestimulus7.png,TMTstop-A_1_4greenlinestimulus7.png,TMTstop-A_1_4redlinestimulus7.png,10,,,,,,,,,,0,3,3,3,0,9,9,9,,,,,,,,,,,,,1,1,58.49009740003385,None,['2'],1,[0.018161199986934662],58.49009740003385,None,,001,2022_Feb_02_1215,TMTAstop-A,2021.2.3,149.4125100940747,
TMTstop-A_1_4.xlsx,78:104,11,['3'],TMTstop-A_1_4linestimulus8.png,TMTstop-A_1_4greenlinestimulus8.png,TMTstop-A_1_4redlinestimulus8.png,10,,,,,,,,,,0,3,3,3,0,10,10,10,,,,,,,,,,,,,1,1,58.58790010004304,None,['3'],1,[-0.034544700058177114],58.58790010004304,None,,001,2022_Feb_02_1215,TMTAstop-A,2021.2.3,149.4125100940747,
TMTstop-A_1_4.xlsx,78:104,12,['1'],TMTstop-A_1_4linestimulus9.png,TMTstop-A_1_4greenlinestimulus9.png,TMTstop-A_1_4redlinestimulus9.png,10,,,,,,,,,,0,3,3,3,0,11,11,11,,,,,,,,,,,,,1,1,58.656585399992764,None,['1'],1,[0.040303400019183755],58.656585399992764,None,,001,2022_Feb_02_1215,TMTAstop-A,2021.2.3,149.4125100940747,
TMTstop-A_1_4.xlsx,78:104,13,['2'],TMTstop-A_1_4linestimulus10.png,TMTstop-A_1_4greenlinestimulus10.png,TMTstop-A_1_4redlinestimulus10.png,1,,,,,,,,,,0,3,3,3,0,12,12,12,,,,,,,,,,,,,1,1,58.77570679993369,None,['2'],1,[-0.011318600038066506],58.77570679993369,None,,001,2022_Feb_02_1215,TMTAstop-A,2021.2.3,149.4125100940747,
TMTstop-A_1_4.xlsx,78:104,14,['1'],TMTstop-A_1_4linestimulus11.png,TMTstop-A_1_4greenlinestimulus11.png,TMTstop-A_1_4redlinestimulus11.png,None,,,,,,,,,,0,3,3,3,0,13,13,13,,,,,,,,,,,,,2,1,58.84464839985594,None,"['3', '1']",1,"[-0.0013210999313741922, 0.14135260018520057]",58.84464839985594,None,,001,2022_Feb_02_1215,TMTAstop-A,2021.2.3,149.4125100940747,
TMTstop-A_1_4.xlsx,78:104,15,['2'],TMTstop-A_1_4linestimulus12.png,TMTstop-A_1_4greenlinestimulus12.png,TMTstop-A_1_4redlinestimulus12.png,None,,,,,,,,,,0,3,3,3,0,14,14,14,,,,,,,,,,,,,1,1,59.080746199935675,None,['2'],1,[-0.015511800069361925],59.080746199935675,None,,001,2022_Feb_02_1215,TMTAstop-A,2021.2.3,149.4125100940747,
TMTstop-A_1_4.xlsx,78:104,16,['3'],TMTstop-A_1_4linestimulus13.png,TMTstop-A_1_4greenlinestimulus13.png,TMTstop-A_1_4redlinestimulus13.png,None,,,,,,,,,,0,3,3,3,0,15,15,15,,,,,,,,,,,,,1,1,59.156625600066036,None,['3'],1,[-0.03058340004645288],59.156625600066036,None,,001,2022_Feb_02_1215,TMTAstop-A,2021.2.3,149.4125100940747,
TMTstop-A_1_4.xlsx,78:104,17,['1'],TMTstop-A_1_4linestimulus14.png,TMTstop-A_1_4greenlinestimulus14.png,TMTstop-A_1_4redlinestimulus14.png,None,,,,,,,,,,0,3,3,3,0,16,16,16,,,,,,,,,,,,,1,1,59.22635199991055,None,['1'],1,[0.06294960016384721],59.22635199991055,None,,001,2022_Feb_02_1215,TMTAstop-A,2021.2.3,149.4125100940747,
TMTstop-A_1_4.xlsx,78:104,18,['2'],TMTstop-A_1_4linestimulus15.png,TMTstop-A_1_4greenlinestimulus15.png,TMTstop-A_1_4redlinestimulus15.png,None,,,,,,,,,,0,3,3,3,0,17,17,17,,,,,,,,,,,,,1,1,59.365895099937916,None,['2'],1,[-0.004892299883067608],59.365895099937916,None,,001,2022_Feb_02_1215,TMTAstop-A,2021.2.3,149.4125100940747,
TMTstop-A_1_4.xlsx,78:104,19,['1'],TMTstop-A_1_4linestimulus16.png,TMTstop-A_1_4greenlinestimulus16.png,TMTstop-A_1_4redlinestimulus16.png,None,,,,,,,,,,0,3,3,3,0,18,18,18,,,,,,,,,,,,,2,1,59.43467069999315,None,"['3', '1']",1,"[0.014801400015130639, 0.16354350000619888]",59.43467069999315,None,,001,2022_Feb_02_1215,TMTAstop-A,2021.2.3,149.4125100940747,
TMTstop-A_1_4.xlsx,78:104,20,['3'],TMTstop-A_1_4linestimulus17.png,TMTstop-A_1_4greenlinestimulus17.png,TMTstop-A_1_4redlinestimulus17.png,None,,,,,,,,,,0,3,3,3,0,19,19,19,,,,,,,,,,,,,2,1,59.6987801999785,None,"['2', '3']",1,"[-0.04663809994235635, 0.06884009996429086]",59.6987801999785,None,,001,2022_Feb_02_1215,TMTAstop-A,2021.2.3,149.4125100940747,
TMTstop-A_1_4.xlsx,78:104,21,['1'],TMTstop-A_1_4linestimulus18.png,TMTstop-A_1_4greenlinestimulus18.png,TMTstop-A_1_4redlinestimulus18.png,None,,,,,,,,,,0,3,3,3,0,20,20,20,,,,,,,,,,,,,1,1,59.85781229985878,None,['1'],1,[0.04431489994749427],59.85781229985878,None,,001,2022_Feb_02_1215,TMTAstop-A,2021.2.3,149.4125100940747,
TMTstop-A_1_4.xlsx,78:104,22,['3'],TMTstop-A_1_4linestimulus19.png,TMTstop-A_1_4greenlinestimulus19.png,TMTstop-A_1_4redlinestimulus19.png,None,,,,,,,,,,0,3,3,3,0,21,21,21,,,,,,,,,,,,,2,1,59.99489729991183,None,"['2', '3']",1,"[-0.034156000008806586, 0.08835149998776615]",59.99489729991183,None,,001,2022_Feb_02_1215,TMTAstop-A,2021.2.3,149.4125100940747,
TMTstop-A_1_4.xlsx,78:104,23,['2'],TMTstop-A_1_4linestimulus20.png,TMTstop-A_1_4greenlinestimulus20.png,TMTstop-A_1_4redlinestimulus20.png,None,,,,,,,,,,0,3,3,3,0,22,22,22,,,,,,,,,,,,,2,1,60.19798250007443,None,"['1', '2']",1,"[0.04173359996639192, 0.12410750007256866]",60.19798250007443,None,,001,2022_Feb_02_1215,TMTAstop-A,2021.2.3,149.4125100940747,
TMTstop-A_1_4.xlsx,78:104,24,['3'],TMTstop-A_1_4linestimulus21.png,TMTstop-A_1_4greenlinestimulus21.png,TMTstop-A_1_4redlinestimulus21.png,None,,,,,,,,,,0,3,3,3,0,23,23,23,,,,,,,,,,,,,1,1,60.406400999985635,None,['3'],1,[0.01948480005376041],60.406400999985635,None,,001,2022_Feb_02_1215,TMTAstop-A,2021.2.3,149.4125100940747,
TMTstop-A_1_4.xlsx,78:104,25,['2'],TMTstop-A_1_4linestimulus22.png,TMTstop-A_1_4greenlinestimulus22.png,TMTstop-A_1_4redlinestimulus22.png,None,,,,,,,,,,0,3,3,3,0,24,24,24,,,,,,,,,,,,,2,1,60.512028799857944,None,"['1', '2']",1,"[0.052811000030487776, 0.11313890013843775]",60.512028799857944,None,,001,2022_Feb_02_1215,TMTAstop-A,2021.2.3,149.4125100940747,
TMTstop-A_1_4.xlsx,78:104,None,None,TMTstop-A_1_4linestimulus23.png,TMTstop-A_1_4greenlinestimulus23.png,TMTstop-A_1_4redlinestimulus23.png,None,,,,,,,,,,0,3,3,3,0,25,25,25,,,,,,,,,,,,,1,1,60.72654389985837,None,['3'],0,[0.03367319982498884],60.72654389985837,None,,001,2022_Feb_02_1215,TMTAstop-A,2021.2.3,149.4125100940747,
TMTstop-A_1_5.xlsx,104:130,1,['2'],TMTstop-A_1_5.png,TMTstop-A_1_5.png,TMTstop-A_1_5.png,10,,,,,,,,,,0,4,4,4,0,0,0,0,,,,,,,,,,,,,2,1,64.82355289999396,None,"['1', '2']",1,"[0.28031629999168217, 0.40596799994818866]",64.82355289999396,None,,001,2022_Feb_02_1215,TMTAstop-A,2021.2.3,149.4125100940747,
TMTstop-A_1_5.xlsx,104:130,2,['1'],TMTstop-A_1_5.png,TMTstop-A_1_5firstgreen.png,TMTstop-A_1_5firstred.png,10,,,,,,,,,,0,4,4,4,0,1,1,1,,,,,,,,,,,,,2,1,65.33948450000025,None,"['3', '1']",1,"[-0.058475999860093, 0.09091829997487366]",65.33948450000025,None,,001,2022_Feb_02_1215,TMTAstop-A,2021.2.3,149.4125100940747,
TMTstop-A_1_5.xlsx,104:130,3,['3'],TMTstop-A_1_5linestimulus0.png,TMTstop-A_1_5greenlinestimulus0.png,TMTstop-A_1_5redlinestimulus0.png,10,,,,,,,,,,0,4,4,4,0,2,2,2,,,,,,,,,,,,,2,1,65.52526480006054,None,"['2', '3']",1,"[-0.052260300144553185, 0.061537700006738305]",65.52526480006054,None,,001,2022_Feb_02_1215,TMTAstop-A,2021.2.3,149.4125100940747,
TMTstop-A_1_5.xlsx,104:130,4,['2'],TMTstop-A_1_5linestimulus1.png,TMTstop-A_1_5greenlinestimulus1.png,TMTstop-A_1_5redlinestimulus1.png,10,,,,,,,,,,0,4,4,4,0,3,3,3,,,,,,,,,,,,,2,1,65.6843993999064,None,"['1', '2']",1,"[0.0457417001016438, 0.10196970007382333]",65.6843993999064,None,,001,2022_Feb_02_1215,TMTAstop-A,2021.2.3,149.4125100940747,
TMTstop-A_1_5.xlsx,104:130,5,['3'],TMTstop-A_1_5linestimulus2.png,TMTstop-A_1_5greenlinestimulus2.png,TMTstop-A_1_5redlinestimulus2.png,10,,,,,,,,,,0,4,4,4,0,4,4,4,,,,,,,,,,,,,1,1,65.90737859997898,None,['3'],1,[-0.013551000040024519],65.90737859997898,None,,001,2022_Feb_02_1215,TMTAstop-A,2021.2.3,149.4125100940747,
TMTstop-A_1_5.xlsx,104:130,6,['1'],TMTstop-A_1_5linestimulus3.png,TMTstop-A_1_5greenlinestimulus3.png,TMTstop-A_1_5redlinestimulus3.png,10,,,,,,,,,,0,4,4,4,0,5,5,5,,,,,,,,,,,,,1,1,65.98388189985417,None,['1'],1,[0.06734760012477636],65.98388189985417,None,,001,2022_Feb_02_1215,TMTAstop-A,2021.2.3,149.4125100940747,
TMTstop-A_1_5.xlsx,104:130,7,['3'],TMTstop-A_1_5linestimulus4.png,TMTstop-A_1_5greenlinestimulus4.png,TMTstop-A_1_5redlinestimulus4.png,10,,,,,,,,,,0,4,4,4,0,6,6,6,,,,,,,,,,,,,2,1,66.1289399000816,None,"['2', '3']",1,"[-0.04462280008010566, 0.09989559999667108]",66.1289399000816,None,,001,2022_Feb_02_1215,TMTAstop-A,2021.2.3,149.4125100940747,
TMTstop-A_1_5.xlsx,104:130,8,['2'],TMTstop-A_1_5linestimulus5.png,TMTstop-A_1_5greenlinestimulus5.png,TMTstop-A_1_5redlinestimulus5.png,10,,,,,,,,,,0,4,4,4,0,7,7,7,,,,,,,,,,,,,2,1,66.3337073000148,None,"['1', '2']",1,"[0.07911600009538233, 0.14756890013813972]",66.3337073000148,None,,001,2022_Feb_02_1215,TMTAstop-A,2021.2.3,149.4125100940747,
TMTstop-A_1_5.xlsx,104:130,9,['1'],TMTstop-A_1_5linestimulus6.png,TMTstop-A_1_5greenlinestimulus6.png,TMTstop-A_1_5redlinestimulus6.png,10,,,,,,,,,,0,4,4,4,0,8,8,8,,,,,,,,,,,,,2,1,66.56405010004528,None,"['3', '1']",1,"[0.030691699823364615, 0.19959909981116652]",66.56405010004528,None,,001,2022_Feb_02_1215,TMTAstop-A,2021.2.3,149.4125100940747,
TMTstop-A_1_5.xlsx,104:130,10,['3'],TMTstop-A_1_5linestimulus7.png,TMTstop-A_1_5greenlinestimulus7.png,TMTstop-A_1_5redlinestimulus7.png,10,,,,,,,,,,0,4,4,4,0,9,9,9,,,,,,,,,,,,,2,1,66.86611970001832,None,"['2', '3']",1,"[-0.05556120001710951, 0.0690629999153316]",66.86611970001832,None,,001,2022_Feb_02_1215,TMTAstop-A,2021.2.3,149.4125100940747,
TMTstop-A_1_5.xlsx,104:130,11,['2'],TMTstop-A_1_5linestimulus8.png,TMTstop-A_1_5greenlinestimulus8.png,TMTstop-A_1_5redlinestimulus8.png,10,,,,,,,,,,0,4,4,4,0,10,10,10,,,,,,,,,,,,,2,1,67.01976369996555,None,"['1', '2']",1,"[0.06749050016514957, 0.11690950021147728]",67.01976369996555,None,,001,2022_Feb_02_1215,TMTAstop-A,2021.2.3,149.4125100940747,
TMTstop-A_1_5.xlsx,104:130,12,['3'],TMTstop-A_1_5linestimulus9.png,TMTstop-A_1_5greenlinestimulus9.png,TMTstop-A_1_5redlinestimulus9.png,10,,,,,,,,,,0,4,4,4,0,11,11,11,,,,,,,,,,,,,1,1,67.2482439999003,None,['3'],1,[0.015265400055795908],67.2482439999003,None,,001,2022_Feb_02_1215,TMTAstop-A,2021.2.3,149.4125100940747,
TMTstop-A_1_5.xlsx,104:130,13,['1'],TMTstop-A_1_5linestimulus10.png,TMTstop-A_1_5greenlinestimulus10.png,TMTstop-A_1_5redlinestimulus10.png,1,,,,,,,,,,0,4,4,4,0,12,12,12,,,,,,,,,,,,,1,1,67.34373999992386,None,['1'],1,[0.10321219987235963],67.34373999992386,None,,001,2022_Feb_02_1215,TMTAstop-A,2021.2.3,149.4125100940747,
TMTstop-A_1_5.xlsx,104:130,14,['3'],TMTstop-A_1_5linestimulus11.png,TMTstop-A_1_5greenlinestimulus11.png,TMTstop-A_1_5redlinestimulus11.png,None,,,,,,,,,,0,4,4,4,0,13,13,13,,,,,,,,,,,,,2,1,67.51738679991104,None,"['2', '3']",1,"[0.02329850010573864, 0.1407260000705719]",67.51738679991104,None,,001,2022_Feb_02_1215,TMTAstop-A,2021.2.3,149.4125100940747,
TMTstop-A_1_5.xlsx,104:130,15,['1'],TMTstop-A_1_5linestimulus12.png,TMTstop-A_1_5greenlinestimulus12.png,TMTstop-A_1_5redlinestimulus12.png,None,,,,,,,,,,0,4,4,4,0,14,14,14,,,,,,,,,,,,,1,1,67.74001080007292,None,['1'],1,[0.07867840002290905],67.74001080007292,None,,001,2022_Feb_02_1215,TMTAstop-A,2021.2.3,149.4125100940747,
TMTstop-A_1_5.xlsx,104:130,16,['3'],TMTstop-A_1_5linestimulus13.png,TMTstop-A_1_5greenlinestimulus13.png,TMTstop-A_1_5redlinestimulus13.png,None,,,,,,,,,,0,4,4,4,0,15,15,15,,,,,,,,,,,,,2,1,67.90028909989633,None,"['2', '3']",1,"[-0.02514539984986186, 0.09089939994737506]",67.90028909989633,None,,001,2022_Feb_02_1215,TMTAstop-A,2021.2.3,149.4125100940747,
TMTstop-A_1_5.xlsx,104:130,17,['2'],TMTstop-A_1_5linestimulus14.png,TMTstop-A_1_5greenlinestimulus14.png,TMTstop-A_1_5redlinestimulus14.png,None,,,,,,,,,,0,4,4,4,0,16,16,16,,,,,,,,,,,,,2,1,68.09441299992613,None,"['1', '2']",1,"[0.03553460002876818, 0.08480289997532964]",68.09441299992613,None,,001,2022_Feb_02_1215,TMTAstop-A,2021.2.3,149.4125100940747,
TMTstop-A_1_5.xlsx,104:130,18,['1'],TMTstop-A_1_5linestimulus15.png,TMTstop-A_1_5greenlinestimulus15.png,TMTstop-A_1_5redlinestimulus15.png,None,,,,,,,,,,0,4,4,4,0,17,17,17,,,,,,,,,,,,,2,1,68.28221970004961,None,"['3', '1']",1,"[0.012817599810659885, 0.13995169987902045]",68.28221970004961,None,,001,2022_Feb_02_1215,TMTAstop-A,2021.2.3,149.4125100940747,
TMTstop-A_1_5.xlsx,104:130,19,['3'],TMTstop-A_1_5linestimulus16.png,TMTstop-A_1_5greenlinestimulus16.png,TMTstop-A_1_5redlinestimulus16.png,None,,,,,,,,,,0,4,4,4,0,18,18,18,,,,,,,,,,,,,2,1,68.53136210003868,None,"['2', '3']",1,"[-0.044272599974647164, 0.06534249987453222]",68.53136210003868,None,,001,2022_Feb_02_1215,TMTAstop-A,2021.2.3,149.4125100940747,
TMTstop-A_1_5.xlsx,104:130,20,['1'],TMTstop-A_1_5linestimulus17.png,TMTstop-A_1_5greenlinestimulus17.png,TMTstop-A_1_5redlinestimulus17.png,None,,,,,,,,,,0,4,4,4,0,19,19,19,,,,,,,,,,,,,3,1,68.69108959985897,None,"['2', '3', '1']",1,"[0.11246710014529526, 0.2210639000404626, 0.3516883000265807]",68.69108959985897,None,,001,2022_Feb_02_1215,TMTAstop-A,2021.2.3,149.4125100940747,
TMTstop-A_1_5.xlsx,104:130,21,['2'],TMTstop-A_1_5linestimulus18.png,TMTstop-A_1_5greenlinestimulus18.png,TMTstop-A_1_5redlinestimulus18.png,None,,,,,,,,,,0,4,4,4,0,20,20,20,,,,,,,,,,,,,1,1,69.1356069999747,None,['2'],1,[-0.033910199999809265],69.1356069999747,None,,001,2022_Feb_02_1215,TMTAstop-A,2021.2.3,149.4125100940747,
TMTstop-A_1_5.xlsx,104:130,22,['3'],TMTstop-A_1_5linestimulus19.png,TMTstop-A_1_5greenlinestimulus19.png,TMTstop-A_1_5redlinestimulus19.png,None,,,,,,,,,,0,4,4,4,0,21,21,21,,,,,,,,,,,,,1,1,69.21169919986278,None,['3'],1,[0.012300600064918399],69.21169919986278,None,,001,2022_Feb_02_1215,TMTAstop-A,2021.2.3,149.4125100940747,
TMTstop-A_1_5.xlsx,104:130,23,['2'],TMTstop-A_1_5linestimulus20.png,TMTstop-A_1_5greenlinestimulus20.png,TMTstop-A_1_5redlinestimulus20.png,None,,,,,,,,,,0,4,4,4,0,22,22,22,,,,,,,,,,,,,2,1,69.29674919997342,None,"['1', '2']",1,"[0.057543900096789, 0.10697210021317005]",69.29674919997342,None,,001,2022_Feb_02_1215,TMTAstop-A,2021.2.3,149.4125100940747,
TMTstop-A_1_5.xlsx,104:130,24,['3'],TMTstop-A_1_5linestimulus21.png,TMTstop-A_1_5greenlinestimulus21.png,TMTstop-A_1_5redlinestimulus21.png,None,,,,,,,,,,0,4,4,4,0,23,23,23,,,,,,,,,,,,,1,1,69.51102650002576,None,['3'],1,[0.015040399972349405],69.51102650002576,None,,001,2022_Feb_02_1215,TMTAstop-A,2021.2.3,149.4125100940747,
TMTstop-A_1_5.xlsx,104:130,25,['2'],TMTstop-A_1_5linestimulus22.png,TMTstop-A_1_5greenlinestimulus22.png,TMTstop-A_1_5redlinestimulus22.png,None,,,,,,,,,,0,4,4,4,0,24,24,24,,,,,,,,,,,,,2,1,69.60760160000063,None,"['1', '2']",1,"[0.0474864998832345, 0.11231220001354814]",69.60760160000063,None,,001,2022_Feb_02_1215,TMTAstop-A,2021.2.3,149.4125100940747,
TMTstop-A_1_5.xlsx,104:130,None,None,TMTstop-A_1_5linestimulus23.png,TMTstop-A_1_5greenlinestimulus23.png,TMTstop-A_1_5redlinestimulus23.png,None,,,,,,,,,,0,4,4,4,0,25,25,25,,,,,,,,,,,,,1,1,69.8089860000182,None,['3'],0,[0.04891970008611679],69.8089860000182,None,,001,2022_Feb_02_1215,TMTAstop-A,2021.2.3,149.4125100940747,
TMTstop-A_1_6.xlsx,130:156,1,['1'],TMTstop-A_1_6.png,TMTstop-A_1_6.png,TMTstop-A_1_6.png,10,1,,,,,,,,,0,5,5,5,0,0,0,0,,,,,,,,,,,,,1,1,73.90658039995469,None,['1'],1,[0.6635653998237103],73.90658039995469,None,,001,2022_Feb_02_1215,TMTAstop-A,2021.2.3,149.4125100940747,
TMTstop-A_1_6.xlsx,130:156,2,['2'],TMTstop-A_1_6.png,TMTstop-A_1_6firstgreen.png,TMTstop-A_1_6firstred.png,10,2,,,,,,,,,0,5,5,5,0,1,1,1,,,,,,,,,,,,,1,1,74.64946829993278,None,['2'],1,[-0.003480300074443221],74.64946829993278,None,,001,2022_Feb_02_1215,TMTAstop-A,2021.2.3,149.4125100940747,
TMTstop-A_1_6.xlsx,130:156,3,['3'],TMTstop-A_1_6linestimulus0.png,TMTstop-A_1_6greenlinestimulus0.png,TMTstop-A_1_6redlinestimulus0.png,10,3,,,,,,,,,0,5,5,5,0,2,2,2,,,,,,,,,,,,,1,1,74.71856369986199,None,['3'],1,[0.022113499930128455],74.71856369986199,None,,001,2022_Feb_02_1215,TMTAstop-A,2021.2.3,149.4125100940747,
TMTstop-A_1_6.xlsx,130:156,4,['1'],TMTstop-A_1_6linestimulus1.png,TMTstop-A_1_6greenlinestimulus1.png,TMTstop-A_1_6redlinestimulus1.png,10,1,,,,,,,,,0,5,5,5,0,3,3,3,,,,,,,,,,,,,1,1,74.81711780000478,None,['1'],1,[0.10256249993108213],74.81711780000478,None,,001,2022_Feb_02_1215,TMTAstop-A,2021.2.3,149.4125100940747,
TMTstop-A_1_6.xlsx,130:156,5,['3'],TMTstop-A_1_6linestimulus2.png,TMTstop-A_1_6greenlinestimulus2.png,TMTstop-A_1_6redlinestimulus2.png,10,3,,,,,,,,,0,5,5,5,0,4,4,4,,,,,,,,,,,,,2,1,75.00439949985594,None,"['2', '3']",1,"[-0.02872840012423694, 0.09008860005997121]",75.00439949985594,None,,001,2022_Feb_02_1215,TMTAstop-A,2021.2.3,149.4125100940747,
TMTstop-A_1_6.xlsx,130:156,6,['1'],TMTstop-A_1_6linestimulus3.png,TMTstop-A_1_6greenlinestimulus3.png,TMTstop-A_1_6redlinestimulus3.png,10,1,,,,,,,,,0,5,5,5,0,5,5,5,,,,,,,,,,,,,1,1,75.22047629998997,None,['1'],1,[0.033759000012651086],75.22047629998997,None,,001,2022_Feb_02_1215,TMTAstop-A,2021.2.3,149.4125100940747,
TMTstop-A_1_6.xlsx,130:156,7,['3'],TMTstop-A_1_6linestimulus4.png,TMTstop-A_1_6greenlinestimulus4.png,TMTstop-A_1_6redlinestimulus4.png,10,3,,,,,,,,,0,5,5,5,0,6,6,6,,,,,,,,,,,,,2,1,75.34680150006898,None,"['2', '3']",1,"[0.0004488001577556133, 0.11862510000355542]",75.34680150006898,None,,001,2022_Feb_02_1215,TMTAstop-A,2021.2.3,149.4125100940747,
TMTstop-A_1_6.xlsx,130:156,8,['1'],TMTstop-A_1_6linestimulus5.png,TMTstop-A_1_6greenlinestimulus5.png,TMTstop-A_1_6redlinestimulus5.png,10,1,,,,,,,,,0,5,5,5,0,7,7,7,,,,,,,,,,,,,1,1,75.56781310006045,None,['1'],1,[0.10942059988155961],75.56781310006045,None,,001,2022_Feb_02_1215,TMTAstop-A,2021.2.3,149.4125100940747,
TMTstop-A_1_6.xlsx,130:156,9,['2'],TMTstop-A_1_6linestimulus6.png,TMTstop-A_1_6greenlinestimulus6.png,TMTstop-A_1_6redlinestimulus6.png,10,2,,,,,,,,,0,5,5,5,0,8,8,8,,,,,,,,,,,,,1,1,75.74631299986504,None,['2'],1,[0.04686500015668571],75.74631299986504,None,,001,2022_Feb_02_1215,TMTAstop-A,2021.2.3,149.4125100940747,
TMTstop-A_1_6.xlsx,130:156,10,['3'],TMTstop-A_1_6linestimulus7.png,TMTstop-A_1_6greenlinestimulus7.png,TMTstop-A_1_6redlinestimulus7.png,10,3,,,,,,,,,0,5,5,5,0,9,9,9,,,,,,,,,,,,,1,1,75.86521949991584,None,['3'],1,[-0.013880500104278326],75.86521949991584,None,,001,2022_Feb_02_1215,TMTAstop-A,2021.2.3,149.4125100940747,
TMTstop-A_1_6.xlsx,130:156,11,['1'],TMTstop-A_1_6linestimulus8.png,TMTstop-A_1_6greenlinestimulus8.png,TMTstop-A_1_6redlinestimulus8.png,10,1,,,,,,,,,0,5,5,5,0,10,10,10,,,,,,,,,,,,,1,1,75.933898499934,None,['1'],1,[0.10791380004957318],75.933898499934,None,,001,2022_Feb_02_1215,TMTAstop-A,2021.2.3,149.4125100940747,
TMTstop-A_1_6.xlsx,130:156,12,['3'],TMTstop-A_1_6linestimulus9.png,TMTstop-A_1_6greenlinestimulus9.png,TMTstop-A_1_6redlinestimulus9.png,10,3,,,,,,,,,0,5,5,5,0,11,11,11,,,,,,,,,,,,,2,1,76.11686729989015,None,"['2', '3']",1,"[0.016699600033462048, 0.1381084001623094]",76.11686729989015,None,,001,2022_Feb_02_1215,TMTAstop-A,2021.2.3,149.4125100940747,
TMTstop-A_1_6.xlsx,130:156,13,['2'],TMTstop-A_1_6linestimulus10.png,TMTstop-A_1_6greenlinestimulus10.png,TMTstop-A_1_6redlinestimulus10.png,1,2,,,,,,,,,0,5,5,5,0,12,12,12,,,,,,,,,,,,,2,1,76.34685419988818,None,"['1', '2']",1,"[0.08167329989373684, 0.18919009994715452]",76.34685419988818,None,,001,2022_Feb_02_1215,TMTAstop-A,2021.2.3,149.4125100940747,
TMTstop-A_1_6.xlsx,130:156,14,['3'],TMTstop-A_1_6linestimulus11.png,TMTstop-A_1_6greenlinestimulus11.png,TMTstop-A_1_6redlinestimulus11.png,None,3,,,,,,,,,0,5,5,5,0,13,13,13,,,,,,,,,,,,,1,1,76.62140469998121,None,['3'],1,[0.004779200069606304],76.62140469998121,None,,001,2022_Feb_02_1215,TMTAstop-A,2021.2.3,149.4125100940747,
TMTstop-A_1_6.xlsx,130:156,15,['2'],TMTstop-A_1_6linestimulus12.png,TMTstop-A_1_6greenlinestimulus12.png,TMTstop-A_1_6redlinestimulus12.png,None,2,,,,,,,,,0,5,5,5,0,14,14,14,,,,,,,,,,,,,2,1,76.70496549992822,None,"['1', '2']",1,"[0.06424139998853207, 0.09858809993602335]",76.70496549992822,None,,001,2022_Feb_02_1215,TMTAstop-A,2021.2.3,149.4125100940747,
TMTstop-A_1_6.xlsx,130:156,16,['1'],TMTstop-A_1_6linestimulus13.png,TMTstop-A_1_6greenlinestimulus13.png,TMTstop-A_1_6redlinestimulus13.png,None,1,,,,,,,,,0,5,5,5,0,15,15,15,,,,,,,,,,,,,2,1,76.89291980001144,None,"['3', '1']",1,"[0.0319193999748677, 0.16397359990514815]",76.89291980001144,None,,001,2022_Feb_02_1215,TMTAstop-A,2021.2.3,149.4125100940747,
TMTstop-A_1_6.xlsx,130:156,17,['3'],TMTstop-A_1_6linestimulus14.png,TMTstop-A_1_6greenlinestimulus14.png,TMTstop-A_1_6redlinestimulus14.png,None,3,,,,,,,,,0,5,5,5,0,16,16,16,,,,,,,,,,,,,2,1,77.12832250003703,None,"['2', '3']",1,"[-0.0027317998465150595, 0.09837720007635653]",77.12832250003703,None,,001,2022_Feb_02_1215,TMTAstop-A,2021.2.3,149.4125100940747,
TMTstop-A_1_6.xlsx,130:156,18,['1'],TMTstop-A_1_6linestimulus15.png,TMTstop-A_1_6greenlinestimulus15.png,TMTstop-A_1_6redlinestimulus15.png,None,1,,,,,,,,,0,5,5,5,0,17,17,17,,,,,,,,,,,,,1,1,77.31589109986089,None,['1'],1,[0.03965949988923967],77.31589109986089,None,,001,2022_Feb_02_1215,TMTAstop-A,2021.2.3,149.4125100940747,
TMTstop-A_1_6.xlsx,130:156,19,['2'],TMTstop-A_1_6linestimulus16.png,TMTstop-A_1_6greenlinestimulus16.png,TMTstop-A_1_6redlinestimulus16.png,None,2,,,,,,,,,0,5,5,5,0,18,18,18,,,,,,,,,,,,,1,1,77.44084280007519,None,['2'],1,[-0.01781779993325472],77.44084280007519,None,,001,2022_Feb_02_1215,TMTAstop-A,2021.2.3,149.4125100940747,
TMTstop-A_1_6.xlsx,130:156,20,['3'],TMTstop-A_1_6linestimulus17.png,TMTstop-A_1_6greenlinestimulus17.png,TMTstop-A_1_6redlinestimulus17.png,None,3,,,,,,,,,0,5,5,5,0,19,19,19,,,,,,,,,,,,,1,1,77.51709980005398,None,['3'],1,[-0.02203890006057918],77.51709980005398,None,,001,2022_Feb_02_1215,TMTAstop-A,2021.2.3,149.4125100940747,
TMTstop-A_1_6.xlsx,130:156,21,['2'],TMTstop-A_1_6linestimulus18.png,TMTstop-A_1_6greenlinestimulus18.png,TMTstop-A_1_6redlinestimulus18.png,None,2,,,,,,,,,0,5,5,5,0,20,20,20,,,,,,,,,,,,,2,1,77.58685289998539,None,"['1', '2']",1,"[0.1367826999630779, 0.21364660002291203]",77.58685289998539,None,,001,2022_Feb_02_1215,TMTAstop-A,2021.2.3,149.4125100940747,
TMTstop-A_1_6.xlsx,130:156,22,['3'],TMTstop-A_1_6linestimulus19.png,TMTstop-A_1_6greenlinestimulus19.png,TMTstop-A_1_6redlinestimulus19.png,None,3,,,,,,,,,0,5,5,5,0,21,21,21,,,,,,,,,,,,,1,1,77.87836189987138,None,['3'],1,[0.022321300115436316],77.87836189987138,None,,001,2022_Feb_02_1215,TMTAstop-A,2021.2.3,149.4125100940747,
TMTstop-A_1_6.xlsx,130:156,23,['1'],TMTstop-A_1_6linestimulus20.png,TMTstop-A_1_6greenlinestimulus20.png,TMTstop-A_1_6redlinestimulus20.png,None,1,,,,,,,,,0,5,5,5,0,22,22,22,,,,,,,,,,,,,1,1,77.97557020001113,None,['1'],1,[0.104586600093171],77.97557020001113,None,,001,2022_Feb_02_1215,TMTAstop-A,2021.2.3,149.4125100940747,
TMTstop-A_1_6.xlsx,130:156,24,['2'],TMTstop-A_1_6linestimulus21.png,TMTstop-A_1_6greenlinestimulus21.png,TMTstop-A_1_6redlinestimulus21.png,None,2,,,,,,,,,0,5,5,5,0,23,23,23,,,,,,,,,,,,,1,1,78.16306359996088,None,['2'],1,[-0.018031700048595667],78.16306359996088,None,,001,2022_Feb_02_1215,TMTAstop-A,2021.2.3,149.4125100940747,
TMTstop-A_1_6.xlsx,130:156,25,['3'],TMTstop-A_1_6linestimulus22.png,TMTstop-A_1_6greenlinestimulus22.png,TMTstop-A_1_6redlinestimulus22.png,None,3,,,,,,,,,0,5,5,5,0,24,24,24,,,,,,,,,,,,,1,1,78.23235469986685,None,['3'],1,[0.021921300096437335],78.23235469986685,None,,001,2022_Feb_02_1215,TMTAstop-A,2021.2.3,149.4125100940747,
TMTstop-A_1_6.xlsx,130:156,None,None,TMTstop-A_1_6linestimulus23.png,TMTstop-A_1_6greenlinestimulus23.png,TMTstop-A_1_6redlinestimulus23.png,None,None,,,,,,,,,0,5,5,5,0,25,25,25,,,,,,,,,,,,,4,1,78.33275060006417,None,"['1', '2', '3', '1']",0,"[0.06192509992979467, 0.1368887999560684, 0.2588605999480933, 0.38787380000576377]",78.33275060006417,None,,001,2022_Feb_02_1215,TMTAstop-A,2021.2.3,149.4125100940747,
