NumberLetter,corrAns,Correct,StimFile,Correct_StimFile,False_StimFile,DurationTrial,trials_TMTControl.thisRepN,trials_TMTControl.thisTrialN,trials_TMTControl.thisN,trials_TMTControl.thisIndex,trials_TMTA.thisRepN,trials_TMTA.thisTrialN,trials_TMTA.thisN,trials_TMTA.thisIndex,trials_TMTB.thisRepN,trials_TMTB.thisTrialN,trials_TMTB.thisN,trials_TMTB.thisIndex,Attempts,First_attempt,Stim.started,Stim.stopped,key_resp_2.keys,key_resp_2.corr,key_resp_2.rt,key_resp_2.started,key_resp_2.stopped,participant,session,date,expName,psychopyVersion,frameRate,
1,['2'],2,TMTstop-control_1_p.png,TMTstop-control_1_p.png,TMTstop-control_1_p.png,10,0,0,0,0,,,,,,,,,1,1,15.287466899986612,None,['2'],1,[1.712948200001847],15.287466899986612,None,,001,2022_Apr_29_1020,TMT_practice,2021.2.3,146.86703245037344,
2,['1'],1,TMTstop-control_1_p.png,TMTstop-control_1_pfirstgreen.png,TMTstop-control_1_pfirstred.png,10,0,1,1,1,,,,,,,,,4,0,17.093215900007635,None,"['3', '2', '3', '1']",1,"[0.15752310000243597, 0.4318073999893386, 0.6432375000149477, 0.7431333000131417]",17.093215900007635,None,,001,2022_Apr_29_1020,TMT_practice,2021.2.3,146.86703245037344,
3,['3'],3,TMTstop-control_1_plinestimulus0.png,TMTstop-control_1_pgreenlinestimulus0.png,TMTstop-control_1_predlinestimulus0.png,10,0,2,2,2,,,,,,,,,2,0,17.976139599981252,None,"['1', '3']",1,"[0.16454050000174902, 0.34082369998213835]",17.976139599981252,None,,001,2022_Apr_29_1020,TMT_practice,2021.2.3,146.86703245037344,
4,['1'],1,TMTstop-control_1_plinestimulus1.png,TMTstop-control_1_pgreenlinestimulus1.png,TMTstop-control_1_predlinestimulus1.png,10,0,3,3,3,,,,,,,,,2,0,18.51667529999395,None,"['2', '1']",1,"[-0.03373500000452623, 0.07551269998657517]",18.51667529999395,None,,001,2022_Apr_29_1020,TMT_practice,2021.2.3,146.86703245037344,
5,['3'],3,TMTstop-control_1_plinestimulus2.png,TMTstop-control_1_pgreenlinestimulus2.png,TMTstop-control_1_predlinestimulus2.png,10,0,4,4,4,,,,,,,,,1,1,18.725445999996737,None,['3'],1,[0.03212150000035763],18.725445999996737,None,,001,2022_Apr_29_1020,TMT_practice,2021.2.3,146.86703245037344,
6,['1'],1,TMTstop-control_1_plinestimulus3.png,TMTstop-control_1_pgreenlinestimulus3.png,TMTstop-control_1_predlinestimulus3.png,10,0,5,5,5,,,,,,,,,2,0,18.892607399990084,None,"['2', '1']",1,"[-0.10423179998178966, 0.05593689999659546]",18.892607399990084,None,,001,2022_Apr_29_1020,TMT_practice,2021.2.3,146.86703245037344,
7,['3'],3,TMTstop-control_1_plinestimulus4.png,TMTstop-control_1_pgreenlinestimulus4.png,TMTstop-control_1_predlinestimulus4.png,10,0,6,6,6,,,,,,,,,1,1,19.06717209998169,None,['3'],1,[0.0335493000166025],19.06717209998169,None,,001,2022_Apr_29_1020,TMT_practice,2021.2.3,146.86703245037344,
8,['1'],1,TMTstop-control_1_plinestimulus4.png,TMTstop-control_1_pgreenlinestimulus5.png,TMTstop-control_1_predlinestimulus5.png,10,0,7,7,7,,,,,,,,,2,0,19.190415699995356,None,"['2', '1']",1,"[-0.06607170001370832, 0.09298560000024736]",19.190415699995356,None,,001,2022_Apr_29_1020,TMT_practice,2021.2.3,146.86703245037344,
9,['2'],2,TMTstop-control_1_plinestimulus6.png,TMTstop-control_1_pgreenlinestimulus6.png,TMTstop-control_1_predlinestimulus6.png,10,0,8,8,8,,,,,,,,,2,0,19.39173760000267,None,"['3', '2']",1,"[0.04881099998601712, 0.06415769999148324]",19.39173760000267,None,,001,2022_Apr_29_1020,TMT_practice,2021.2.3,146.86703245037344,
10,['3'],3,TMTstop-control_1_plinestimulus7.png,TMTstop-control_1_pgreenlinestimulus7.png,TMTstop-control_1_predlinestimulus7.png,10,0,9,9,9,,,,,,,,,5,0,19.586022599978605,None,"['1', '3', '2', '1', '3']",1,"[0.027490800013765693, 0.17221479999716394, 0.18327159999171272, 0.3726228000014089, 0.5020364999945741]",19.586022599978605,None,,001,2022_Apr_29_1020,TMT_practice,2021.2.3,146.86703245037344,
11,['2'],2,TMTstop-control_1_plinestimulus8.png,TMTstop-control_1_pgreenlinestimulus8.png,TMTstop-control_1_predlinestimulus8.png,10,0,10,10,10,,,,,,,,,1,1,20.17065059999004,None,['2'],1,[-0.06169380000210367],20.17065059999004,None,,001,2022_Apr_29_1020,TMT_practice,2021.2.3,146.86703245037344,
12,['3'],3,TMTstop-control_1_plinestimulus9.png,TMTstop-control_1_pgreenlinestimulus9.png,TMTstop-control_1_predlinestimulus9.png,10,0,11,11,11,,,,,,,,,10,0,20.2533029000042,None,"['1', '2', '3', '1', '3', '2', '1', '2', '1', '3']",1,"[0.01871410000603646, 0.17482080002082512, 0.3284540000022389, 0.3906120000174269, 0.5217311000160407, 0.5350816000136547, 0.7182643999985885, 0.8879791000217665, 1.0853761000034865, 1.281969300005585]",20.2533029000042,None,,001,2022_Apr_29_1020,TMT_practice,2021.2.3,146.86703245037344,
13,['1'],1,TMTstop-control_1_plinestimulus10.png,TMTstop-control_1_pgreenlinestimulus10.png,TMTstop-control_1_predlinestimulus10.png,1,0,12,12,12,,,,,,,,,2,0,21.64183999999659,None,"['2', '1']",1,"[-0.06143190001603216, 0.15583539998624474]",21.64183999999659,None,,001,2022_Apr_29_1020,TMT_practice,2021.2.3,146.86703245037344,
14,['2'],2,TMTstop-control_1_plinestimulus11.png,TMTstop-control_1_pgreenlinestimulus11.png,TMTstop-control_1_predlinestimulus11.png,None,0,13,13,13,,,,,,,,,2,0,21.926760700007435,None,"['3', '2']",1,"[0.08632740000030026, 0.09959960001287982]",21.926760700007435,None,,001,2022_Apr_29_1020,TMT_practice,2021.2.3,146.86703245037344,
15,['3'],3,TMTstop-control_1_plinestimulus12.png,TMTstop-control_1_pgreenlinestimulus12.png,TMTstop-control_1_predlinestimulus12.png,None,0,14,14,14,,,,,,,,,11,0,22.155544799985364,None,"['1', '3', '2', '1', '3', '2', '2', '1', '2', '2', '3']",1,"[-0.006267599994316697, 0.16075999999884516, 0.1758327000134159, 0.3622744000167586, 0.5405382000026293, 0.5680225999967661, 1.0351707999943756, 1.494834900018759, 2.0413761000090744, 2.2685392000130378, 2.515075600007549]",22.155544799985364,None,,001,2022_Apr_29_1020,TMT_practice,2021.2.3,146.86703245037344,
16,['1'],1,TMTstop-control_1_plinestimulus13.png,TMTstop-control_1_pgreenlinestimulus13.png,TMTstop-control_1_predlinestimulus13.png,None,0,15,15,15,,,,,,,,,2,0,24.801053799979854,None,"['2', '1']",1,"[0.18051049998030066, 0.42239759999210946]",24.801053799979854,None,,001,2022_Apr_29_1020,TMT_practice,2021.2.3,146.86703245037344,
17,['3'],3,TMTstop-control_1_plinestimulus14.png,TMTstop-control_1_pgreenlinestimulus14.png,TMTstop-control_1_predlinestimulus14.png,None,0,16,16,16,,,,,,,,,1,1,25.315344799979357,None,['3'],1,[0.15424780000466853],25.315344799979357,None,,001,2022_Apr_29_1020,TMT_practice,2021.2.3,146.86703245037344,
18,['1'],1,TMTstop-control_1_plinestimulus15.png,TMTstop-control_1_pgreenlinestimulus15.png,TMTstop-control_1_predlinestimulus15.png,None,0,17,17,17,,,,,,,,,2,0,25.5649534999975,None,"['2', '1']",1,"[0.10288440002477728, 0.15654530000756495]",25.5649534999975,None,,001,2022_Apr_29_1020,TMT_practice,2021.2.3,146.86703245037344,
19,['3'],3,TMTstop-control_1_plinestimulus16.png,TMTstop-control_1_pgreenlinestimulus16.png,TMTstop-control_1_predlinestimulus16.png,None,0,18,18,18,,,,,,,,,1,1,25.81558429999859,None,['3'],1,[0.08023600000888109],25.81558429999859,None,,001,2022_Apr_29_1020,TMT_practice,2021.2.3,146.86703245037344,
20,['2'],2,TMTstop-control_1_plinestimulus17.png,TMTstop-control_1_pgreenlinestimulus17.png,TMTstop-control_1_predlinestimulus17.png,None,0,19,19,19,,,,,,,,,1,1,25.982321999996202,None,['2'],1,[-0.07385159999830648],25.982321999996202,None,,001,2022_Apr_29_1020,TMT_practice,2021.2.3,146.86703245037344,
21,['1'],1,TMTstop-control_1_plinestimulus18.png,TMTstop-control_1_pgreenlinestimulus18.png,TMTstop-control_1_predlinestimulus18.png,None,0,20,20,20,,,,,,,,,1,1,26.065825400000904,None,['1'],1,[0.012782200006768107],26.065825400000904,None,,001,2022_Apr_29_1020,TMT_practice,2021.2.3,146.86703245037344,
22,['3'],3,TMTstop-control_1_plinestimulus19.png,TMTstop-control_1_pgreenlinestimulus19.png,TMTstop-control_1_predlinestimulus19.png,None,0,21,21,21,,,,,,,,,1,1,26.170146399992518,None,['3'],1,[0.04586630000267178],26.170146399992518,None,,001,2022_Apr_29_1020,TMT_practice,2021.2.3,146.86703245037344,
23,['2'],2,TMTstop-control_1_plinestimulus20.png,TMTstop-control_1_pgreenlinestimulus20.png,TMTstop-control_1_predlinestimulus20.png,None,0,22,22,22,,,,,,,,,1,1,26.30143059999682,None,['2'],1,[-0.06843000001390465],26.30143059999682,None,,001,2022_Apr_29_1020,TMT_practice,2021.2.3,146.86703245037344,
24,['1'],1,TMTstop-control_1_plinestimulus21.png,TMTstop-control_1_pgreenlinestimulus21.png,TMTstop-control_1_predlinestimulus21.png,None,0,23,23,23,,,,,,,,,1,1,26.377791799983243,None,['1'],1,[0.015864399989368394],26.377791799983243,None,,001,2022_Apr_29_1020,TMT_practice,2021.2.3,146.86703245037344,
25,['3'],3,TMTstop-control_1_plinestimulus22.png,TMTstop-control_1_pgreenlinestimulus22.png,TMTstop-control_1_predlinestimulus22.png,None,0,24,24,24,,,,,,,,,1,1,26.488997599983122,None,['3'],1,[0.048506799997994676],26.488997599983122,None,,001,2022_Apr_29_1020,TMT_practice,2021.2.3,146.86703245037344,
None,None,None,TMTstop-control_1_plinestimulus23.png,TMTstop-control_1_pgreenlinestimulus23.png,TMTstop-control_1_predlinestimulus23.png,None,0,25,25,25,,,,,,,,,3,0,26.627967799984617,None,"['2', '1', '3']",0,"[-0.07296089999726973, 0.10388390001025982, 0.2603378999920096]",26.627967799984617,None,,001,2022_Apr_29_1020,TMT_practice,2021.2.3,146.86703245037344,
1,['3'],3,TMTstop-A_1_p.png,TMTstop-A_1_p.png,TMTstop-A_1_p.png,10,,,,,0,0,0,0,,,,,3,0,34.91828769998392,None,"['1', '2', '3']",1,"[0.8423329999786802, 0.9881073999858927, 1.1126498999947216]",34.91828769998392,None,,001,2022_Apr_29_1020,TMT_practice,2021.2.3,146.86703245037344,
2,['1'],1,TMTstop-A_1_p.png,TMTstop-A_1_pfirstgreen.png,TMTstop-A_1_pfirstred.png,10,,,,,0,1,1,1,,,,,1,1,36.141268199979095,None,['1'],1,[0.04286720001255162],36.141268199979095,None,,001,2022_Apr_29_1020,TMT_practice,2021.2.3,146.86703245037344,
3,['2'],2,TMTstop-A_1_plinestimulus0.png,TMTstop-A_1_pgreenlinestimulus0.png,TMTstop-A_1_predlinestimulus0.png,10,,,,,0,2,2,2,,,,,1,1,36.280680299998494,None,['2'],1,[-0.005625900026643649],36.280680299998494,None,,001,2022_Apr_29_1020,TMT_practice,2021.2.3,146.86703245037344,
4,['1'],1,TMTstop-A_1_plinestimulus1.png,TMTstop-A_1_pgreenlinestimulus1.png,TMTstop-A_1_predlinestimulus1.png,10,,,,,0,3,3,3,,,,,2,0,36.363947499979986,None,"['3', '1']",1,"[0.044992499984800816, 0.24359239998739213]",36.363947499979986,None,,001,2022_Apr_29_1020,TMT_practice,2021.2.3,146.86703245037344,
5,['2'],2,TMTstop-A_1_plinestimulus2.png,TMTstop-A_1_pgreenlinestimulus2.png,TMTstop-A_1_predlinestimulus2.png,10,,,,,0,4,4,4,,,,,1,1,36.717895199981285,None,['2'],1,[-0.07685270000365563],36.717895199981285,None,,001,2022_Apr_29_1020,TMT_practice,2021.2.3,146.86703245037344,
6,['1'],1,TMTstop-A_1_plinestimulus3.png,TMTstop-A_1_pgreenlinestimulus3.png,TMTstop-A_1_predlinestimulus3.png,10,,,,,0,5,5,5,,,,,2,0,36.80785789998481,None,"['3', '1']",1,"[-0.01253279999946244, 0.12042280001332983]",36.80785789998481,None,,001,2022_Apr_29_1020,TMT_practice,2021.2.3,146.86703245037344,
7,['2'],2,TMTstop-A_1_plinestimulus4.png,TMTstop-A_1_pgreenlinestimulus4.png,TMTstop-A_1_predlinestimulus4.png,10,,,,,0,6,6,6,,,,,1,1,37.03763390000677,None,['2'],1,[-0.05487459999858402],37.03763390000677,None,,001,2022_Apr_29_1020,TMT_practice,2021.2.3,146.86703245037344,
8,['1'],1,TMTstop-A_1_plinestimulus5.png,TMTstop-A_1_pgreenlinestimulus5.png,TMTstop-A_1_predlinestimulus5.png,10,,,,,0,7,7,7,,,,,3,0,37.12722460000077,None,"['3', '2', '1']",1,"[-0.01952470000833273, 0.5054933999781497, 0.5772558999888133]",37.12722460000077,None,,001,2022_Apr_29_1020,TMT_practice,2021.2.3,146.86703245037344,
9,['2'],2,TMTstop-A_1_plinestimulus6.png,TMTstop-A_1_pgreenlinestimulus6.png,TMTstop-A_1_predlinestimulus6.png,10,,,,,0,8,8,8,,,,,3,0,37.81459819999873,None,"['3', '1', '2']",1,"[0.08503869999549352, 0.2638695999921765, 0.3359801999758929]",37.81459819999873,None,,001,2022_Apr_29_1020,TMT_practice,2021.2.3,146.86703245037344,
10,['1'],1,TMTstop-A_1_plinestimulus7.png,TMTstop-A_1_pgreenlinestimulus7.png,TMTstop-A_1_predlinestimulus7.png,10,,,,,0,9,9,9,,,,,2,0,38.23816519998945,None,"['3', '1']",1,"[0.042580599983921275, 0.2007893999980297]",38.23816519998945,None,,001,2022_Apr_29_1020,TMT_practice,2021.2.3,146.86703245037344,
11,['2'],2,TMTstop-A_1_plinestimulus8.png,TMTstop-A_1_pgreenlinestimulus8.png,TMTstop-A_1_predlinestimulus8.png,10,,,,,0,10,10,10,,,,,1,1,38.565526799997315,None,['2'],1,[-0.07139409999945201],38.565526799997315,None,,001,2022_Apr_29_1020,TMT_practice,2021.2.3,146.86703245037344,
12,['1'],1,TMTstop-A_1_plinestimulus9.png,TMTstop-A_1_pgreenlinestimulus9.png,TMTstop-A_1_predlinestimulus9.png,10,,,,,0,11,11,11,,,,,2,0,38.65587729998515,None,"['3', '1']",1,"[-0.038271800003713, 0.13081770000280812]",38.65587729998515,None,,001,2022_Apr_29_1020,TMT_practice,2021.2.3,146.86703245037344,
13,['2'],2,TMTstop-A_1_plinestimulus10.png,TMTstop-A_1_pgreenlinestimulus10.png,TMTstop-A_1_predlinestimulus10.png,1,,,,,0,12,12,12,,,,,1,1,38.91215479999664,None,['2'],1,[-0.05751260000397451],38.91215479999664,None,,001,2022_Apr_29_1020,TMT_practice,2021.2.3,146.86703245037344,
14,['3'],3,TMTstop-A_1_plinestimulus11.png,TMTstop-A_1_pgreenlinestimulus11.png,TMTstop-A_1_predlinestimulus11.png,None,,,,,0,13,13,13,,,,,1,1,39.010289199999534,None,['3'],1,[-0.03479889998561703],39.010289199999534,None,,001,2022_Apr_29_1020,TMT_practice,2021.2.3,146.86703245037344,
15,['1'],1,TMTstop-A_1_plinestimulus12.png,TMTstop-A_1_pgreenlinestimulus12.png,TMTstop-A_1_predlinestimulus12.png,None,,,,,0,14,14,14,,,,,1,1,39.1099534999812,None,['1'],1,[-0.0017550000047776848],39.1099534999812,None,,001,2022_Apr_29_1020,TMT_practice,2021.2.3,146.86703245037344,
16,['3'],3,TMTstop-A_1_plinestimulus13.png,TMTstop-A_1_pgreenlinestimulus13.png,TMTstop-A_1_predlinestimulus13.png,None,,,,,0,15,15,15,,,,,2,0,39.22083469998324,None,"['2', '3']",1,"[-0.040870599972549826, 0.07597160001751035]",39.22083469998324,None,,001,2022_Apr_29_1020,TMT_practice,2021.2.3,146.86703245037344,
17,['1'],1,TMTstop-A_1_plinestimulus14.png,TMTstop-A_1_pgreenlinestimulus14.png,TMTstop-A_1_predlinestimulus14.png,None,,,,,0,16,16,16,,,,,1,1,39.51995580000221,None,['1'],1,[-0.03326019999803975],39.51995580000221,None,,001,2022_Apr_29_1020,TMT_practice,2021.2.3,146.86703245037344,
18,['2'],2,TMTstop-A_1_plinestimulus15.png,TMTstop-A_1_pgreenlinestimulus15.png,TMTstop-A_1_predlinestimulus15.png,None,,,,,0,17,17,17,,,,,1,1,39.65720529999817,None,['2'],1,[-0.11502910000854172],39.65720529999817,None,,001,2022_Apr_29_1020,TMT_practice,2021.2.3,146.86703245037344,
19,['3'],3,TMTstop-A_1_plinestimulus16.png,TMTstop-A_1_pgreenlinestimulus16.png,TMTstop-A_1_predlinestimulus16.png,None,,,,,0,18,18,18,,,,,1,1,39.76177369998186,None,['3'],1,[-0.07700660001137294],39.76177369998186,None,,001,2022_Apr_29_1020,TMT_practice,2021.2.3,146.86703245037344,
20,['2'],2,TMTstop-A_1_plinestimulus17.png,TMTstop-A_1_pgreenlinestimulus17.png,TMTstop-A_1_predlinestimulus17.png,None,,,,,0,19,19,19,,,,,2,0,39.857818899996346,None,"['1', '2']",1,"[0.015106000006198883, 0.08755410002777353]",39.857818899996346,None,,001,2022_Apr_29_1020,TMT_practice,2021.2.3,146.86703245037344,
21,['3'],3,TMTstop-A_1_plinestimulus18.png,TMTstop-A_1_pgreenlinestimulus18.png,TMTstop-A_1_predlinestimulus18.png,None,,,,,0,20,20,20,,,,,1,1,40.085588199988706,None,['3'],1,[-0.02146860002540052],40.085588199988706,None,,001,2022_Apr_29_1020,TMT_practice,2021.2.3,146.86703245037344,
22,['1'],1,TMTstop-A_1_plinestimulus19.png,TMTstop-A_1_pgreenlinestimulus19.png,TMTstop-A_1_predlinestimulus19.png,None,,,,,0,21,21,21,,,,,1,1,40.17738219999592,None,['1'],1,[0.05925049999495968],40.17738219999592,None,,001,2022_Apr_29_1020,TMT_practice,2021.2.3,146.86703245037344,
23,['2'],2,TMTstop-A_1_plinestimulus20.png,TMTstop-A_1_pgreenlinestimulus20.png,TMTstop-A_1_predlinestimulus20.png,None,,,,,0,22,22,22,,,,,1,1,40.33835989999352,None,['2'],1,[-0.055843799986178055],40.33835989999352,None,,001,2022_Apr_29_1020,TMT_practice,2021.2.3,146.86703245037344,
24,['3'],3,TMTstop-A_1_plinestimulus21.png,TMTstop-A_1_pgreenlinestimulus21.png,TMTstop-A_1_predlinestimulus21.png,None,,,,,0,23,23,23,,,,,1,1,40.4330023000075,None,['3'],1,[-0.007201500004157424],40.4330023000075,None,,001,2022_Apr_29_1020,TMT_practice,2021.2.3,146.86703245037344,
25,['2'],2,TMTstop-A_1_plinestimulus22.png,TMTstop-A_1_pgreenlinestimulus22.png,TMTstop-A_1_predlinestimulus22.png,None,,,,,0,24,24,24,,,,,2,0,40.51647679999587,None,"['1', '2']",1,"[0.059956899989629164, 0.09957479999866337]",40.51647679999587,None,,001,2022_Apr_29_1020,TMT_practice,2021.2.3,146.86703245037344,
None,None,None,TMTstop-A_1_plinestimulus23.png,TMTstop-A_1_pgreenlinestimulus23.png,TMTstop-A_1_predlinestimulus23.png,None,,,,,0,25,25,25,,,,,7,0,40.73196309999912,None,"['3', '1', '2', '3', '1', '2', '3']",0,"[0.026678099995478988, 0.18294269999023527, 0.22533180000027642, 0.352841099986108, 0.5300693000026513, 0.5932408999942709, 0.7602069999848027]",40.73196309999912,None,,001,2022_Apr_29_1020,TMT_practice,2021.2.3,146.86703245037344,
,,,,,,,,,,,,,,,,,,,0,0,,,,,,,,,,,,,,
