NumberLetter,corrAns,StimFile,Correct_StimFile,False_StimFile,DurationTrial,Correct,restartpractice.thisRepN,restartpractice.thisTrialN,restartpractice.thisN,restartpractice.thisIndex,trials_practice.thisRepN,trials_practice.thisTrialN,trials_practice.thisN,trials_practice.thisIndex,trials.thisRepN,trials.thisTrialN,trials.thisN,trials.thisIndex,trials_2.thisRepN,trials_2.thisTrialN,trials_2.thisN,trials_2.thisIndex,trials_3.thisRepN,trials_3.thisTrialN,trials_3.thisN,trials_3.thisIndex,Instruct.started,Instruct.stopped,image_2.started,image_2.stopped,key_resp_6.keys,key_resp_6.rt,key_resp_6.started,key_resp_6.stopped,polygon.started,polygon.stopped,Stim_practice.started,Stim_practice.stopped,key_resp_practice.keys,key_resp_practice.rt,key_resp_practice.started,key_resp_practice.stopped,text_5.started,text_5.stopped,key_resp_5.keys,key_resp_5.rt,key_resp_5.started,key_resp_5.stopped,Stim.started,Stim.stopped,key_resp_2.keys,key_resp_2.corr,key_resp_2.rt,key_resp_2.started,key_resp_2.stopped,participant,session,date,expName,psychopyVersion,frameRate,
,,,,,,,,,,,,,,,,,,,,,,,,,,,6.966523299925029,None,8.265440599992871,None,3,0.776528799906373,8.265440599992871,None,,,,,,,,,,,,,,,,,,,,,,,001,2022_Jan_11_1400,TMTAB,2021.2.3,59.88665855330819,
1,['1'],TMTstop-A_1_practice.png,TMTstop-A_1_practice.png,TMTstop-A_1_practice.png,10,,0,0,0,0,0,0,0,0,,,,,,,,,,,,,,,,,,,,,9.064763899892569,None,12.184573400067165,None,1,1.5058381999842823,12.184573400067165,None,,,,,,,,,,,,,,,001,2022_Jan_11_1400,TMTAB,2021.2.3,59.88665855330819,
2,['2'],TMTstop-A_1_practice.png,TMTstop-A_1_practicefirstgreen.png,TMTstop-A_1_practicefirstred.png,10,,0,0,0,0,0,1,1,1,,,,,,,,,,,,,,,,,,,,,,,13.78560689999722,None,2,0.018910399870947003,13.78560689999722,None,,,,,,,,,,,,,,,001,2022_Jan_11_1400,TMTAB,2021.2.3,59.88665855330819,
3,['3'],TMTstop-A_1_practicelinestimulus0.png,TMTstop-A_1_practicegreenlinestimulus0.png,TMTstop-A_1_practiceredlinestimulus0.png,10,,0,0,0,0,0,2,2,2,,,,,,,,,,,,,,,,,,,,,,,13.902521800016984,None,3,0.3038435000926256,13.902521800016984,None,,,,,,,,,,,,,,,001,2022_Jan_11_1400,TMTAB,2021.2.3,59.88665855330819,
4,['1'],TMTstop-A_1_practicelinestimulus1.png,TMTstop-A_1_practicegreenlinestimulus1.png,TMTstop-A_1_practiceredlinestimulus1.png,10,,0,0,0,0,0,3,3,3,,,,,,,,,,,,,,,,,,,,,,,14.302490300033242,None,1,0.05756569979712367,14.302490300033242,None,,,,,,,,,,,,,,,001,2022_Jan_11_1400,TMTAB,2021.2.3,59.88665855330819,
5,['2'],TMTstop-A_1_practicelinestimulus2.png,TMTstop-A_1_practicegreenlinestimulus2.png,TMTstop-A_1_practiceredlinestimulus2.png,10,,0,0,0,0,0,4,4,4,,,,,,,,,,,,,,,,,,,,,,,14.452693399973214,None,2,1.2291071999352425,14.452693399973214,None,,,,,,,,,,,,,,,001,2022_Jan_11_1400,TMTAB,2021.2.3,59.88665855330819,
6,['3'],TMTstop-A_1_practicelinestimulus3.png,TMTstop-A_1_practicegreenlinestimulus3.png,TMTstop-A_1_practiceredlinestimulus3.png,10,,0,0,0,0,0,5,5,5,,,,,,,,,,,,,,,,,,,,,,,15.769870100077242,None,3,0.34116580011323094,15.769870100077242,None,,,,,,,,,,,,,,,001,2022_Jan_11_1400,TMTAB,2021.2.3,59.88665855330819,
7,['1'],TMTstop-A_1_practicelinestimulus4.png,TMTstop-A_1_practicegreenlinestimulus4.png,TMTstop-A_1_practiceredlinestimulus4.png,10,,0,0,0,0,0,6,6,6,,,,,,,,,,,,,,,,,,,,,,,16.220052199903876,None,1,0.07201580004766583,16.220052199903876,None,,,,,,,,,,,,,,,001,2022_Jan_11_1400,TMTAB,2021.2.3,59.88665855330819,
8,['3'],TMTstop-A_1_practicelinestimulus5.png,TMTstop-A_1_practicegreenlinestimulus5.png,TMTstop-A_1_practiceredlinestimulus5.png,10,,0,0,0,0,0,7,7,7,,,,,,,,,,,,,,,,,,,,,,,16.386790100019425,None,3,0.07860199990682304,16.386790100019425,None,,,,,,,,,,,,,,,001,2022_Jan_11_1400,TMTAB,2021.2.3,59.88665855330819,
9,['2'],TMTstop-A_1_practicelinestimulus6.png,TMTstop-A_1_practicegreenlinestimulus6.png,TMTstop-A_1_practiceredlinestimulus6.png,10,,0,0,0,0,0,8,8,8,,,,,,,,,,,,,,,,,,,,,,,16.55350759997964,None,2,0.20858169998973608,16.55350759997964,None,,,,,,,,,,,,,,,001,2022_Jan_11_1400,TMTAB,2021.2.3,59.88665855330819,
10,['3'],TMTstop-A_1_practicelinestimulus7.png,TMTstop-A_1_practicegreenlinestimulus7.png,TMTstop-A_1_practiceredlinestimulus7.png,10,,0,0,0,0,0,9,9,9,,,,,,,,,,,,,,,,,,,,,,,16.870478000026196,None,3,0.3267717999406159,16.870478000026196,None,,,,,,,,,,,,,,,001,2022_Jan_11_1400,TMTAB,2021.2.3,59.88665855330819,
11,['1'],TMTstop-A_1_practicelinestimulus8.png,TMTstop-A_1_practicegreenlinestimulus8.png,TMTstop-A_1_practiceredlinestimulus8.png,10,,0,0,0,0,0,10,10,10,,,,,,,,,,,,,,,,,,,,,,,17.287233700044453,None,1,0.0839098000433296,17.287233700044453,None,,,,,,,,,,,,,,,001,2022_Jan_11_1400,TMTAB,2021.2.3,59.88665855330819,
12,['2'],TMTstop-A_1_practicelinestimulus9.png,TMTstop-A_1_practicegreenlinestimulus9.png,TMTstop-A_1_practiceredlinestimulus9.png,10,,0,0,0,0,0,11,11,11,,,,,,,,,,,,,,,,,,,,,,,17.45411689998582,None,2,0.0092913000844419,17.45411689998582,None,,,,,,,,,,,,,,,001,2022_Jan_11_1400,TMTAB,2021.2.3,59.88665855330819,
None,None,TMTstop-A_1_practicelinestimulus10.png,TMTstop-A_1_practicegreenlinestimulus10.png,TMTstop-A_1_practiceredlinestimulus10.png,None,,0,0,0,0,0,12,12,12,,,,,,,,,,,,,,,,,,,,,,,17.554111700039357,None,3,0.3788612000644207,17.554111700039357,None,,,,,,,,,,,,,,,001,2022_Jan_11_1400,TMTAB,2021.2.3,59.88665855330819,
,,,,,,,0,0,0,0,,,,,,,,,,,,,,,,,,,,,,,,,,,,,,,,,18.63423310010694,None,2,0.7815560998860747,18.63423310010694,None,,,,,,,,,001,2022_Jan_11_1400,TMTAB,2021.2.3,59.88665855330819,
1,['2'],TMTstop-A_1_1.png,TMTstop-A_1_1.png,TMTstop-A_1_1.png,10,,,,,,,,,,0,0,0,0,,,,,,,,,,,,,,,,,19.43619089992717,None,,,,,,,,,,,,,22.53890879987739,None,"['1', '2']",1,"[0.5845801001414657, 0.7209608999546617]",22.53890879987739,None,,001,2022_Jan_11_1400,TMTAB,2021.2.3,59.88665855330819,
2,['1'],TMTstop-A_1_1.png,TMTstop-A_1_1firstgreen.png,TMTstop-A_1_1firstred.png,10,,,,,,,,,,0,1,1,1,,,,,,,,,,,,,,,,,,,,,,,,,,,,,,,23.356568800052628,None,"['3', '1']",1,"[-0.05029429984278977, 0.12839299999177456]",23.356568800052628,None,,001,2022_Jan_11_1400,TMTAB,2021.2.3,59.88665855330819,
3,['2'],TMTstop-A_1_1linestimulus0.png,TMTstop-A_1_1greenlinestimulus0.png,TMTstop-A_1_1redlinestimulus0.png,10,,,,,,,,,,0,2,2,2,,,,,,,,,,,,,,,,,,,,,,,,,,,,,,,23.589976100018248,None,['2'],1,[0.0020779999904334545],23.589976100018248,None,,001,2022_Jan_11_1400,TMTAB,2021.2.3,59.88665855330819,
4,['3'],TMTstop-A_1_1linestimulus1.png,TMTstop-A_1_1greenlinestimulus1.png,TMTstop-A_1_1redlinestimulus1.png,10,,,,,,,,,,0,3,3,3,,,,,,,,,,,,,,,,,,,,,,,,,,,,,,,23.690277900081128,None,['3'],1,[-0.030099299969151616],23.690277900081128,None,,001,2022_Jan_11_1400,TMTAB,2021.2.3,59.88665855330819,
5,['2'],TMTstop-A_1_1linestimulus2.png,TMTstop-A_1_1greenlinestimulus2.png,TMTstop-A_1_1redlinestimulus2.png,10,,,,,,,,,,0,4,4,4,,,,,,,,,,,,,,,,,,,,,,,,,,,,,,,23.773294100072235,None,"['1', '2']",1,"[0.009782199980691075, 0.09782289993017912]",23.773294100072235,None,,001,2022_Jan_11_1400,TMTAB,2021.2.3,59.88665855330819,
6,['3'],TMTstop-A_1_1linestimulus3.png,TMTstop-A_1_1greenlinestimulus3.png,TMTstop-A_1_1redlinestimulus3.png,10,,,,,,,,,,0,5,5,5,,,,,,,,,,,,,,,,,,,,,,,,,,,,,,,23.97370640002191,None,['3'],1,[-0.03057930013164878],23.97370640002191,None,,001,2022_Jan_11_1400,TMTAB,2021.2.3,59.88665855330819,
7,['2'],TMTstop-A_1_1linestimulus4.png,TMTstop-A_1_1greenlinestimulus4.png,TMTstop-A_1_1redlinestimulus4.png,10,,,,,,,,,,0,6,6,6,,,,,,,,,,,,,,,,,,,,,,,,,,,,,,,24.05732939997688,None,"['1', '2']",1,"[0.02317850012332201, 0.10360089992173016]",24.05732939997688,None,,001,2022_Jan_11_1400,TMTAB,2021.2.3,59.88665855330819,
8,['1'],TMTstop-A_1_1linestimulus5.png,TMTstop-A_1_1greenlinestimulus5.png,TMTstop-A_1_1redlinestimulus5.png,10,,,,,,,,,,0,7,7,7,,,,,,,,,,,,,,,,,,,,,,,,,,,,,,,24.273640800034627,None,"['3', '1']",1,"[-0.02369550010189414, 0.09649130003526807]",24.273640800034627,None,,001,2022_Jan_11_1400,TMTAB,2021.2.3,59.88665855330819,
9,['2'],TMTstop-A_1_1linestimulus6.png,TMTstop-A_1_1greenlinestimulus6.png,TMTstop-A_1_1redlinestimulus6.png,10,,,,,,,,,,0,8,8,8,,,,,,,,,,,,,,,,,,,,,,,,,,,,,,,24.457050299970433,None,['2'],1,[0.0001963998656719923],24.457050299970433,None,,001,2022_Jan_11_1400,TMTAB,2021.2.3,59.88665855330819,
10,['1'],TMTstop-A_1_1linestimulus7.png,TMTstop-A_1_1greenlinestimulus7.png,TMTstop-A_1_1redlinestimulus7.png,10,,,,,,,,,,0,9,9,9,,,,,,,,,,,,,,,,,,,,,,,,,,,,,,,24.54065370000899,None,"['3', '1']",1,"[-0.011358699994161725, 0.11869400017894804]",24.54065370000899,None,,001,2022_Jan_11_1400,TMTAB,2021.2.3,59.88665855330819,
11,['2'],TMTstop-A_1_1linestimulus8.png,TMTstop-A_1_1greenlinestimulus8.png,TMTstop-A_1_1redlinestimulus8.png,10,,,,,,,,,,0,10,10,10,,,,,,,,,,,,,,,,,,,,,,,,,,,,,,,24.790529599878937,None,['2'],1,[-0.06004979996941984],24.790529599878937,None,,001,2022_Jan_11_1400,TMTAB,2021.2.3,59.88665855330819,
12,['3'],TMTstop-A_1_1linestimulus9.png,TMTstop-A_1_1greenlinestimulus9.png,TMTstop-A_1_1redlinestimulus9.png,10,,,,,,,,,,0,11,11,11,,,,,,,,,,,,,,,,,,,,,,,,,,,,,,,24.8738726999145,None,['3'],1,[-0.05853359983302653],24.8738726999145,None,,001,2022_Jan_11_1400,TMTAB,2021.2.3,59.88665855330819,
13,['2'],TMTstop-A_1_1linestimulus10.png,TMTstop-A_1_1greenlinestimulus10.png,TMTstop-A_1_1redlinestimulus10.png,1,,,,,,,,,,0,12,12,12,,,,,,,,,,,,,,,,,,,,,,,,,,,,,,,24.95724010001868,None,"['1', '2']",1,"[-0.01920780004002154, 0.08319959999062121]",24.95724010001868,None,,001,2022_Jan_11_1400,TMTAB,2021.2.3,59.88665855330819,
14,['3'],TMTstop-A_1_1linestimulus11.png,TMTstop-A_1_1greenlinestimulus11.png,TMTstop-A_1_1redlinestimulus11.png,None,,,,,,,,,,0,13,13,13,,,,,,,,,,,,,,,,,,,,,,,,,,,,,,,25.140691299922764,None,['3'],1,[-0.04270989983342588],25.140691299922764,None,,001,2022_Jan_11_1400,TMTAB,2021.2.3,59.88665855330819,
15,['1'],TMTstop-A_1_1linestimulus12.png,TMTstop-A_1_1greenlinestimulus12.png,TMTstop-A_1_1redlinestimulus12.png,None,,,,,,,,,,0,14,14,14,,,,,,,,,,,,,,,,,,,,,,,,,,,,,,,25.224080299958587,None,['1'],1,[0.0051929999608546495],25.224080299958587,None,,001,2022_Jan_11_1400,TMTAB,2021.2.3,59.88665855330819,
16,['3'],TMTstop-A_1_1linestimulus13.png,TMTstop-A_1_1greenlinestimulus13.png,TMTstop-A_1_1redlinestimulus13.png,None,,,,,,,,,,0,15,15,15,,,,,,,,,,,,,,,,,,,,,,,,,,,,,,,25.324158600065857,None,"['2', '3']",1,"[-0.03266100003384054, 0.053723299875855446]",25.324158600065857,None,,001,2022_Jan_11_1400,TMTAB,2021.2.3,59.88665855330819,
17,['2'],TMTstop-A_1_1linestimulus14.png,TMTstop-A_1_1greenlinestimulus14.png,TMTstop-A_1_1redlinestimulus14.png,None,,,,,,,,,,0,16,16,16,,,,,,,,,,,,,,,,,,,,,,,,,,,,,,,25.50748119992204,None,"['1', '2']",1,"[0.005330000072717667, 0.11095730005763471]",25.50748119992204,None,,001,2022_Jan_11_1400,TMTAB,2021.2.3,59.88665855330819,
18,['3'],TMTstop-A_1_1linestimulus15.png,TMTstop-A_1_1greenlinestimulus15.png,TMTstop-A_1_1redlinestimulus15.png,None,,,,,,,,,,0,17,17,17,,,,,,,,,,,,,,,,,,,,,,,,,,,,,,,25.707540000090376,None,['3'],1,[-0.013148199999704957],25.707540000090376,None,,001,2022_Jan_11_1400,TMTAB,2021.2.3,59.88665855330819,
19,['1'],TMTstop-A_1_1linestimulus16.png,TMTstop-A_1_1greenlinestimulus16.png,TMTstop-A_1_1redlinestimulus16.png,None,,,,,,,,,,0,18,18,18,,,,,,,,,,,,,,,,,,,,,,,,,,,,,,,25.790988799883053,None,['1'],1,[0.03134220000356436],25.790988799883053,None,,001,2022_Jan_11_1400,TMTAB,2021.2.3,59.88665855330819,
20,['3'],TMTstop-A_1_1linestimulus17.png,TMTstop-A_1_1greenlinestimulus17.png,TMTstop-A_1_1redlinestimulus17.png,None,,,,,,,,,,0,19,19,19,,,,,,,,,,,,,,,,,,,,,,,,,,,,,,,25.908024299889803,None,"['2', '3']",1,"[-0.011309200199320912, 0.07187019987031817]",25.908024299889803,None,,001,2022_Jan_11_1400,TMTAB,2021.2.3,59.88665855330819,
21,['1'],TMTstop-A_1_1linestimulus18.png,TMTstop-A_1_1greenlinestimulus18.png,TMTstop-A_1_1redlinestimulus18.png,None,,,,,,,,,,0,20,20,20,,,,,,,,,,,,,,,,,,,,,,,,,,,,,,,26.091156200040132,None,['1'],1,[0.02649959991686046],26.091156200040132,None,,001,2022_Jan_11_1400,TMTAB,2021.2.3,59.88665855330819,
22,['3'],TMTstop-A_1_1linestimulus19.png,TMTstop-A_1_1greenlinestimulus19.png,TMTstop-A_1_1redlinestimulus19.png,None,,,,,,,,,,0,21,21,21,,,,,,,,,,,,,,,,,,,,,,,,,,,,,,,26.20783789991401,None,"['2', '3']",1,"[-0.009164100047200918, 0.082387899979949]",26.20783789991401,None,,001,2022_Jan_11_1400,TMTAB,2021.2.3,59.88665855330819,
23,['1'],TMTstop-A_1_1linestimulus20.png,TMTstop-A_1_1greenlinestimulus20.png,TMTstop-A_1_1redlinestimulus20.png,None,,,,,,,,,,0,22,22,22,,,,,,,,,,,,,,,,,,,,,,,,,,,,,,,26.39122230000794,None,['1'],1,[0.04566920013166964],26.39122230000794,None,,001,2022_Jan_11_1400,TMTAB,2021.2.3,59.88665855330819,
24,['2'],TMTstop-A_1_1linestimulus21.png,TMTstop-A_1_1greenlinestimulus21.png,TMTstop-A_1_1redlinestimulus21.png,None,,,,,,,,,,0,23,23,23,,,,,,,,,,,,,,,,,,,,,,,,,,,,,,,26.524796100100502,None,['2'],1,[-0.014867000048980117],26.524796100100502,None,,001,2022_Jan_11_1400,TMTAB,2021.2.3,59.88665855330819,
25,['3'],TMTstop-A_1_1linestimulus22.png,TMTstop-A_1_1greenlinestimulus22.png,TMTstop-A_1_1redlinestimulus22.png,None,,,,,,,,,,0,24,24,24,,,,,,,,,,,,,,,,,,,,,,,,,,,,,,,26.608006400056183,None,['3'],1,[-0.005969400051981211],26.608006400056183,None,,001,2022_Jan_11_1400,TMTAB,2021.2.3,59.88665855330819,
None,None,TMTstop-A_1_1linestimulus23.png,TMTstop-A_1_1greenlinestimulus23.png,TMTstop-A_1_1redlinestimulus23.png,None,,,,,,,,,,0,25,25,25,,,,,,,,,,,,,,,,,,,,,,,,,,,,,,,26.6915923000779,None,"['1', '2', '3', '1', '2', '3']",0,"[0.04775899997912347, 0.12351569999009371, 0.21968229999765754, 0.3244193000718951, 0.4196824000682682, 0.5109572000801563]",26.6915923000779,None,,001,2022_Jan_11_1400,TMTAB,2021.2.3,59.88665855330819,
1,['3'],TMTstop-A_1_2.png,TMTstop-A_1_2.png,TMTstop-A_1_2.png,10,3,,,,,,,,,,,,,0,0,0,0,,,,,,,,,,,,,27.74011839996092,None,,,,,,,,,,,,,30.776725499890745,None,"['1', '2', '3']",1,"[0.4842174998484552, 0.5946988998912275, 0.6629641999024898]",30.776725499890745,None,,001,2022_Jan_11_1400,TMTAB,2021.2.3,59.88665855330819,
2,['2'],TMTstop-A_1_2.png,TMTstop-A_1_2firstgreen.png,TMTstop-A_1_2firstred.png,10,2,,,,,,,,,,,,,0,1,1,1,,,,,,,,,,,,,,,,,,,,,,,,,,,31.543780900072306,None,"['1', '2']",1,"[0.07051380001939833, 0.13865129998885095]",31.543780900072306,None,,001,2022_Jan_11_1400,TMTAB,2021.2.3,59.88665855330819,
3,['3'],TMTstop-A_1_2linestimulus0.png,TMTstop-A_1_2greenlinestimulus0.png,TMTstop-A_1_2redlinestimulus0.png,10,3,,,,,,,,,,,,,0,2,2,2,,,,,,,,,,,,,,,,,,,,,,,,,,,31.810487400041893,None,['3'],1,[-0.03149869991466403],31.810487400041893,None,,001,2022_Jan_11_1400,TMTAB,2021.2.3,59.88665855330819,
4,['1'],TMTstop-A_1_2linestimulus1.png,TMTstop-A_1_2greenlinestimulus1.png,TMTstop-A_1_2redlinestimulus1.png,10,1,,,,,,,,,,,,,0,3,3,3,,,,,,,,,,,,,,,,,,,,,,,,,,,31.893863199977204,None,['1'],1,[0.01584989996626973],31.893863199977204,None,,001,2022_Jan_11_1400,TMTAB,2021.2.3,59.88665855330819,
5,['2'],TMTstop-A_1_2linestimulus2.png,TMTstop-A_1_2greenlinestimulus2.png,TMTstop-A_1_2redlinestimulus2.png,10,2,,,,,,,,,,,,,0,4,4,4,,,,,,,,,,,,,,,,,,,,,,,,,,,31.993857800029218,None,['2'],1,[-0.009195399936288595],31.993857800029218,None,,001,2022_Jan_11_1400,TMTAB,2021.2.3,59.88665855330819,
6,['3'],TMTstop-A_1_2linestimulus3.png,TMTstop-A_1_2greenlinestimulus3.png,TMTstop-A_1_2redlinestimulus3.png,10,3,,,,,,,,,,,,,0,5,5,5,,,,,,,,,,,,,,,,,,,,,,,,,,,32.07723050005734,None,['3'],1,[0.005495900055393577],32.07723050005734,None,,001,2022_Jan_11_1400,TMTAB,2021.2.3,59.88665855330819,
7,['2'],TMTstop-A_1_2linestimulus4.png,TMTstop-A_1_2greenlinestimulus4.png,TMTstop-A_1_2redlinestimulus4.png,10,2,,,,,,,,,,,,,0,6,6,6,,,,,,,,,,,,,,,,,,,,,,,,,,,32.17735880007967,None,"['1', '2']",1,"[0.0340487000066787, 0.11021730001084507]",32.17735880007967,None,,001,2022_Jan_11_1400,TMTAB,2021.2.3,59.88665855330819,
8,['1'],TMTstop-A_1_2linestimulus5.png,TMTstop-A_1_2greenlinestimulus5.png,TMTstop-A_1_2redlinestimulus5.png,10,1,,,,,,,,,,,,,0,7,7,7,,,,,,,,,,,,,,,,,,,,,,,,,,,32.39399369992316,None,"['3', '1']",1,"[-0.02758729993365705, 0.10455860011279583]",32.39399369992316,None,,001,2022_Jan_11_1400,TMTAB,2021.2.3,59.88665855330819,
9,['2'],TMTstop-A_1_2linestimulus6.png,TMTstop-A_1_2greenlinestimulus6.png,TMTstop-A_1_2redlinestimulus6.png,10,2,,,,,,,,,,,,,0,8,8,8,,,,,,,,,,,,,,,,,,,,,,,,,,,32.627506599994376,None,['2'],1,[-0.054242199985310435],32.627506599994376,None,,001,2022_Jan_11_1400,TMTAB,2021.2.3,59.88665855330819,
10,['3'],TMTstop-A_1_2linestimulus7.png,TMTstop-A_1_2greenlinestimulus7.png,TMTstop-A_1_2redlinestimulus7.png,10,3,,,,,,,,,,,,,0,9,9,9,,,,,,,,,,,,,,,,,,,,,,,,,,,32.71112099988386,None,['3'],1,[-0.04589219996705651],32.71112099988386,None,,001,2022_Jan_11_1400,TMTAB,2021.2.3,59.88665855330819,
11,['1'],TMTstop-A_1_2linestimulus8.png,TMTstop-A_1_2greenlinestimulus8.png,TMTstop-A_1_2redlinestimulus8.png,10,1,,,,,,,,,,,,,0,10,10,10,,,,,,,,,,,,,,,,,,,,,,,,,,,32.794296900043264,None,['1'],1,[0.02065540011972189],32.794296900043264,None,,001,2022_Jan_11_1400,TMTAB,2021.2.3,59.88665855330819,
12,['2'],TMTstop-A_1_2linestimulus9.png,TMTstop-A_1_2greenlinestimulus9.png,TMTstop-A_1_2redlinestimulus9.png,10,2,,,,,,,,,,,,,0,11,11,11,,,,,,,,,,,,,,,,,,,,,,,,,,,32.9110952001065,None,['2'],1,[-0.01725510018877685],32.9110952001065,None,,001,2022_Jan_11_1400,TMTAB,2021.2.3,59.88665855330819,
13,['3'],TMTstop-A_1_2linestimulus10.png,TMTstop-A_1_2greenlinestimulus10.png,TMTstop-A_1_2redlinestimulus10.png,1,3,,,,,,,,,,,,,0,12,12,12,,,,,,,,,,,,,,,,,,,,,,,,,,,32.99463510001078,None,['3'],1,[0.0011573999654501677],32.99463510001078,None,,001,2022_Jan_11_1400,TMTAB,2021.2.3,59.88665855330819,
14,['1'],TMTstop-A_1_2linestimulus11.png,TMTstop-A_1_2greenlinestimulus11.png,TMTstop-A_1_2redlinestimulus11.png,None,1,,,,,,,,,,,,,0,13,13,13,,,,,,,,,,,,,,,,,,,,,,,,,,,33.07820089999586,None,"['2', '2', '3', '1']",1,"[0.5728444999549538, 0.9807555000297725, 1.199623600114137, 1.304543900070712]",33.07820089999586,None,,001,2022_Jan_11_1400,TMTAB,2021.2.3,59.88665855330819,
15,['3'],TMTstop-A_1_2linestimulus12.png,TMTstop-A_1_2greenlinestimulus12.png,TMTstop-A_1_2redlinestimulus12.png,None,3,,,,,,,,,,,,,0,14,14,14,,,,,,,,,,,,,,,,,,,,,,,,,,,34.49499720009044,None,"['2', '3']",1,"[0.01878779986873269, 0.10197039996273816]",34.49499720009044,None,,001,2022_Jan_11_1400,TMTAB,2021.2.3,59.88665855330819,
16,['1'],TMTstop-A_1_2linestimulus13.png,TMTstop-A_1_2greenlinestimulus13.png,TMTstop-A_1_2redlinestimulus13.png,None,1,,,,,,,,,,,,,0,15,15,15,,,,,,,,,,,,,,,,,,,,,,,,,,,34.71194209996611,None,['1'],1,[0.04529860010370612],34.71194209996611,None,,001,2022_Jan_11_1400,TMTAB,2021.2.3,59.88665855330819,
17,['2'],TMTstop-A_1_2linestimulus14.png,TMTstop-A_1_2greenlinestimulus14.png,TMTstop-A_1_2redlinestimulus14.png,None,2,,,,,,,,,,,,,0,16,16,16,,,,,,,,,,,,,,,,,,,,,,,,,,,34.845424300059676,None,['2'],1,[-0.006343399873003364],34.845424300059676,None,,001,2022_Jan_11_1400,TMTAB,2021.2.3,59.88665855330819,
18,['1'],TMTstop-A_1_2linestimulus15.png,TMTstop-A_1_2greenlinestimulus15.png,TMTstop-A_1_2redlinestimulus15.png,None,1,,,,,,,,,,,,,0,17,17,17,,,,,,,,,,,,,,,,,,,,,,,,,,,34.912104999879375,None,"['3', '1']",1,"[0.028620600001886487, 0.15617680014111102]",34.912104999879375,None,,001,2022_Jan_11_1400,TMTAB,2021.2.3,59.88665855330819,
19,['3'],TMTstop-A_1_2linestimulus16.png,TMTstop-A_1_2greenlinestimulus16.png,TMTstop-A_1_2redlinestimulus16.png,None,3,,,,,,,,,,,,,0,18,18,18,,,,,,,,,,,,,,,,,,,,,,,,,,,35.17867169994861,None,"['2', '3']",1,"[-0.029955099802464247, 0.06727330014109612]",35.17867169994861,None,,001,2022_Jan_11_1400,TMTAB,2021.2.3,59.88665855330819,
20,['1'],TMTstop-A_1_2linestimulus17.png,TMTstop-A_1_2greenlinestimulus17.png,TMTstop-A_1_2redlinestimulus17.png,None,1,,,,,,,,,,,,,0,19,19,19,,,,,,,,,,,,,,,,,,,,,,,,,,,35.36218459997326,None,['1'],1,[0.009921899996697903],35.36218459997326,None,,001,2022_Jan_11_1400,TMTAB,2021.2.3,59.88665855330819,
21,['2'],TMTstop-A_1_2linestimulus18.png,TMTstop-A_1_2greenlinestimulus18.png,TMTstop-A_1_2redlinestimulus18.png,None,2,,,,,,,,,,,,,0,20,20,20,,,,,,,,,,,,,,,,,,,,,,,,,,,35.462140100076795,None,['2'],1,[-0.015458399895578623],35.462140100076795,None,,001,2022_Jan_11_1400,TMTAB,2021.2.3,59.88665855330819,
22,['1'],TMTstop-A_1_2linestimulus19.png,TMTstop-A_1_2greenlinestimulus19.png,TMTstop-A_1_2redlinestimulus19.png,None,1,,,,,,,,,,,,,0,21,21,21,,,,,,,,,,,,,,,,,,,,,,,,,,,35.54551399988122,None,"['3', '1']",1,"[0.005584199912846088, 0.13419779995456338]",35.54551399988122,None,,001,2022_Jan_11_1400,TMTAB,2021.2.3,59.88665855330819,
23,['2'],TMTstop-A_1_2linestimulus20.png,TMTstop-A_1_2greenlinestimulus20.png,TMTstop-A_1_2redlinestimulus20.png,None,2,,,,,,,,,,,,,0,22,22,22,,,,,,,,,,,,,,,,,,,,,,,,,,,35.79558199993335,None,['2'],1,[-0.03918570000678301],35.79558199993335,None,,001,2022_Jan_11_1400,TMTAB,2021.2.3,59.88665855330819,
24,['1'],TMTstop-A_1_2linestimulus21.png,TMTstop-A_1_2greenlinestimulus21.png,TMTstop-A_1_2redlinestimulus21.png,None,1,,,,,,,,,,,,,0,23,23,23,,,,,,,,,,,,,,,,,,,,,,,,,,,35.87912940001115,None,"['3', '1']",1,"[-0.020232300041243434, 0.10156470001675189]",35.87912940001115,None,,001,2022_Jan_11_1400,TMTAB,2021.2.3,59.88665855330819,
25,['2'],TMTstop-A_1_2linestimulus22.png,TMTstop-A_1_2greenlinestimulus22.png,TMTstop-A_1_2redlinestimulus22.png,None,2,,,,,,,,,,,,,0,24,24,24,,,,,,,,,,,,,,,,,,,,,,,,,,,36.112459799973294,None,['2'],1,[-0.023713000118732452],36.112459799973294,None,,001,2022_Jan_11_1400,TMTAB,2021.2.3,59.88665855330819,
None,None,TMTstop-A_1_2linestimulus23.png,TMTstop-A_1_2greenlinestimulus23.png,TMTstop-A_1_2redlinestimulus23.png,None,None,,,,,,,,,,,,,0,25,25,25,,,,,,,,,,,,,,,,,,,,,,,,,,,36.19594329991378,None,"['3', '1', '2', '3', '1', '2', '3', '1']",0,"[-0.029990199953317642, 0.09262280003167689, 0.1796252999920398, 0.26785219996236265, 0.38289309991523623, 0.46687710005789995, 0.5566785999108106, 0.6854177999775857]",36.19594329991378,None,,001,2022_Jan_11_1400,TMTAB,2021.2.3,59.88665855330819,
1,['1'],TMTstop-A_1_3.png,TMTstop-A_1_3.png,TMTstop-A_1_3.png,10,,,,,,,,,,,,,,,,,,0,0,0,0,,,,,,,,,37.24440609989688,None,,,,,,,,,,,,,40.28105270001106,None,"['2', '3', '2', '3', '1']",1,"[1.6014689998701215, 1.7674416999798268, 2.053406999912113, 2.1337029999122024, 3.2949333998840302]",40.28105270001106,None,,001,2022_Jan_11_1400,TMTAB,2021.2.3,59.88665855330819,
2,['3'],TMTstop-A_1_3.png,TMTstop-A_1_3firstgreen.png,TMTstop-A_1_3firstred.png,10,,,,,,,,,,,,,,,,,,0,1,1,1,,,,,,,,,,,,,,,,,,,,,,,43.668077300069854,None,"['2', '3']",1,"[0.1234821998514235, 0.26330249989405274]",43.668077300069854,None,,001,2022_Jan_11_1400,TMTAB,2021.2.3,59.88665855330819,
3,['1'],TMTstop-A_1_3linestimulus0.png,TMTstop-A_1_3greenlinestimulus0.png,TMTstop-A_1_3redlinestimulus0.png,10,,,,,,,,,,,,,,,,,,0,2,2,2,,,,,,,,,,,,,,,,,,,,,,,44.032704199897125,None,['1'],1,[0.06594949983991683],44.032704199897125,None,,001,2022_Jan_11_1400,TMTAB,2021.2.3,59.88665855330819,
4,['3'],TMTstop-A_1_3linestimulus1.png,TMTstop-A_1_3greenlinestimulus1.png,TMTstop-A_1_3redlinestimulus1.png,10,,,,,,,,,,,,,,,,,,0,3,3,3,,,,,,,,,,,,,,,,,,,,,,,44.182840700028464,None,"['2', '3']",1,"[0.02214849996380508, 0.11688440013676882]",44.182840700028464,None,,001,2022_Jan_11_1400,TMTAB,2021.2.3,59.88665855330819,
5,['1'],TMTstop-A_1_3linestimulus2.png,TMTstop-A_1_3greenlinestimulus2.png,TMTstop-A_1_3redlinestimulus2.png,10,,,,,,,,,,,,,,,,,,0,4,4,4,,,,,,,,,,,,,,,,,,,,,,,44.39976330008358,None,['1'],1,[0.0021138000302016735],44.39976330008358,None,,001,2022_Jan_11_1400,TMTAB,2021.2.3,59.88665855330819,
6,['2'],TMTstop-A_1_3linestimulus3.png,TMTstop-A_1_3greenlinestimulus3.png,TMTstop-A_1_3redlinestimulus3.png,10,,,,,,,,,,,,,,,,,,0,5,5,5,,,,,,,,,,,,,,,,,,,,,,,44.499622999923304,None,['2'],1,[0.0049103000201284885],44.499622999923304,None,,001,2022_Jan_11_1400,TMTAB,2021.2.3,59.88665855330819,
7,['3'],TMTstop-A_1_3linestimulus4.png,TMTstop-A_1_3greenlinestimulus4.png,TMTstop-A_1_3redlinestimulus4.png,10,,,,,,,,,,,,,,,,,,0,6,6,6,,,,,,,,,,,,,,,,,,,,,,,44.59969089995138,None,['3'],1,[-0.023005499970167875],44.59969089995138,None,,001,2022_Jan_11_1400,TMTAB,2021.2.3,59.88665855330819,
8,['2'],TMTstop-A_1_3linestimulus5.png,TMTstop-A_1_3greenlinestimulus5.png,TMTstop-A_1_3redlinestimulus5.png,10,,,,,,,,,,,,,,,,,,0,7,7,7,,,,,,,,,,,,,,,,,,,,,,,44.70219759992324,None,"['1', '2']",1,"[0.013330599991604686, 0.09543030010536313]",44.70219759992324,None,,001,2022_Jan_11_1400,TMTAB,2021.2.3,59.88665855330819,
9,['3'],TMTstop-A_1_3linestimulus6.png,TMTstop-A_1_3greenlinestimulus6.png,TMTstop-A_1_3redlinestimulus6.png,10,,,,,,,,,,,,,,,,,,0,8,8,8,,,,,,,,,,,,,,,,,,,,,,,44.89993009995669,None,['3'],1,[-0.02393839997239411],44.89993009995669,None,,001,2022_Jan_11_1400,TMTAB,2021.2.3,59.88665855330819,
10,['2'],TMTstop-A_1_3linestimulus7.png,TMTstop-A_1_3greenlinestimulus7.png,TMTstop-A_1_3redlinestimulus7.png,10,,,,,,,,,,,,,,,,,,0,9,9,9,,,,,,,,,,,,,,,,,,,,,,,44.98347430001013,None,"['1', '3', '2']",1,"[0.15436800010502338, 0.17910109995864332, 0.299693200038746]",44.98347430001013,None,,001,2022_Jan_11_1400,TMTAB,2021.2.3,59.88665855330819,
11,['3'],TMTstop-A_1_3linestimulus8.png,TMTstop-A_1_3greenlinestimulus8.png,TMTstop-A_1_3redlinestimulus8.png,10,,,,,,,,,,,,,,,,,,0,10,10,10,,,,,,,,,,,,,,,,,,,,,,,45.38344220002182,None,"['1', '2', '3']",1,"[0.15145990019664168, 0.21679780003614724, 0.3354306002147496]",45.38344220002182,None,,001,2022_Jan_11_1400,TMTAB,2021.2.3,59.88665855330819,
12,['1'],TMTstop-A_1_3linestimulus9.png,TMTstop-A_1_3greenlinestimulus9.png,TMTstop-A_1_3redlinestimulus9.png,10,,,,,,,,,,,,,,,,,,0,11,11,11,,,,,,,,,,,,,,,,,,,,,,,45.83351860009134,None,['1'],1,[0.08712469995953143],45.83351860009134,None,,001,2022_Jan_11_1400,TMTAB,2021.2.3,59.88665855330819,
13,['3'],TMTstop-A_1_3linestimulus10.png,TMTstop-A_1_3greenlinestimulus10.png,TMTstop-A_1_3redlinestimulus10.png,1,,,,,,,,,,,,,,,,,,0,12,12,12,,,,,,,,,,,,,,,,,,,,,,,46.01724989991635,None,"['2', '3']",1,"[-0.023601099848747253, 0.11853490001522005]",46.01724989991635,None,,001,2022_Jan_11_1400,TMTAB,2021.2.3,59.88665855330819,
14,['1'],TMTstop-A_1_3linestimulus11.png,TMTstop-A_1_3greenlinestimulus11.png,TMTstop-A_1_3redlinestimulus11.png,None,,,,,,,,,,,,,,,,,,0,13,13,13,,,,,,,,,,,,,,,,,,,,,,,46.25082410010509,None,['1'],1,[6.322596499929205],46.25082410010509,None,,001,2022_Jan_11_1400,TMTAB,2021.2.3,59.88665855330819,
15,['3'],TMTstop-A_1_3linestimulus12.png,TMTstop-A_1_3greenlinestimulus12.png,TMTstop-A_1_3redlinestimulus12.png,None,,,,,,,,,,,,,,,,,,0,14,14,14,,,,,,,,,,,,,,,,,,,,,,,52.670094300061464,None,"['2', '3']",1,"[1.3875917000696063, 1.6731867000926286]",52.670094300061464,None,,001,2022_Jan_11_1400,TMTAB,2021.2.3,59.88665855330819,
16,['2'],TMTstop-A_1_3linestimulus13.png,TMTstop-A_1_3greenlinestimulus13.png,TMTstop-A_1_3redlinestimulus13.png,None,,,,,,,,,,,,,,,,,,0,15,15,15,,,,,,,,,,,,,,,,,,,,,,,54.45422769989818,None,"['1', '2']",1,"[0.13224479998461902, 0.2800511000677943]",54.45422769989818,None,,001,2022_Jan_11_1400,TMTAB,2021.2.3,59.88665855330819,
17,['3'],TMTstop-A_1_3linestimulus14.png,TMTstop-A_1_3greenlinestimulus14.png,TMTstop-A_1_3redlinestimulus14.png,None,,,,,,,,,,,,,,,,,,0,16,16,16,,,,,,,,,,,,,,,,,,,,,,,54.82104089995846,None,['3'],1,[0.04015929996967316],54.82104089995846,None,,001,2022_Jan_11_1400,TMTAB,2021.2.3,59.88665855330819,
18,['2'],TMTstop-A_1_3linestimulus15.png,TMTstop-A_1_3greenlinestimulus15.png,TMTstop-A_1_3redlinestimulus15.png,None,,,,,,,,,,,,,,,,,,0,17,17,17,,,,,,,,,,,,,,,,,,,,,,,54.954586799954996,None,"['1', '2']",1,"[0.145154400030151, 0.2661027000285685]",54.954586799954996,None,,001,2022_Jan_11_1400,TMTAB,2021.2.3,59.88665855330819,
19,['1'],TMTstop-A_1_3linestimulus16.png,TMTstop-A_1_3greenlinestimulus16.png,TMTstop-A_1_3redlinestimulus16.png,None,,,,,,,,,,,,,,,,,,0,18,18,18,,,,,,,,,,,,,,,,,,,,,,,55.33808479993604,None,"['3', '1']",1,"[-0.0045044999569654465, 0.22757029999047518]",55.33808479993604,None,,001,2022_Jan_11_1400,TMTAB,2021.2.3,59.88665855330819,
20,['3'],TMTstop-A_1_3linestimulus17.png,TMTstop-A_1_3greenlinestimulus17.png,TMTstop-A_1_3redlinestimulus17.png,None,,,,,,,,,,,,,,,,,,0,19,19,19,,,,,,,,,,,,,,,,,,,,,,,55.671598199987784,None,"['2', '3']",1,"[0.008440699893981218, 0.09346619993448257]",55.671598199987784,None,,001,2022_Jan_11_1400,TMTAB,2021.2.3,59.88665855330819,
