Block_file,Condition_rows,NumberLetter,corrAns,Correct,StimFile,Correct_StimFile,False_StimFile,Block,TrialNumber_session,restartpractice.thisRepN,restartpractice.thisTrialN,restartpractice.thisN,restartpractice.thisIndex,trials_practice.thisRepN,trials_practice.thisTrialN,trials_practice.thisN,trials_practice.thisIndex,Blocks_loop.thisRepN,Blocks_loop.thisTrialN,Blocks_loop.thisN,Blocks_loop.thisIndex,trials.thisRepN,trials.thisTrialN,trials.thisN,trials.thisIndex,Attempts,First_attempt,Stim.started,Stim.stopped,key_resp_2.keys,key_resp_2.corr,key_resp_2.rt,key_resp_2.started,key_resp_2.stopped,participant,session,date,expName,psychopyVersion,frameRate,
TMTstop-A_1_1.xlsx,0:26,1,['2'],2,TMTstop-A_1_1.png,TMTstop-A_1_1.png,TMTstop-A_1_1.png,1,1,,,,,,,,,0,0,0,0,0,0,0,0,2,0,18.44905439997092,None,"['1', '2']",1,"[0.47381530003622174, 0.5163223999552429]",18.44905439997092,None,,001,2022_Feb_02_1550,TMTAstop-A,2021.2.3,132.0557382767548,
TMTstop-A_1_1.xlsx,0:26,2,['1'],1,TMTstop-A_1_1.png,TMTstop-A_1_1firstgreen.png,TMTstop-A_1_1firstred.png,1,2,,,,,,,,,0,0,0,0,0,1,1,1,2,0,19.040075300028548,None,"['3', '1']",1,"[0.04532980010844767, 0.18604930001311004]",19.040075300028548,None,,001,2022_Feb_02_1550,TMTAstop-A,2021.2.3,132.0557382767548,
TMTstop-A_1_1.xlsx,0:26,3,['2'],2,TMTstop-A_1_1linestimulus0.png,TMTstop-A_1_1greenlinestimulus0.png,TMTstop-A_1_1redlinestimulus0.png,1,3,,,,,,,,,0,0,0,0,0,2,2,2,1,1,19.332178400130942,None,['2'],1,[-0.018119500018656254],19.332178400130942,None,,001,2022_Feb_02_1550,TMTAstop-A,2021.2.3,132.0557382767548,
TMTstop-A_1_1.xlsx,0:26,4,['3'],3,TMTstop-A_1_1linestimulus1.png,TMTstop-A_1_1greenlinestimulus1.png,TMTstop-A_1_1redlinestimulus1.png,1,4,,,,,,,,,0,0,0,0,0,3,3,3,1,1,19.407599499914795,None,['3'],1,[-0.026291700080037117],19.407599499914795,None,,001,2022_Feb_02_1550,TMTAstop-A,2021.2.3,132.0557382767548,
TMTstop-A_1_1.xlsx,0:26,5,['2'],2,TMTstop-A_1_1linestimulus2.png,TMTstop-A_1_1greenlinestimulus2.png,TMTstop-A_1_1redlinestimulus2.png,1,5,,,,,,,,,0,0,0,0,0,4,4,4,2,0,19.484051099978387,None,"['1', '2']",1,"[0.021050400100648403, 0.10013550007715821]",19.484051099978387,None,,001,2022_Feb_02_1550,TMTAstop-A,2021.2.3,132.0557382767548,
TMTstop-A_1_1.xlsx,0:26,6,['3'],3,TMTstop-A_1_1linestimulus3.png,TMTstop-A_1_1greenlinestimulus3.png,TMTstop-A_1_1redlinestimulus3.png,1,6,,,,,,,,,0,0,0,0,0,5,5,5,1,1,19.674690099898726,None,['3'],1,[-0.014576800167560577],19.674690099898726,None,,001,2022_Feb_02_1550,TMTAstop-A,2021.2.3,132.0557382767548,
TMTstop-A_1_1.xlsx,0:26,7,['2'],2,TMTstop-A_1_1linestimulus4.png,TMTstop-A_1_1greenlinestimulus4.png,TMTstop-A_1_1redlinestimulus4.png,1,7,,,,,,,,,0,0,0,0,0,6,6,6,2,0,19.75152610009536,None,"['1', '2']",1,"[0.05450249998830259, 0.1511560999788344]",19.75152610009536,None,,001,2022_Feb_02_1550,TMTAstop-A,2021.2.3,132.0557382767548,
TMTstop-A_1_1.xlsx,0:26,8,['1'],1,TMTstop-A_1_1linestimulus5.png,TMTstop-A_1_1greenlinestimulus5.png,TMTstop-A_1_1redlinestimulus5.png,1,8,,,,,,,,,0,0,0,0,0,7,7,7,2,0,20.011949999956414,None,"['3', '1']",1,"[-0.0489419000223279, 0.07297339988872409]",20.011949999956414,None,,001,2022_Feb_02_1550,TMTAstop-A,2021.2.3,132.0557382767548,
TMTstop-A_1_1.xlsx,0:26,9,['2'],2,TMTstop-A_1_1linestimulus6.png,TMTstop-A_1_1greenlinestimulus6.png,TMTstop-A_1_1redlinestimulus6.png,1,9,,,,,,,,,0,0,0,0,0,8,8,8,1,1,20.171609200071543,None,['2'],1,[-0.003104100003838539],20.171609200071543,None,,001,2022_Feb_02_1550,TMTAstop-A,2021.2.3,132.0557382767548,
TMTstop-A_1_1.xlsx,0:26,10,['1'],1,TMTstop-A_1_1linestimulus7.png,TMTstop-A_1_1greenlinestimulus7.png,TMTstop-A_1_1redlinestimulus7.png,1,10,,,,,,,,,0,0,0,0,0,9,9,9,2,0,20.24819690012373,None,"['3', '1']",1,"[-0.0008281997870653868, 0.13431190000846982]",20.24819690012373,None,,001,2022_Feb_02_1550,TMTAstop-A,2021.2.3,132.0557382767548,
TMTstop-A_1_1.xlsx,0:26,11,['2'],2,TMTstop-A_1_1linestimulus8.png,TMTstop-A_1_1greenlinestimulus8.png,TMTstop-A_1_1redlinestimulus8.png,1,11,,,,,,,,,0,0,0,0,0,10,10,10,1,1,20.490677600027993,None,['2'],1,[-0.02938909991644323],20.490677600027993,None,,001,2022_Feb_02_1550,TMTAstop-A,2021.2.3,132.0557382767548,
TMTstop-A_1_1.xlsx,0:26,12,['3'],3,TMTstop-A_1_1linestimulus9.png,TMTstop-A_1_1greenlinestimulus9.png,TMTstop-A_1_1redlinestimulus9.png,1,12,,,,,,,,,0,0,0,0,0,11,11,11,1,1,20.56694020004943,None,['3'],1,[0.04293750016950071],20.56694020004943,None,,001,2022_Feb_02_1550,TMTAstop-A,2021.2.3,132.0557382767548,
TMTstop-A_1_1.xlsx,0:26,13,['2'],2,TMTstop-A_1_1linestimulus10.png,TMTstop-A_1_1greenlinestimulus10.png,TMTstop-A_1_1redlinestimulus10.png,1,13,,,,,,,,,0,0,0,0,0,12,12,12,2,0,20.691983900032938,None,"['1', '2']",1,"[0.13741590012796223, 0.1418314001057297]",20.691983900032938,None,,001,2022_Feb_02_1550,TMTAstop-A,2021.2.3,132.0557382767548,
TMTstop-A_1_1.xlsx,0:26,14,['3'],3,TMTstop-A_1_1linestimulus11.png,TMTstop-A_1_1greenlinestimulus11.png,TMTstop-A_1_1redlinestimulus11.png,1,14,,,,,,,,,0,0,0,0,0,13,13,13,1,1,20.948911000043154,None,['3'],1,[0.08186490018852055],20.948911000043154,None,,001,2022_Feb_02_1550,TMTAstop-A,2021.2.3,132.0557382767548,
TMTstop-A_1_1.xlsx,0:26,15,['1'],1,TMTstop-A_1_1linestimulus12.png,TMTstop-A_1_1greenlinestimulus12.png,TMTstop-A_1_1redlinestimulus12.png,1,15,,,,,,,,,0,0,0,0,0,14,14,14,1,1,21.116216300055385,None,['1'],1,[0.0487546999938786],21.116216300055385,None,,001,2022_Feb_02_1550,TMTAstop-A,2021.2.3,132.0557382767548,
TMTstop-A_1_1.xlsx,0:26,16,['3'],3,TMTstop-A_1_1linestimulus13.png,TMTstop-A_1_1greenlinestimulus13.png,TMTstop-A_1_1redlinestimulus13.png,1,16,,,,,,,,,0,0,0,0,0,15,15,15,2,0,21.240704300114885,None,"['2', '3']",1,"[0.0005344001110643148, 0.0854352000169456]",21.240704300114885,None,,001,2022_Feb_02_1550,TMTAstop-A,2021.2.3,132.0557382767548,
TMTstop-A_1_1.xlsx,0:26,17,['2'],2,TMTstop-A_1_1linestimulus14.png,TMTstop-A_1_1greenlinestimulus14.png,TMTstop-A_1_1redlinestimulus14.png,1,17,,,,,,,,,0,0,0,0,0,16,16,16,2,0,21.44209109991789,None,"['1', '2']",1,"[0.011398600181564689, 0.10663120006211102]",21.44209109991789,None,,001,2022_Feb_02_1550,TMTAstop-A,2021.2.3,132.0557382767548,
TMTstop-A_1_1.xlsx,0:26,18,['3'],3,TMTstop-A_1_1linestimulus15.png,TMTstop-A_1_1greenlinestimulus15.png,TMTstop-A_1_1redlinestimulus15.png,1,18,,,,,,,,,0,0,0,0,0,17,17,17,1,1,21.659952600020915,None,['3'],1,[-0.047041699988767505],21.659952600020915,None,,001,2022_Feb_02_1550,TMTAstop-A,2021.2.3,132.0557382767548,
TMTstop-A_1_1.xlsx,0:26,19,['1'],1,TMTstop-A_1_1linestimulus16.png,TMTstop-A_1_1greenlinestimulus16.png,TMTstop-A_1_1redlinestimulus16.png,1,19,,,,,,,,,0,0,0,0,0,18,18,18,1,1,21.73564779991284,None,['1'],1,[0.013231900054961443],21.73564779991284,None,,001,2022_Feb_02_1550,TMTAstop-A,2021.2.3,132.0557382767548,
TMTstop-A_1_1.xlsx,0:26,20,['3'],3,TMTstop-A_1_1linestimulus17.png,TMTstop-A_1_1greenlinestimulus17.png,TMTstop-A_1_1redlinestimulus17.png,1,20,,,,,,,,,0,0,0,0,0,19,19,19,2,0,21.830961999949068,None,"['2', '3']",1,"[-0.010524200042709708, 0.09521249984391034]",21.830961999949068,None,,001,2022_Feb_02_1550,TMTAstop-A,2021.2.3,132.0557382767548,
TMTstop-A_1_1.xlsx,0:26,21,['1'],1,TMTstop-A_1_1linestimulus18.png,TMTstop-A_1_1greenlinestimulus18.png,TMTstop-A_1_1redlinestimulus18.png,1,21,,,,,,,,,0,0,0,0,0,20,20,20,1,1,22.032742300070822,None,['1'],1,[0.0031204000115394592],22.032742300070822,None,,001,2022_Feb_02_1550,TMTAstop-A,2021.2.3,132.0557382767548,
TMTstop-A_1_1.xlsx,0:26,22,['3'],3,TMTstop-A_1_1linestimulus19.png,TMTstop-A_1_1greenlinestimulus19.png,TMTstop-A_1_1redlinestimulus19.png,1,22,,,,,,,,,0,0,0,0,0,21,21,21,2,0,22.124663500115275,None,"['2', '3']",1,"[0.005554199917241931, 0.0745129999704659]",22.124663500115275,None,,001,2022_Feb_02_1550,TMTAstop-A,2021.2.3,132.0557382767548,
TMTstop-A_1_1.xlsx,0:26,23,['1'],1,TMTstop-A_1_1linestimulus20.png,TMTstop-A_1_1greenlinestimulus20.png,TMTstop-A_1_1redlinestimulus20.png,1,23,,,,,,,,,0,0,0,0,0,22,22,22,1,1,22.296722100116313,None,['1'],1,[0.0414257999509573],22.296722100116313,None,,001,2022_Feb_02_1550,TMTAstop-A,2021.2.3,132.0557382767548,
TMTstop-A_1_1.xlsx,0:26,24,['2'],2,TMTstop-A_1_1linestimulus21.png,TMTstop-A_1_1greenlinestimulus21.png,TMTstop-A_1_1redlinestimulus21.png,1,24,,,,,,,,,0,0,0,0,0,23,23,23,1,1,22.428679100004956,None,['2'],1,[-0.004788300022482872],22.428679100004956,None,,001,2022_Feb_02_1550,TMTAstop-A,2021.2.3,132.0557382767548,
TMTstop-A_1_1.xlsx,0:26,25,['3'],3,TMTstop-A_1_1linestimulus22.png,TMTstop-A_1_1greenlinestimulus22.png,TMTstop-A_1_1redlinestimulus22.png,1,25,,,,,,,,,0,0,0,0,0,24,24,24,1,1,22.50481650000438,None,['3'],1,[0.005883699981495738],22.50481650000438,None,,001,2022_Feb_02_1550,TMTAstop-A,2021.2.3,132.0557382767548,
TMTstop-A_1_1.xlsx,0:26,None,None,None,TMTstop-A_1_1linestimulus23.png,TMTstop-A_1_1greenlinestimulus23.png,TMTstop-A_1_1redlinestimulus23.png,1,Feedback_last,,,,,,,,,0,0,0,0,0,25,25,25,2,0,22.594774099998176,None,"['1', '2']",0,"[0.016544600017368793, 0.10406120005063713]",22.594774099998176,None,,001,2022_Feb_02_1550,TMTAstop-A,2021.2.3,132.0557382767548,
TMTstop-A_1_2.xlsx,26:52,1,['3'],3,TMTstop-A_1_2.png,TMTstop-A_1_2.png,TMTstop-A_1_2.png,2,26,,,,,,,,,0,1,1,1,0,0,0,0,3,0,26.705535700079054,None,"['1', '2', '3']",1,"[0.472657399950549, 0.6116860001347959, 0.6645076000131667]",26.705535700079054,None,,001,2022_Feb_02_1550,TMTAstop-A,2021.2.3,132.0557382767548,
TMTstop-A_1_2.xlsx,26:52,2,['2'],2,TMTstop-A_1_2.png,TMTstop-A_1_2firstgreen.png,TMTstop-A_1_2firstred.png,2,27,,,,,,,,,0,1,1,1,0,1,1,1,2,0,27.455793400062248,None,"['1', '2']",1,"[0.09478679997846484, 0.16838869987986982]",27.455793400062248,None,,001,2022_Feb_02_1550,TMTAstop-A,2021.2.3,132.0557382767548,
TMTstop-A_1_2.xlsx,26:52,3,['3'],3,TMTstop-A_1_2linestimulus0.png,TMTstop-A_1_2greenlinestimulus0.png,TMTstop-A_1_2redlinestimulus0.png,2,28,,,,,,,,,0,1,1,1,0,2,2,2,1,1,27.734107699943706,None,['3'],1,[-0.014057400170713663],27.734107699943706,None,,001,2022_Feb_02_1550,TMTAstop-A,2021.2.3,132.0557382767548,
TMTstop-A_1_2.xlsx,26:52,4,['1'],1,TMTstop-A_1_2linestimulus1.png,TMTstop-A_1_2greenlinestimulus1.png,TMTstop-A_1_2redlinestimulus1.png,2,29,,,,,,,,,0,1,1,1,0,3,3,3,1,1,27.818841200089082,None,['1'],1,[0.05727909994311631],27.818841200089082,None,,001,2022_Feb_02_1550,TMTAstop-A,2021.2.3,132.0557382767548,
TMTstop-A_1_2.xlsx,26:52,5,['2'],2,TMTstop-A_1_2linestimulus2.png,TMTstop-A_1_2greenlinestimulus2.png,TMTstop-A_1_2redlinestimulus2.png,2,30,,,,,,,,,0,1,1,1,0,4,4,4,1,1,27.97112000011839,None,['2'],1,[-0.00842920015566051],27.97112000011839,None,,001,2022_Feb_02_1550,TMTAstop-A,2021.2.3,132.0557382767548,
TMTstop-A_1_2.xlsx,26:52,6,['3'],3,TMTstop-A_1_2linestimulus3.png,TMTstop-A_1_2greenlinestimulus3.png,TMTstop-A_1_2redlinestimulus3.png,2,31,,,,,,,,,0,1,1,1,0,5,5,5,1,1,28.05451610009186,None,['3'],1,[-0.0053934999741613865],28.05451610009186,None,,001,2022_Feb_02_1550,TMTAstop-A,2021.2.3,132.0557382767548,
TMTstop-A_1_2.xlsx,26:52,7,['2'],2,TMTstop-A_1_2linestimulus4.png,TMTstop-A_1_2greenlinestimulus4.png,TMTstop-A_1_2redlinestimulus4.png,2,32,,,,,,,,,0,1,1,1,0,6,6,6,2,0,28.13041889993474,None,"['1', '2']",1,"[0.05096690007485449, 0.1575209000147879]",28.13041889993474,None,,001,2022_Feb_02_1550,TMTAstop-A,2021.2.3,132.0557382767548,
TMTstop-A_1_2.xlsx,26:52,8,['1'],1,TMTstop-A_1_2linestimulus5.png,TMTstop-A_1_2greenlinestimulus5.png,TMTstop-A_1_2redlinestimulus5.png,2,33,,,,,,,,,0,1,1,1,0,7,7,7,2,0,28.393347800010815,None,"['3', '1']",1,"[-0.024109200108796358, 0.09360640007071197]",28.393347800010815,None,,001,2022_Feb_02_1550,TMTAstop-A,2021.2.3,132.0557382767548,
TMTstop-A_1_2.xlsx,26:52,9,['2'],2,TMTstop-A_1_2linestimulus6.png,TMTstop-A_1_2greenlinestimulus6.png,TMTstop-A_1_2redlinestimulus6.png,2,34,,,,,,,,,0,1,1,1,0,8,8,8,2,0,28.588627899996936,None,"['1', '2']",1,"[0.2634978999849409, 0.2821498999837786]",28.588627899996936,None,,001,2022_Feb_02_1550,TMTAstop-A,2021.2.3,132.0557382767548,
TMTstop-A_1_2.xlsx,26:52,10,['3'],3,TMTstop-A_1_2linestimulus7.png,TMTstop-A_1_2greenlinestimulus7.png,TMTstop-A_1_2redlinestimulus7.png,2,35,,,,,,,,,0,1,1,1,0,9,9,9,1,1,28.96262750006281,None,['3'],1,[0.0749963999260217],28.96262750006281,None,,001,2022_Feb_02_1550,TMTAstop-A,2021.2.3,132.0557382767548,
TMTstop-A_1_2.xlsx,26:52,11,['1'],1,TMTstop-A_1_2linestimulus8.png,TMTstop-A_1_2greenlinestimulus8.png,TMTstop-A_1_2redlinestimulus8.png,2,36,,,,,,,,,0,1,1,1,0,10,10,10,1,1,29.108657400123775,None,['1'],1,[0.08258099993690848],29.108657400123775,None,,001,2022_Feb_02_1550,TMTAstop-A,2021.2.3,132.0557382767548,
TMTstop-A_1_2.xlsx,26:52,12,['2'],2,TMTstop-A_1_2linestimulus9.png,TMTstop-A_1_2greenlinestimulus9.png,TMTstop-A_1_2redlinestimulus9.png,2,37,,,,,,,,,0,1,1,1,0,11,11,11,1,1,29.261279500089586,None,['2'],1,[0.06367160007357597],29.261279500089586,None,,001,2022_Feb_02_1550,TMTAstop-A,2021.2.3,132.0557382767548,
TMTstop-A_1_2.xlsx,26:52,13,['3'],3,TMTstop-A_1_2linestimulus10.png,TMTstop-A_1_2greenlinestimulus10.png,TMTstop-A_1_2redlinestimulus10.png,2,38,,,,,,,,,0,1,1,1,0,12,12,12,1,1,29.401072300039232,None,['3'],1,[-0.03570189978927374],29.401072300039232,None,,001,2022_Feb_02_1550,TMTAstop-A,2021.2.3,132.0557382767548,
TMTstop-A_1_2.xlsx,26:52,14,['1'],1,TMTstop-A_1_2linestimulus11.png,TMTstop-A_1_2greenlinestimulus11.png,TMTstop-A_1_2redlinestimulus11.png,2,39,,,,,,,,,0,1,1,1,0,13,13,13,1,1,29.476577199995518,None,['1'],1,[0.04939580010250211],29.476577199995518,None,,001,2022_Feb_02_1550,TMTAstop-A,2021.2.3,132.0557382767548,
TMTstop-A_1_2.xlsx,26:52,15,['3'],3,TMTstop-A_1_2linestimulus12.png,TMTstop-A_1_2greenlinestimulus12.png,TMTstop-A_1_2redlinestimulus12.png,2,40,,,,,,,,,0,1,1,1,0,14,14,14,2,0,29.594788999995217,None,"['2', '3']",1,"[0.007973199943080544, 0.10180529998615384]",29.594788999995217,None,,001,2022_Feb_02_1550,TMTAstop-A,2021.2.3,132.0557382767548,
TMTstop-A_1_2.xlsx,26:52,16,['1'],1,TMTstop-A_1_2linestimulus13.png,TMTstop-A_1_2greenlinestimulus13.png,TMTstop-A_1_2redlinestimulus13.png,2,41,,,,,,,,,0,1,1,1,0,15,15,15,1,1,29.811198600102216,None,['1'],1,[0.013499499997124076],29.811198600102216,None,,001,2022_Feb_02_1550,TMTAstop-A,2021.2.3,132.0557382767548,
TMTstop-A_1_2.xlsx,26:52,17,['2'],2,TMTstop-A_1_2linestimulus14.png,TMTstop-A_1_2greenlinestimulus14.png,TMTstop-A_1_2redlinestimulus14.png,2,42,,,,,,,,,0,1,1,1,0,16,16,16,1,1,29.91049319994636,None,['2'],1,[0.008432100061327219],29.91049319994636,None,,001,2022_Feb_02_1550,TMTAstop-A,2021.2.3,132.0557382767548,
TMTstop-A_1_2.xlsx,26:52,18,['1'],1,TMTstop-A_1_2linestimulus15.png,TMTstop-A_1_2greenlinestimulus15.png,TMTstop-A_1_2redlinestimulus15.png,2,43,,,,,,,,,0,1,1,1,0,17,17,17,2,0,29.990918500116095,None,"['3', '1']",1,"[0.03542679990641773, 0.16528509999625385]",29.990918500116095,None,,001,2022_Feb_02_1550,TMTAstop-A,2021.2.3,132.0557382767548,
TMTstop-A_1_2.xlsx,26:52,19,['3'],3,TMTstop-A_1_2linestimulus16.png,TMTstop-A_1_2greenlinestimulus16.png,TMTstop-A_1_2redlinestimulus16.png,2,44,,,,,,,,,0,1,1,1,0,18,18,18,2,0,30.234057599911466,None,"['2', '3']",1,"[-0.00794910010881722, 0.11989640002138913]",30.234057599911466,None,,001,2022_Feb_02_1550,TMTAstop-A,2021.2.3,132.0557382767548,
TMTstop-A_1_2.xlsx,26:52,20,['1'],1,TMTstop-A_1_2linestimulus17.png,TMTstop-A_1_2greenlinestimulus17.png,TMTstop-A_1_2redlinestimulus17.png,2,45,,,,,,,,,0,1,1,1,0,19,19,19,1,1,30.435324900085106,None,['1'],1,[0.05722409998998046],30.435324900085106,None,,001,2022_Feb_02_1550,TMTAstop-A,2021.2.3,132.0557382767548,
TMTstop-A_1_2.xlsx,26:52,21,['2'],2,TMTstop-A_1_2linestimulus18.png,TMTstop-A_1_2greenlinestimulus18.png,TMTstop-A_1_2redlinestimulus18.png,2,46,,,,,,,,,0,1,1,1,0,20,20,20,1,1,30.5745008001104,None,['2'],1,[-0.017701599979773164],30.5745008001104,None,,001,2022_Feb_02_1550,TMTAstop-A,2021.2.3,132.0557382767548,
TMTstop-A_1_2.xlsx,26:52,22,['1'],1,TMTstop-A_1_2linestimulus19.png,TMTstop-A_1_2greenlinestimulus19.png,TMTstop-A_1_2redlinestimulus19.png,2,47,,,,,,,,,0,1,1,1,0,21,21,21,2,0,30.650655900128186,None,"['3', '1']",1,"[0.05337160010822117, 0.18523689988069236]",30.650655900128186,None,,001,2022_Feb_02_1550,TMTAstop-A,2021.2.3,132.0557382767548,
TMTstop-A_1_2.xlsx,26:52,23,['2'],2,TMTstop-A_1_2linestimulus20.png,TMTstop-A_1_2greenlinestimulus20.png,TMTstop-A_1_2redlinestimulus20.png,2,48,,,,,,,,,0,1,1,1,0,22,22,22,1,1,30.948756699915975,None,['2'],1,[-0.06770920008420944],30.948756699915975,None,,001,2022_Feb_02_1550,TMTAstop-A,2021.2.3,132.0557382767548,
TMTstop-A_1_2.xlsx,26:52,24,['1'],1,TMTstop-A_1_2linestimulus21.png,TMTstop-A_1_2greenlinestimulus21.png,TMTstop-A_1_2redlinestimulus21.png,2,49,,,,,,,,,0,1,1,1,0,23,23,23,2,0,31.02507340000011,None,"['3', '1']",1,"[0.0009604000952094793, 0.10011680005118251]",31.02507340000011,None,,001,2022_Feb_02_1550,TMTAstop-A,2021.2.3,132.0557382767548,
TMTstop-A_1_2.xlsx,26:52,25,['2'],2,TMTstop-A_1_2linestimulus22.png,TMTstop-A_1_2greenlinestimulus22.png,TMTstop-A_1_2redlinestimulus22.png,2,50,,,,,,,,,0,1,1,1,0,24,24,24,1,1,31.234411099925637,None,['2'],1,[0.027747199870646],31.234411099925637,None,,001,2022_Feb_02_1550,TMTAstop-A,2021.2.3,132.0557382767548,
TMTstop-A_1_2.xlsx,26:52,None,None,None,TMTstop-A_1_2linestimulus23.png,TMTstop-A_1_2greenlinestimulus23.png,TMTstop-A_1_2redlinestimulus23.png,2,Feedback_last,,,,,,,,,0,1,1,1,0,25,25,25,1,1,31.344774400116876,None,['3'],0,[0.06302840006537735],31.344774400116876,None,,001,2022_Feb_02_1550,TMTAstop-A,2021.2.3,132.0557382767548,
TMTstop-A_1_3.xlsx,52:78,1,['2'],2,TMTstop-A_1_3.png,TMTstop-A_1_3.png,TMTstop-A_1_3.png,3,51,,,,,,,,,0,2,2,2,0,0,0,0,2,0,35.49021470011212,None,"['1', '2']",1,"[0.459080999949947, 0.5601296999957412]",35.49021470011212,None,,001,2022_Feb_02_1550,TMTAstop-A,2021.2.3,132.0557382767548,
TMTstop-A_1_3.xlsx,52:78,2,['1'],1,TMTstop-A_1_3.png,TMTstop-A_1_3firstgreen.png,TMTstop-A_1_3firstred.png,3,52,,,,,,,,,0,2,2,2,0,1,1,1,2,0,36.149907199898735,None,"['3', '1']",1,"[0.006711099995300174, 0.14549399982206523]",36.149907199898735,None,,001,2022_Feb_02_1550,TMTAstop-A,2021.2.3,132.0557382767548,
TMTstop-A_1_3.xlsx,52:78,3,['3'],3,TMTstop-A_1_3linestimulus0.png,TMTstop-A_1_3greenlinestimulus0.png,TMTstop-A_1_3redlinestimulus0.png,3,53,,,,,,,,,0,2,2,2,0,2,2,2,2,0,36.4030770000536,None,"['2', '3']",1,"[-0.04345080000348389, 0.06469959998503327]",36.4030770000536,None,,001,2022_Feb_02_1550,TMTAstop-A,2021.2.3,132.0557382767548,
TMTstop-A_1_3.xlsx,52:78,4,['2'],2,TMTstop-A_1_3linestimulus1.png,TMTstop-A_1_3greenlinestimulus1.png,TMTstop-A_1_3redlinestimulus1.png,3,54,,,,,,,,,0,2,2,2,0,3,3,3,2,0,36.56019619992003,None,"['1', '2']",1,"[0.03499999991618097, 0.11443140008486807]",36.56019619992003,None,,001,2022_Feb_02_1550,TMTAstop-A,2021.2.3,132.0557382767548,
TMTstop-A_1_3.xlsx,52:78,5,['3'],3,TMTstop-A_1_3linestimulus2.png,TMTstop-A_1_3greenlinestimulus2.png,TMTstop-A_1_3redlinestimulus2.png,3,55,,,,,,,,,0,2,2,2,0,4,4,4,1,1,36.747138400096446,None,['3'],1,[0.031591800041496754],36.747138400096446,None,,001,2022_Feb_02_1550,TMTAstop-A,2021.2.3,132.0557382767548,
TMTstop-A_1_3.xlsx,52:78,6,['2'],2,TMTstop-A_1_3linestimulus3.png,TMTstop-A_1_3greenlinestimulus3.png,TMTstop-A_1_3redlinestimulus3.png,3,56,,,,,,,,,0,2,2,2,0,5,5,5,2,0,36.85398879996501,None,"['1', '2']",1,"[0.039179799845442176, 0.1360063999891281]",36.85398879996501,None,,001,2022_Feb_02_1550,TMTAstop-A,2021.2.3,132.0557382767548,
TMTstop-A_1_3.xlsx,52:78,7,['1'],1,TMTstop-A_1_3linestimulus4.png,TMTstop-A_1_3greenlinestimulus4.png,TMTstop-A_1_3redlinestimulus4.png,3,57,,,,,,,,,0,2,2,2,0,6,6,6,2,0,37.09024209994823,None,"['3', '1']",1,"[-0.015958299860358238, 0.12006149999797344]",37.09024209994823,None,,001,2022_Feb_02_1550,TMTAstop-A,2021.2.3,132.0557382767548,
TMTstop-A_1_3.xlsx,52:78,8,['2'],2,TMTstop-A_1_3linestimulus5.png,TMTstop-A_1_3greenlinestimulus5.png,TMTstop-A_1_3redlinestimulus5.png,3,58,,,,,,,,,0,2,2,2,0,7,7,7,1,1,37.29613299993798,None,['2'],1,[0.0010726000182330608],37.29613299993798,None,,001,2022_Feb_02_1550,TMTAstop-A,2021.2.3,132.0557382767548,
TMTstop-A_1_3.xlsx,52:78,9,['3'],3,TMTstop-A_1_3linestimulus6.png,TMTstop-A_1_3greenlinestimulus6.png,TMTstop-A_1_3redlinestimulus6.png,3,59,,,,,,,,,0,2,2,2,0,8,8,8,1,1,37.365379499970004,None,['3'],1,[0.02436510007828474],37.365379499970004,None,,001,2022_Feb_02_1550,TMTAstop-A,2021.2.3,132.0557382767548,
TMTstop-A_1_3.xlsx,52:78,10,['2'],2,TMTstop-A_1_3linestimulus7.png,TMTstop-A_1_3greenlinestimulus7.png,TMTstop-A_1_3redlinestimulus7.png,3,60,,,,,,,,,0,2,2,2,0,9,9,9,2,0,37.47518919990398,None,"['1', '2']",1,"[0.05157039989717305, 0.13249449990689754]",37.47518919990398,None,,001,2022_Feb_02_1550,TMTAstop-A,2021.2.3,132.0557382767548,
TMTstop-A_1_3.xlsx,52:78,11,['3'],3,TMTstop-A_1_3linestimulus8.png,TMTstop-A_1_3greenlinestimulus8.png,TMTstop-A_1_3redlinestimulus8.png,3,61,,,,,,,,,0,2,2,2,0,10,10,10,1,1,37.691789200063795,None,['3'],1,[0.008410699898377061],37.691789200063795,None,,001,2022_Feb_02_1550,TMTAstop-A,2021.2.3,132.0557382767548,
TMTstop-A_1_3.xlsx,52:78,12,['2'],2,TMTstop-A_1_3linestimulus9.png,TMTstop-A_1_3greenlinestimulus9.png,TMTstop-A_1_3redlinestimulus9.png,3,62,,,,,,,,,0,2,2,2,0,11,11,11,2,0,37.77924140007235,None,"['1', '2']",1,"[0.04966639983467758, 0.1315222999546677]",37.77924140007235,None,,001,2022_Feb_02_1550,TMTAstop-A,2021.2.3,132.0557382767548,
TMTstop-A_1_3.xlsx,52:78,13,['1'],1,TMTstop-A_1_3linestimulus10.png,TMTstop-A_1_3greenlinestimulus10.png,TMTstop-A_1_3redlinestimulus10.png,3,63,,,,,,,,,0,2,2,2,0,12,12,12,2,0,38.02507510012947,None,"['3', '1']",1,"[-0.031011200044304132, 0.10170459980145097]",38.02507510012947,None,,001,2022_Feb_02_1550,TMTAstop-A,2021.2.3,132.0557382767548,
TMTstop-A_1_3.xlsx,52:78,14,['2'],2,TMTstop-A_1_3linestimulus11.png,TMTstop-A_1_3greenlinestimulus11.png,TMTstop-A_1_3redlinestimulus11.png,3,64,,,,,,,,,0,2,2,2,0,13,13,13,1,1,38.248944099992514,None,['2'],1,[-0.04015899985097349],38.248944099992514,None,,001,2022_Feb_02_1550,TMTAstop-A,2021.2.3,132.0557382767548,
TMTstop-A_1_3.xlsx,52:78,15,['1'],1,TMTstop-A_1_3linestimulus12.png,TMTstop-A_1_3greenlinestimulus12.png,TMTstop-A_1_3redlinestimulus12.png,3,65,,,,,,,,,0,2,2,2,0,14,14,14,2,0,38.33177560009062,None,"['3', '1']",1,"[-0.003998900065198541, 0.12010349985212088]",38.33177560009062,None,,001,2022_Feb_02_1550,TMTAstop-A,2021.2.3,132.0557382767548,
TMTstop-A_1_3.xlsx,52:78,16,['2'],2,TMTstop-A_1_3linestimulus13.png,TMTstop-A_1_3greenlinestimulus13.png,TMTstop-A_1_3redlinestimulus13.png,3,66,,,,,,,,,0,2,2,2,0,15,15,15,1,1,38.56050859997049,None,['2'],1,[-0.021983100101351738],38.56050859997049,None,,001,2022_Feb_02_1550,TMTAstop-A,2021.2.3,132.0557382767548,
TMTstop-A_1_3.xlsx,52:78,17,['3'],3,TMTstop-A_1_3linestimulus14.png,TMTstop-A_1_3greenlinestimulus14.png,TMTstop-A_1_3redlinestimulus14.png,3,67,,,,,,,,,0,2,2,2,0,16,16,16,1,1,38.636232200078666,None,['3'],1,[0.00808540009893477],38.636232200078666,None,,001,2022_Feb_02_1550,TMTAstop-A,2021.2.3,132.0557382767548,
TMTstop-A_1_3.xlsx,52:78,18,['2'],2,TMTstop-A_1_3linestimulus15.png,TMTstop-A_1_3greenlinestimulus15.png,TMTstop-A_1_3redlinestimulus15.png,3,68,,,,,,,,,0,2,2,2,0,17,17,17,2,0,38.71950070001185,None,"['1', '2']",1,"[0.0608811997808516, 0.16518149990588427]",38.71950070001185,None,,001,2022_Feb_02_1550,TMTAstop-A,2021.2.3,132.0557382767548,
TMTstop-A_1_3.xlsx,52:78,19,['1'],1,TMTstop-A_1_3linestimulus16.png,TMTstop-A_1_3greenlinestimulus16.png,TMTstop-A_1_3redlinestimulus16.png,3,69,,,,,,,,,0,2,2,2,0,18,18,18,2,0,38.9764664999675,None,"['3', '1']",1,"[0.010620499961078167, 0.13332150015048683]",38.9764664999675,None,,001,2022_Feb_02_1550,TMTAstop-A,2021.2.3,132.0557382767548,
TMTstop-A_1_3.xlsx,52:78,20,['2'],2,TMTstop-A_1_3linestimulus17.png,TMTstop-A_1_3greenlinestimulus17.png,TMTstop-A_1_3redlinestimulus17.png,3,70,,,,,,,,,0,2,2,2,0,19,19,19,1,1,39.19146310002543,None,['2'],1,[0.005753600038588047],39.19146310002543,None,,001,2022_Feb_02_1550,TMTAstop-A,2021.2.3,132.0557382767548,
TMTstop-A_1_3.xlsx,52:78,21,['3'],3,TMTstop-A_1_3linestimulus18.png,TMTstop-A_1_3greenlinestimulus18.png,TMTstop-A_1_3redlinestimulus18.png,3,71,,,,,,,,,0,2,2,2,0,20,20,20,1,1,39.28272860008292,None,['3'],1,[0.018837600015103817],39.28272860008292,None,,001,2022_Feb_02_1550,TMTAstop-A,2021.2.3,132.0557382767548,
TMTstop-A_1_3.xlsx,52:78,22,['1'],1,TMTstop-A_1_3linestimulus19.png,TMTstop-A_1_3greenlinestimulus19.png,TMTstop-A_1_3redlinestimulus19.png,3,72,,,,,,,,,0,2,2,2,0,21,21,21,1,1,39.38128500012681,None,['1'],1,[0.041967299999669194],39.38128500012681,None,,001,2022_Feb_02_1550,TMTAstop-A,2021.2.3,132.0557382767548,
TMTstop-A_1_3.xlsx,52:78,23,['3'],3,TMTstop-A_1_3linestimulus20.png,TMTstop-A_1_3greenlinestimulus20.png,TMTstop-A_1_3redlinestimulus20.png,3,73,,,,,,,,,0,2,2,2,0,22,22,22,2,0,39.50409219996072,None,"['2', '3']",1,"[0.014761100057512522, 0.11324189999140799]",39.50409219996072,None,,001,2022_Feb_02_1550,TMTAstop-A,2021.2.3,132.0557382767548,
TMTstop-A_1_3.xlsx,52:78,24,['1'],1,TMTstop-A_1_3linestimulus21.png,TMTstop-A_1_3greenlinestimulus21.png,TMTstop-A_1_3redlinestimulus21.png,3,74,,,,,,,,,0,2,2,2,0,23,23,23,1,1,39.73330039996654,None,['1'],1,[0.004483300028368831],39.73330039996654,None,,001,2022_Feb_02_1550,TMTAstop-A,2021.2.3,132.0557382767548,
TMTstop-A_1_3.xlsx,52:78,25,['3'],3,TMTstop-A_1_3linestimulus22.png,TMTstop-A_1_3greenlinestimulus22.png,TMTstop-A_1_3redlinestimulus22.png,3,75,,,,,,,,,0,2,2,2,0,24,24,24,2,0,39.82413300010376,None,"['2', '3']",1,"[0.05418199999257922, 0.1611237998586148]",39.82413300010376,None,,001,2022_Feb_02_1550,TMTAstop-A,2021.2.3,132.0557382767548,
TMTstop-A_1_3.xlsx,52:78,None,None,None,TMTstop-A_1_3linestimulus23.png,TMTstop-A_1_3greenlinestimulus23.png,TMTstop-A_1_3redlinestimulus23.png,3,Feedback_last,,,,,,,,,0,2,2,2,0,25,25,25,3,0,40.08068159990944,None,"['1', '2', '3']",0,"[0.04695179988630116, 0.12986629991792142, 0.2888950000051409]",40.08068159990944,None,,001,2022_Feb_02_1550,TMTAstop-A,2021.2.3,132.0557382767548,
TMTstop-A_1_4.xlsx,78:104,1,['3'],3,TMTstop-A_1_4.png,TMTstop-A_1_4.png,TMTstop-A_1_4.png,4,76,,,,,,,,,0,3,3,3,0,0,0,0,3,0,44.21210850006901,None,"['1', '2', '3']",1,"[0.3253035000525415, 0.36263770004734397, 0.5128739001229405]",44.21210850006901,None,,001,2022_Feb_02_1550,TMTAstop-A,2021.2.3,132.0557382767548,
TMTstop-A_1_4.xlsx,78:104,2,['1'],1,TMTstop-A_1_4.png,TMTstop-A_1_4firstgreen.png,TMTstop-A_1_4firstred.png,4,77,,,,,,,,,0,3,3,3,0,1,1,1,1,1,44.79603490000591,None,['1'],1,[0.07674499996937811],44.79603490000591,None,,001,2022_Feb_02_1550,TMTAstop-A,2021.2.3,132.0557382767548,
TMTstop-A_1_4.xlsx,78:104,3,['3'],3,TMTstop-A_1_4linestimulus0.png,TMTstop-A_1_4greenlinestimulus0.png,TMTstop-A_1_4redlinestimulus0.png,4,78,,,,,,,,,0,3,3,3,0,2,2,2,2,0,44.94843240012415,None,"['2', '3']",1,"[0.0014830001164227724, 0.10274200001731515]",44.94843240012415,None,,001,2022_Feb_02_1550,TMTAstop-A,2021.2.3,132.0557382767548,
TMTstop-A_1_4.xlsx,78:104,4,['1'],1,TMTstop-A_1_4linestimulus1.png,TMTstop-A_1_4greenlinestimulus1.png,TMTstop-A_1_4redlinestimulus1.png,4,79,,,,,,,,,0,3,3,3,0,3,3,3,1,1,45.15746699995361,None,['1'],1,[0.013714400120079517],45.15746699995361,None,,001,2022_Feb_02_1550,TMTAstop-A,2021.2.3,132.0557382767548,
TMTstop-A_1_4.xlsx,78:104,5,['2'],2,TMTstop-A_1_4linestimulus2.png,TMTstop-A_1_4greenlinestimulus2.png,TMTstop-A_1_4redlinestimulus2.png,4,80,,,,,,,,,0,3,3,3,0,4,4,4,1,1,45.24786130012944,None,['2'],1,[0.008385299937799573],45.24786130012944,None,,001,2022_Feb_02_1550,TMTAstop-A,2021.2.3,132.0557382767548,
TMTstop-A_1_4.xlsx,78:104,6,['3'],3,TMTstop-A_1_4linestimulus3.png,TMTstop-A_1_4greenlinestimulus3.png,TMTstop-A_1_4redlinestimulus3.png,4,81,,,,,,,,,0,3,3,3,0,5,5,5,1,1,45.34168549999595,None,['3'],1,[-0.01554980012588203],45.34168549999595,None,,001,2022_Feb_02_1550,TMTAstop-A,2021.2.3,132.0557382767548,
TMTstop-A_1_4.xlsx,78:104,7,['2'],2,TMTstop-A_1_4linestimulus4.png,TMTstop-A_1_4greenlinestimulus4.png,TMTstop-A_1_4redlinestimulus4.png,4,82,,,,,,,,,0,3,3,3,0,6,6,6,2,0,45.41805940004997,None,"['1', '2']",1,"[0.031255500158295035, 0.12929369998164475]",45.41805940004997,None,,001,2022_Feb_02_1550,TMTAstop-A,2021.2.3,132.0557382767548,
TMTstop-A_1_4.xlsx,78:104,8,['3'],3,TMTstop-A_1_4linestimulus5.png,TMTstop-A_1_4greenlinestimulus5.png,TMTstop-A_1_4redlinestimulus5.png,4,83,,,,,,,,,0,3,3,3,0,7,7,7,1,1,45.65111520001665,None,['3'],1,[-0.028265499975532293],45.65111520001665,None,,001,2022_Feb_02_1550,TMTAstop-A,2021.2.3,132.0557382767548,
TMTstop-A_1_4.xlsx,78:104,9,['1'],1,TMTstop-A_1_4linestimulus6.png,TMTstop-A_1_4greenlinestimulus6.png,TMTstop-A_1_4redlinestimulus6.png,4,84,,,,,,,,,0,3,3,3,0,8,8,8,1,1,45.722630199976265,None,['1'],1,[0.029757400043308735],45.722630199976265,None,,001,2022_Feb_02_1550,TMTAstop-A,2021.2.3,132.0557382767548,
TMTstop-A_1_4.xlsx,78:104,10,['2'],2,TMTstop-A_1_4linestimulus7.png,TMTstop-A_1_4greenlinestimulus7.png,TMTstop-A_1_4redlinestimulus7.png,4,85,,,,,,,,,0,3,3,3,0,9,9,9,1,1,45.823478900128976,None,['2'],1,[0.012130399933084846],45.823478900128976,None,,001,2022_Feb_02_1550,TMTAstop-A,2021.2.3,132.0557382767548,
TMTstop-A_1_4.xlsx,78:104,11,['3'],3,TMTstop-A_1_4linestimulus8.png,TMTstop-A_1_4greenlinestimulus8.png,TMTstop-A_1_4redlinestimulus8.png,4,86,,,,,,,,,0,3,3,3,0,10,10,10,1,1,45.90715879993513,None,['3'],1,[0.035239099990576506],45.90715879993513,None,,001,2022_Feb_02_1550,TMTAstop-A,2021.2.3,132.0557382767548,
TMTstop-A_1_4.xlsx,78:104,12,['1'],1,TMTstop-A_1_4linestimulus9.png,TMTstop-A_1_4greenlinestimulus9.png,TMTstop-A_1_4redlinestimulus9.png,4,87,,,,,,,,,0,3,3,3,0,11,11,11,1,1,46.01923119998537,None,['1'],1,[0.06409480003640056],46.01923119998537,None,,001,2022_Feb_02_1550,TMTAstop-A,2021.2.3,132.0557382767548,
TMTstop-A_1_4.xlsx,78:104,13,['2'],2,TMTstop-A_1_4linestimulus10.png,TMTstop-A_1_4greenlinestimulus10.png,TMTstop-A_1_4redlinestimulus10.png,4,88,,,,,,,,,0,3,3,3,0,12,12,12,1,1,46.16374589991756,None,['2'],1,[-0.018436499871313572],46.16374589991756,None,,001,2022_Feb_02_1550,TMTAstop-A,2021.2.3,132.0557382767548,
TMTstop-A_1_4.xlsx,78:104,14,['1'],1,TMTstop-A_1_4linestimulus11.png,TMTstop-A_1_4greenlinestimulus11.png,TMTstop-A_1_4redlinestimulus11.png,4,89,,,,,,,,,0,3,3,3,0,13,13,13,2,0,46.23406650009565,None,"['3', '1']",1,"[0.040017500054091215, 0.20582049991935492]",46.23406650009565,None,,001,2022_Feb_02_1550,TMTAstop-A,2021.2.3,132.0557382767548,
TMTstop-A_1_4.xlsx,78:104,15,['2'],2,TMTstop-A_1_4linestimulus12.png,TMTstop-A_1_4greenlinestimulus12.png,TMTstop-A_1_4redlinestimulus12.png,4,90,,,,,,,,,0,3,3,3,0,14,14,14,1,1,46.55308740003966,None,['2'],1,[-0.049991399981081486],46.55308740003966,None,,001,2022_Feb_02_1550,TMTAstop-A,2021.2.3,132.0557382767548,
TMTstop-A_1_4.xlsx,78:104,16,['3'],3,TMTstop-A_1_4linestimulus13.png,TMTstop-A_1_4greenlinestimulus13.png,TMTstop-A_1_4redlinestimulus13.png,4,91,,,,,,,,,0,3,3,3,0,15,15,15,1,1,46.62202040012926,None,['3'],1,[0.006485899910330772],46.62202040012926,None,,001,2022_Feb_02_1550,TMTAstop-A,2021.2.3,132.0557382767548,
TMTstop-A_1_4.xlsx,78:104,17,['1'],1,TMTstop-A_1_4linestimulus14.png,TMTstop-A_1_4greenlinestimulus14.png,TMTstop-A_1_4redlinestimulus14.png,4,92,,,,,,,,,0,3,3,3,0,16,16,16,1,1,46.71645399997942,None,['1'],1,[0.0380812999792397],46.71645399997942,None,,001,2022_Feb_02_1550,TMTAstop-A,2021.2.3,132.0557382767548,
TMTstop-A_1_4.xlsx,78:104,18,['2'],2,TMTstop-A_1_4linestimulus15.png,TMTstop-A_1_4greenlinestimulus15.png,TMTstop-A_1_4redlinestimulus15.png,4,93,,,,,,,,,0,3,3,3,0,17,17,17,1,1,46.82348869997077,None,['2'],1,[3.50000336766243e-05],46.82348869997077,None,,001,2022_Feb_02_1550,TMTAstop-A,2021.2.3,132.0557382767548,
TMTstop-A_1_4.xlsx,78:104,19,['1'],1,TMTstop-A_1_4linestimulus16.png,TMTstop-A_1_4greenlinestimulus16.png,TMTstop-A_1_4redlinestimulus16.png,4,94,,,,,,,,,0,3,3,3,0,18,18,18,2,0,46.893631499959156,None,"['3', '1']",1,"[0.04895640001632273, 0.17883970006369054]",46.893631499959156,None,,001,2022_Feb_02_1550,TMTAstop-A,2021.2.3,132.0557382767548,
TMTstop-A_1_4.xlsx,78:104,20,['3'],3,TMTstop-A_1_4linestimulus17.png,TMTstop-A_1_4greenlinestimulus17.png,TMTstop-A_1_4redlinestimulus17.png,4,95,,,,,,,,,0,3,3,3,0,19,19,19,2,0,47.14976050006226,None,"['2', '3']",1,"[0.012808199971914291, 0.11411239998415112]",47.14976050006226,None,,001,2022_Feb_02_1550,TMTAstop-A,2021.2.3,132.0557382767548,
TMTstop-A_1_4.xlsx,78:104,21,['1'],1,TMTstop-A_1_4linestimulus18.png,TMTstop-A_1_4greenlinestimulus18.png,TMTstop-A_1_4redlinestimulus18.png,4,96,,,,,,,,,0,3,3,3,0,20,20,20,1,1,47.36508679995313,None,['1'],1,[0.017715400084853172],47.36508679995313,None,,001,2022_Feb_02_1550,TMTAstop-A,2021.2.3,132.0557382767548,
TMTstop-A_1_4.xlsx,78:104,22,['3'],3,TMTstop-A_1_4linestimulus19.png,TMTstop-A_1_4greenlinestimulus19.png,TMTstop-A_1_4redlinestimulus19.png,4,97,,,,,,,,,0,3,3,3,0,21,21,21,2,0,47.45542149990797,None,"['2', '3']",1,"[0.007710499921813607, 0.15120669989846647]",47.45542149990797,None,,001,2022_Feb_02_1550,TMTAstop-A,2021.2.3,132.0557382767548,
TMTstop-A_1_4.xlsx,78:104,23,['2'],2,TMTstop-A_1_4linestimulus20.png,TMTstop-A_1_4greenlinestimulus20.png,TMTstop-A_1_4redlinestimulus20.png,4,98,,,,,,,,,0,3,3,3,0,22,22,22,2,0,47.71523440000601,None,"['1', '2']",1,"[-0.009986500022932887, 0.06730160000734031]",47.71523440000601,None,,001,2022_Feb_02_1550,TMTAstop-A,2021.2.3,132.0557382767548,
TMTstop-A_1_4.xlsx,78:104,24,['3'],3,TMTstop-A_1_4linestimulus21.png,TMTstop-A_1_4greenlinestimulus21.png,TMTstop-A_1_4redlinestimulus21.png,4,99,,,,,,,,,0,3,3,3,0,23,23,23,1,1,47.873027000110596,None,['3'],1,[0.045501499902457],47.873027000110596,None,,001,2022_Feb_02_1550,TMTAstop-A,2021.2.3,132.0557382767548,
TMTstop-A_1_4.xlsx,78:104,25,['2'],2,TMTstop-A_1_4linestimulus22.png,TMTstop-A_1_4greenlinestimulus22.png,TMTstop-A_1_4redlinestimulus22.png,4,100,,,,,,,,,0,3,3,3,0,24,24,24,3,0,47.990131499944255,None,"['1', '1', '2']",1,"[0.09506489988416433, 0.5862433000002056, 0.6220370999071747]",47.990131499944255,None,,001,2022_Feb_02_1550,TMTAstop-A,2021.2.3,132.0557382767548,
TMTstop-A_1_4.xlsx,78:104,None,None,None,TMTstop-A_1_4linestimulus23.png,TMTstop-A_1_4greenlinestimulus23.png,TMTstop-A_1_4redlinestimulus23.png,4,Feedback_last,,,,,,,,,0,3,3,3,0,25,25,25,1,1,48.727223499910906,None,['3'],0,[0.008375900099053979],48.727223499910906,None,,001,2022_Feb_02_1550,TMTAstop-A,2021.2.3,132.0557382767548,
TMTstop-A_1_5.xlsx,104:130,1,['2'],2,TMTstop-A_1_5.png,TMTstop-A_1_5.png,TMTstop-A_1_5.png,5,101,,,,,,,,,0,4,4,4,0,0,0,0,2,0,52.82980659999885,None,"['1', '2']",1,"[0.4107488999143243, 0.5286353998817503]",52.82980659999885,None,,001,2022_Feb_02_1550,TMTAstop-A,2021.2.3,132.0557382767548,
TMTstop-A_1_5.xlsx,104:130,2,['1'],1,TMTstop-A_1_5.png,TMTstop-A_1_5firstgreen.png,TMTstop-A_1_5firstred.png,5,102,,,,,,,,,0,4,4,4,0,1,1,1,2,0,53.462218299973756,None,"['3', '1']",1,"[-0.014980999985709786, 0.12583369994536042]",53.462218299973756,None,,001,2022_Feb_02_1550,TMTAstop-A,2021.2.3,132.0557382767548,
TMTstop-A_1_5.xlsx,104:130,3,['3'],3,TMTstop-A_1_5linestimulus0.png,TMTstop-A_1_5greenlinestimulus0.png,TMTstop-A_1_5redlinestimulus0.png,5,103,,,,,,,,,0,4,4,4,0,2,2,2,2,0,53.698820899939165,None,"['2', '3']",1,"[-0.04169810004532337, 0.04785749991424382]",53.698820899939165,None,,001,2022_Feb_02_1550,TMTAstop-A,2021.2.3,132.0557382767548,
TMTstop-A_1_5.xlsx,104:130,4,['2'],2,TMTstop-A_1_5linestimulus1.png,TMTstop-A_1_5greenlinestimulus1.png,TMTstop-A_1_5redlinestimulus1.png,5,104,,,,,,,,,0,4,4,4,0,3,3,3,2,0,53.851113700075075,None,"['1', '2']",1,"[0.02034120005555451, 0.08886740007437766]",53.851113700075075,None,,001,2022_Feb_02_1550,TMTAstop-A,2021.2.3,132.0557382767548,
TMTstop-A_1_5.xlsx,104:130,5,['3'],3,TMTstop-A_1_5linestimulus2.png,TMTstop-A_1_5greenlinestimulus2.png,TMTstop-A_1_5redlinestimulus2.png,5,105,,,,,,,,,0,4,4,4,0,4,4,4,1,1,54.02479639998637,None,['3'],1,[0.008292699931189418],54.02479639998637,None,,001,2022_Feb_02_1550,TMTAstop-A,2021.2.3,132.0557382767548,
TMTstop-A_1_5.xlsx,104:130,6,['1'],1,TMTstop-A_1_5linestimulus3.png,TMTstop-A_1_5greenlinestimulus3.png,TMTstop-A_1_5redlinestimulus3.png,5,106,,,,,,,,,0,4,4,4,0,5,5,5,1,1,54.1151092001237,None,['1'],1,[0.039501900086179376],54.1151092001237,None,,001,2022_Feb_02_1550,TMTAstop-A,2021.2.3,132.0557382767548,
TMTstop-A_1_5.xlsx,104:130,7,['3'],3,TMTstop-A_1_5linestimulus4.png,TMTstop-A_1_5greenlinestimulus4.png,TMTstop-A_1_5redlinestimulus4.png,5,107,,,,,,,,,0,4,4,4,0,6,6,6,2,0,54.23293840000406,None,"['2', '3']",1,"[-0.004968599881976843, 0.08776709996163845]",54.23293840000406,None,,001,2022_Feb_02_1550,TMTAstop-A,2021.2.3,132.0557382767548,
TMTstop-A_1_5.xlsx,104:130,8,['2'],2,TMTstop-A_1_5linestimulus5.png,TMTstop-A_1_5greenlinestimulus5.png,TMTstop-A_1_5redlinestimulus5.png,5,108,,,,,,,,,0,4,4,4,0,7,7,7,2,0,54.42733799992129,None,"['1', '2']",1,"[0.04442320019006729, 0.13153150002472103]",54.42733799992129,None,,001,2022_Feb_02_1550,TMTAstop-A,2021.2.3,132.0557382767548,
TMTstop-A_1_5.xlsx,104:130,9,['1'],1,TMTstop-A_1_5linestimulus6.png,TMTstop-A_1_5greenlinestimulus6.png,TMTstop-A_1_5redlinestimulus6.png,5,109,,,,,,,,,0,4,4,4,0,8,8,8,2,0,54.635524299927056,None,"['3', '1']",1,"[0.00518900016322732, 0.13217550003901124]",54.635524299927056,None,,001,2022_Feb_02_1550,TMTAstop-A,2021.2.3,132.0557382767548,
TMTstop-A_1_5.xlsx,104:130,10,['3'],3,TMTstop-A_1_5linestimulus7.png,TMTstop-A_1_5greenlinestimulus7.png,TMTstop-A_1_5redlinestimulus7.png,5,110,,,,,,,,,0,4,4,4,0,9,9,9,2,0,54.84391830000095,None,"['2', '3']",1,"[-0.019325600005686283, 0.07639539986848831]",54.84391830000095,None,,001,2022_Feb_02_1550,TMTAstop-A,2021.2.3,132.0557382767548,
TMTstop-A_1_5.xlsx,104:130,11,['2'],2,TMTstop-A_1_5linestimulus8.png,TMTstop-A_1_5greenlinestimulus8.png,TMTstop-A_1_5redlinestimulus8.png,5,111,,,,,,,,,0,4,4,4,0,10,10,10,2,0,54.99691469990648,None,"['1', '2']",1,"[0.04891510005109012, 0.14281159988604486]",54.99691469990648,None,,001,2022_Feb_02_1550,TMTAstop-A,2021.2.3,132.0557382767548,
TMTstop-A_1_5.xlsx,104:130,12,['3'],3,TMTstop-A_1_5linestimulus9.png,TMTstop-A_1_5greenlinestimulus9.png,TMTstop-A_1_5redlinestimulus9.png,5,112,,,,,,,,,0,4,4,4,0,11,11,11,1,1,55.255366099998355,None,['3'],1,[-0.032871900126338005],55.255366099998355,None,,001,2022_Feb_02_1550,TMTAstop-A,2021.2.3,132.0557382767548,
TMTstop-A_1_5.xlsx,104:130,13,['1'],1,TMTstop-A_1_5linestimulus10.png,TMTstop-A_1_5greenlinestimulus10.png,TMTstop-A_1_5redlinestimulus10.png,5,113,,,,,,,,,0,4,4,4,0,12,12,12,1,1,55.330489800078794,None,['1'],1,[0.0235856999643147],55.330489800078794,None,,001,2022_Feb_02_1550,TMTAstop-A,2021.2.3,132.0557382767548,
TMTstop-A_1_5.xlsx,104:130,14,['3'],3,TMTstop-A_1_5linestimulus11.png,TMTstop-A_1_5greenlinestimulus11.png,TMTstop-A_1_5redlinestimulus11.png,5,114,,,,,,,,,0,4,4,4,0,13,13,13,2,0,55.42744160001166,None,"['2', '3']",1,"[0.009219100000336766, 0.09658559993840754]",55.42744160001166,None,,001,2022_Feb_02_1550,TMTAstop-A,2021.2.3,132.0557382767548,
TMTstop-A_1_5.xlsx,104:130,15,['1'],1,TMTstop-A_1_5linestimulus12.png,TMTstop-A_1_5greenlinestimulus12.png,TMTstop-A_1_5redlinestimulus12.png,5,115,,,,,,,,,0,4,4,4,0,14,14,14,1,1,55.62868060008623,None,['1'],1,[0.02898310008458793],55.62868060008623,None,,001,2022_Feb_02_1550,TMTAstop-A,2021.2.3,132.0557382767548,
TMTstop-A_1_5.xlsx,104:130,16,['3'],3,TMTstop-A_1_5linestimulus13.png,TMTstop-A_1_5greenlinestimulus13.png,TMTstop-A_1_5redlinestimulus13.png,5,116,,,,,,,,,0,4,4,4,0,15,15,15,2,0,55.733295700047165,None,"['2', '3']",1,"[-0.01726810005493462, 0.10754600004293025]",55.733295700047165,None,,001,2022_Feb_02_1550,TMTAstop-A,2021.2.3,132.0557382767548,
TMTstop-A_1_5.xlsx,104:130,17,['2'],2,TMTstop-A_1_5linestimulus14.png,TMTstop-A_1_5greenlinestimulus14.png,TMTstop-A_1_5redlinestimulus14.png,5,117,,,,,,,,,0,4,4,4,0,16,16,16,2,0,55.93418539990671,None,"['1', '2']",1,"[0.036176899913698435, 0.09044759999960661]",55.93418539990671,None,,001,2022_Feb_02_1550,TMTAstop-A,2021.2.3,132.0557382767548,
TMTstop-A_1_5.xlsx,104:130,18,['1'],1,TMTstop-A_1_5linestimulus15.png,TMTstop-A_1_5greenlinestimulus15.png,TMTstop-A_1_5redlinestimulus15.png,5,118,,,,,,,,,0,4,4,4,0,17,17,17,2,0,56.12970119994134,None,"['3', '1']",1,"[0.003327700076624751, 0.141479599988088]",56.12970119994134,None,,001,2022_Feb_02_1550,TMTAstop-A,2021.2.3,132.0557382767548,
TMTstop-A_1_5.xlsx,104:130,19,['3'],3,TMTstop-A_1_5linestimulus16.png,TMTstop-A_1_5greenlinestimulus16.png,TMTstop-A_1_5redlinestimulus16.png,5,119,,,,,,,,,0,4,4,4,0,18,18,18,2,0,56.378627199912444,None,"['2', '3']",1,"[-0.057017199927940965, 0.07210809993557632]",56.378627199912444,None,,001,2022_Feb_02_1550,TMTAstop-A,2021.2.3,132.0557382767548,
TMTstop-A_1_5.xlsx,104:130,20,['1'],1,TMTstop-A_1_5linestimulus17.png,TMTstop-A_1_5greenlinestimulus17.png,TMTstop-A_1_5redlinestimulus17.png,5,120,,,,,,,,,0,4,4,4,0,19,19,19,1,1,56.53842319990508,None,['1'],1,[0.04332120018079877],56.53842319990508,None,,001,2022_Feb_02_1550,TMTAstop-A,2021.2.3,132.0557382767548,
TMTstop-A_1_5.xlsx,104:130,21,['2'],2,TMTstop-A_1_5linestimulus18.png,TMTstop-A_1_5greenlinestimulus18.png,TMTstop-A_1_5redlinestimulus18.png,5,121,,,,,,,,,0,4,4,4,0,20,20,20,1,1,56.65751289995387,None,['2'],1,[-0.0018277999479323626],56.65751289995387,None,,001,2022_Feb_02_1550,TMTAstop-A,2021.2.3,132.0557382767548,
TMTstop-A_1_5.xlsx,104:130,22,['3'],3,TMTstop-A_1_5linestimulus19.png,TMTstop-A_1_5greenlinestimulus19.png,TMTstop-A_1_5redlinestimulus19.png,5,122,,,,,,,,,0,4,4,4,0,21,21,21,1,1,56.73712279996835,None,['3'],1,[0.07360330014489591],56.73712279996835,None,,001,2022_Feb_02_1550,TMTAstop-A,2021.2.3,132.0557382767548,
TMTstop-A_1_5.xlsx,104:130,23,['2'],2,TMTstop-A_1_5linestimulus20.png,TMTstop-A_1_5greenlinestimulus20.png,TMTstop-A_1_5redlinestimulus20.png,5,123,,,,,,,,,0,4,4,4,0,22,22,22,2,0,56.892979100113735,None,"['1', '2']",1,"[0.051406199811026454, 0.11046199989505112]",56.892979100113735,None,,001,2022_Feb_02_1550,TMTAstop-A,2021.2.3,132.0557382767548,
TMTstop-A_1_5.xlsx,104:130,24,['3'],3,TMTstop-A_1_5linestimulus21.png,TMTstop-A_1_5greenlinestimulus21.png,TMTstop-A_1_5redlinestimulus21.png,5,124,,,,,,,,,0,4,4,4,0,23,23,23,1,1,57.103127900045365,None,['3'],1,[0.04266769997775555],57.103127900045365,None,,001,2022_Feb_02_1550,TMTAstop-A,2021.2.3,132.0557382767548,
TMTstop-A_1_5.xlsx,104:130,25,['2'],2,TMTstop-A_1_5linestimulus22.png,TMTstop-A_1_5greenlinestimulus22.png,TMTstop-A_1_5redlinestimulus22.png,5,125,,,,,,,,,0,4,4,4,0,24,24,24,1,1,57.22601930005476,None,['2'],1,[0.7203292001504451],57.22601930005476,None,,001,2022_Feb_02_1550,TMTAstop-A,2021.2.3,132.0557382767548,
TMTstop-A_1_5.xlsx,104:130,None,None,None,TMTstop-A_1_5linestimulus23.png,TMTstop-A_1_5greenlinestimulus23.png,TMTstop-A_1_5redlinestimulus23.png,5,Feedback_last,,,,,,,,,0,4,4,4,0,25,25,25,0,0,58.02456029993482,None,None,1,,58.02456029993482,None,,001,2022_Feb_02_1550,TMTAstop-A,2021.2.3,132.0557382767548,
TMTstop-A_1_6.xlsx,130:156,1,['1'],1,TMTstop-A_1_6.png,TMTstop-A_1_6.png,TMTstop-A_1_6.png,6,126,,,,,,,,,0,5,5,5,0,0,0,0,2,0,62.12888620002195,None,"['2', '1']",1,"[3.9425764000043273, 3.967525700107217]",62.12888620002195,None,,001,2022_Feb_02_1550,TMTAstop-A,2021.2.3,132.0557382767548,
TMTstop-A_1_6.xlsx,130:156,2,['2'],2,TMTstop-A_1_6.png,TMTstop-A_1_6firstgreen.png,TMTstop-A_1_6firstred.png,6,127,,,,,,,,,0,5,5,5,0,1,1,1,3,0,66.18400770006701,None,"['3', '1', '2']",1,"[0.05489230016246438, 0.1964103002101183, 0.24704190017655492]",66.18400770006701,None,,001,2022_Feb_02_1550,TMTAstop-A,2021.2.3,132.0557382767548,
TMTstop-A_1_6.xlsx,130:156,3,['3'],3,TMTstop-A_1_6linestimulus0.png,TMTstop-A_1_6greenlinestimulus0.png,TMTstop-A_1_6redlinestimulus0.png,6,128,,,,,,,,,0,5,5,5,0,2,2,2,1,1,66.52081759995781,None,['3'],1,[0.043245599837973714],66.52081759995781,None,,001,2022_Feb_02_1550,TMTAstop-A,2021.2.3,132.0557382767548,
TMTstop-A_1_6.xlsx,130:156,4,['1'],1,TMTstop-A_1_6linestimulus1.png,TMTstop-A_1_6greenlinestimulus1.png,TMTstop-A_1_6redlinestimulus1.png,6,129,,,,,,,,,0,5,5,5,0,3,3,3,1,1,66.63657579990104,None,['1'],1,[0.03564570005983114],66.63657579990104,None,,001,2022_Feb_02_1550,TMTAstop-A,2021.2.3,132.0557382767548,
TMTstop-A_1_6.xlsx,130:156,5,['3'],3,TMTstop-A_1_6linestimulus2.png,TMTstop-A_1_6greenlinestimulus2.png,TMTstop-A_1_6redlinestimulus2.png,6,130,,,,,,,,,0,5,5,5,0,4,4,4,2,0,66.74046160001308,None,"['2', '3']",1,"[-0.016068299999460578, 0.08559660008177161]",66.74046160001308,None,,001,2022_Feb_02_1550,TMTAstop-A,2021.2.3,132.0557382767548,
TMTstop-A_1_6.xlsx,130:156,6,['1'],1,TMTstop-A_1_6linestimulus3.png,TMTstop-A_1_6greenlinestimulus3.png,TMTstop-A_1_6redlinestimulus3.png,6,131,,,,,,,,,0,5,5,5,0,5,5,5,1,1,66.90318650007248,None,['1'],1,[0.021651400020346045],66.90318650007248,None,,001,2022_Feb_02_1550,TMTAstop-A,2021.2.3,132.0557382767548,
TMTstop-A_1_6.xlsx,130:156,7,['3'],3,TMTstop-A_1_6linestimulus4.png,TMTstop-A_1_6greenlinestimulus4.png,TMTstop-A_1_6redlinestimulus4.png,6,132,,,,,,,,,0,5,5,5,0,6,6,6,2,0,67.00435429997742,None,"['2', '3']",1,"[-0.001045099925249815, 0.0821500001475215]",67.00435429997742,None,,001,2022_Feb_02_1550,TMTAstop-A,2021.2.3,132.0557382767548,
TMTstop-A_1_6.xlsx,130:156,8,['1'],1,TMTstop-A_1_6linestimulus5.png,TMTstop-A_1_6greenlinestimulus5.png,TMTstop-A_1_6redlinestimulus5.png,6,133,,,,,,,,,0,5,5,5,0,7,7,7,1,1,67.16333199990913,None,['1'],1,[0.03308540000580251],67.16333199990913,None,,001,2022_Feb_02_1550,TMTAstop-A,2021.2.3,132.0557382767548,
TMTstop-A_1_6.xlsx,130:156,9,['2'],2,TMTstop-A_1_6linestimulus6.png,TMTstop-A_1_6greenlinestimulus6.png,TMTstop-A_1_6redlinestimulus6.png,6,134,,,,,,,,,0,5,5,5,0,8,8,8,1,1,67.26746080000885,None,['2'],1,[-0.00815299991518259],67.26746080000885,None,,001,2022_Feb_02_1550,TMTAstop-A,2021.2.3,132.0557382767548,
TMTstop-A_1_6.xlsx,130:156,10,['3'],3,TMTstop-A_1_6linestimulus7.png,TMTstop-A_1_6greenlinestimulus7.png,TMTstop-A_1_6redlinestimulus7.png,6,135,,,,,,,,,0,5,5,5,0,9,9,9,1,1,67.3367727000732,None,['3'],1,[0.016032399842515588],67.3367727000732,None,,001,2022_Feb_02_1550,TMTAstop-A,2021.2.3,132.0557382767548,
TMTstop-A_1_6.xlsx,130:156,11,['1'],1,TMTstop-A_1_6linestimulus8.png,TMTstop-A_1_6greenlinestimulus8.png,TMTstop-A_1_6redlinestimulus8.png,6,136,,,,,,,,,0,5,5,5,0,10,10,10,1,1,67.4271080000326,None,['1'],1,[0.036632100120186806],67.4271080000326,None,,001,2022_Feb_02_1550,TMTAstop-A,2021.2.3,132.0557382767548,
TMTstop-A_1_6.xlsx,130:156,12,['3'],3,TMTstop-A_1_6linestimulus9.png,TMTstop-A_1_6greenlinestimulus9.png,TMTstop-A_1_6redlinestimulus9.png,6,137,,,,,,,,,0,5,5,5,0,11,11,11,2,0,67.5313274001237,None,"['2', '3']",1,"[0.008323600050061941, 0.10930719994939864]",67.5313274001237,None,,001,2022_Feb_02_1550,TMTAstop-A,2021.2.3,132.0557382767548,
TMTstop-A_1_6.xlsx,130:156,13,['2'],2,TMTstop-A_1_6linestimulus10.png,TMTstop-A_1_6greenlinestimulus10.png,TMTstop-A_1_6redlinestimulus10.png,6,138,,,,,,,,,0,5,5,5,0,12,12,12,2,0,67.74910550005734,None,"['1', '2']",1,"[0.010733200004324317, 0.08695579995401204]",67.74910550005734,None,,001,2022_Feb_02_1550,TMTAstop-A,2021.2.3,132.0557382767548,
TMTstop-A_1_6.xlsx,130:156,14,['3'],3,TMTstop-A_1_6linestimulus11.png,TMTstop-A_1_6greenlinestimulus11.png,TMTstop-A_1_6redlinestimulus11.png,6,139,,,,,,,,,0,5,5,5,0,13,13,13,1,1,67.91323400009423,None,['3'],1,[0.03420270001515746],67.91323400009423,None,,001,2022_Feb_02_1550,TMTAstop-A,2021.2.3,132.0557382767548,
TMTstop-A_1_6.xlsx,130:156,15,['2'],2,TMTstop-A_1_6linestimulus12.png,TMTstop-A_1_6greenlinestimulus12.png,TMTstop-A_1_6redlinestimulus12.png,6,140,,,,,,,,,0,5,5,5,0,14,14,14,2,0,68.02425749995746,None,"['1', '2']",1,"[0.04533959995023906, 0.09227590006776154]",68.02425749995746,None,,001,2022_Feb_02_1550,TMTAstop-A,2021.2.3,132.0557382767548,
TMTstop-A_1_6.xlsx,130:156,16,['1'],1,TMTstop-A_1_6linestimulus13.png,TMTstop-A_1_6greenlinestimulus13.png,TMTstop-A_1_6redlinestimulus13.png,6,141,,,,,,,,,0,5,5,5,0,15,15,15,2,0,68.22570990002714,None,"['3', '1']",1,"[0.01159820007160306, 0.1294027001131326]",68.22570990002714,None,,001,2022_Feb_02_1550,TMTAstop-A,2021.2.3,132.0557382767548,
TMTstop-A_1_6.xlsx,130:156,17,['3'],3,TMTstop-A_1_6linestimulus14.png,TMTstop-A_1_6greenlinestimulus14.png,TMTstop-A_1_6redlinestimulus14.png,6,142,,,,,,,,,0,5,5,5,0,16,16,16,2,0,68.44868059991859,None,"['2', '3']",1,"[-0.025688099907711148, 0.09361229999922216]",68.44868059991859,None,,001,2022_Feb_02_1550,TMTAstop-A,2021.2.3,132.0557382767548,
TMTstop-A_1_6.xlsx,130:156,18,['1'],1,TMTstop-A_1_6linestimulus15.png,TMTstop-A_1_6greenlinestimulus15.png,TMTstop-A_1_6redlinestimulus15.png,6,143,,,,,,,,,0,5,5,5,0,17,17,17,1,1,68.6354167999234,None,['1'],1,[0.02334539988078177],68.6354167999234,None,,001,2022_Feb_02_1550,TMTAstop-A,2021.2.3,132.0557382767548,
TMTstop-A_1_6.xlsx,130:156,19,['2'],2,TMTstop-A_1_6linestimulus16.png,TMTstop-A_1_6greenlinestimulus16.png,TMTstop-A_1_6redlinestimulus16.png,6,144,,,,,,,,,0,5,5,5,0,18,18,18,1,1,68.7469341000542,None,['2'],1,[0.006824200041592121],68.7469341000542,None,,001,2022_Feb_02_1550,TMTAstop-A,2021.2.3,132.0557382767548,
TMTstop-A_1_6.xlsx,130:156,20,['3'],3,TMTstop-A_1_6linestimulus17.png,TMTstop-A_1_6greenlinestimulus17.png,TMTstop-A_1_6redlinestimulus17.png,6,145,,,,,,,,,0,5,5,5,0,19,19,19,1,1,68.83023370010778,None,['3'],1,[0.03859109990298748],68.83023370010778,None,,001,2022_Feb_02_1550,TMTAstop-A,2021.2.3,132.0557382767548,
TMTstop-A_1_6.xlsx,130:156,21,['2'],2,TMTstop-A_1_6linestimulus18.png,TMTstop-A_1_6greenlinestimulus18.png,TMTstop-A_1_6redlinestimulus18.png,6,146,,,,,,,,,0,5,5,5,0,20,20,20,2,0,68.94795710011385,None,"['1', '2']",1,"[0.05990010011009872, 0.11133470013737679]",68.94795710011385,None,,001,2022_Feb_02_1550,TMTAstop-A,2021.2.3,132.0557382767548,
TMTstop-A_1_6.xlsx,130:156,22,['3'],3,TMTstop-A_1_6linestimulus19.png,TMTstop-A_1_6greenlinestimulus19.png,TMTstop-A_1_6redlinestimulus19.png,6,147,,,,,,,,,0,5,5,5,0,21,21,21,1,1,69.17086869990453,None,['3'],1,[0.014391700038686395],69.17086869990453,None,,001,2022_Feb_02_1550,TMTAstop-A,2021.2.3,132.0557382767548,
TMTstop-A_1_6.xlsx,130:156,23,['1'],1,TMTstop-A_1_6linestimulus20.png,TMTstop-A_1_6greenlinestimulus20.png,TMTstop-A_1_6redlinestimulus20.png,6,148,,,,,,,,,0,5,5,5,0,22,22,22,1,1,69.27864159992896,None,['1'],1,[0.03876259992830455],69.27864159992896,None,,001,2022_Feb_02_1550,TMTAstop-A,2021.2.3,132.0557382767548,
TMTstop-A_1_6.xlsx,130:156,24,['2'],2,TMTstop-A_1_6linestimulus21.png,TMTstop-A_1_6greenlinestimulus21.png,TMTstop-A_1_6redlinestimulus21.png,6,149,,,,,,,,,0,5,5,5,0,23,23,23,1,1,69.40632089995779,None,['2'],1,[-0.01904759998433292],69.40632089995779,None,,001,2022_Feb_02_1550,TMTAstop-A,2021.2.3,132.0557382767548,
TMTstop-A_1_6.xlsx,130:156,25,['3'],3,TMTstop-A_1_6linestimulus22.png,TMTstop-A_1_6greenlinestimulus22.png,TMTstop-A_1_6redlinestimulus22.png,6,150,,,,,,,,,0,5,5,5,0,24,24,24,1,1,69.47611090005375,None,['3'],1,[0.04235749994404614],69.47611090005375,None,,001,2022_Feb_02_1550,TMTAstop-A,2021.2.3,132.0557382767548,
TMTstop-A_1_6.xlsx,130:156,None,None,None,TMTstop-A_1_6linestimulus23.png,TMTstop-A_1_6greenlinestimulus23.png,TMTstop-A_1_6redlinestimulus23.png,6,Feedback_last,,,,,,,,,0,5,5,5,0,25,25,25,3,0,69.60768879996613,None,"['1', '2', '3']",0,"[0.02028139983303845, 0.09980209986679256, 0.26745869987644255]",69.60768879996613,None,,001,2022_Feb_02_1550,TMTAstop-A,2021.2.3,132.0557382767548,
