NumberLetter,corrAns,Correct,StimFile,Correct_StimFile,False_StimFile,Version,Block,TrialNumber_session,n,Stim.started_mean,Stim.started_raw,Stim.started_std,Stim.stopped_raw,key_resp_2.corr_mean,key_resp_2.corr_raw,key_resp_2.corr_std,key_resp_2.keys_raw,key_resp_2.rt_raw,key_resp_2.started_mean,key_resp_2.started_raw,key_resp_2.started_std,key_resp_2.stopped_raw,order
1,['2'],2,TMTstop-control_1_1.png,TMTstop-control_1_1.png,TMTstop-control_1_1.png,TMT-Control,1,1,1.0,11.986526489257812,11.986526489257812,0.0,,1.0,1.0,0.0,2,0.8106624998617917,11.986526489257812,11.986526489257812,0.0,,0.0
2,['1'],1,TMTstop-control_1_1.png,TMTstop-control_1_1firstgreen.png,TMTstop-control_1_1firstred.png,TMT-Control,1,2,1.0,12.86876392364502,12.86876392364502,0.0,,1.0,1.0,0.0,1,0.023158099967986345,12.86876392364502,12.86876392364502,0.0,,1.0
3,['2'],2,TMTstop-control_1_1linestimulus0.png,TMTstop-control_1_1greenlinestimulus0.png,TMTstop-control_1_1redlinestimulus0.png,TMT-Control,1,3,1.0,12.966835975646973,12.966835975646973,0.0,,1.0,1.0,0.0,3,1,2,0.05408159992657602,0.19633139995858073,0.24567720014601946,12.966835975646973,12.966835975646973,0.0,,2.0
4,['3'],3,TMTstop-control_1_1linestimulus1.png,TMTstop-control_1_1greenlinestimulus1.png,TMTstop-control_1_1redlinestimulus1.png,TMT-Control,1,4,1.0,13.313031196594238,13.313031196594238,0.0,,1.0,1.0,0.0,3,0.010626400122419,13.313031196594238,13.313031196594238,0.0,,3.0
5,['2'],2,TMTstop-control_1_1linestimulus2.png,TMTstop-control_1_1greenlinestimulus2.png,TMTstop-control_1_1redlinestimulus2.png,TMT-Control,1,5,1.0,13.397245407104492,13.397245407104492,0.0,,1.0,1.0,0.0,1,2,0.05870809988118708,0.1232914999127388,13.397245407104492,13.397245407104492,0.0,,4.0
6,['1'],1,TMTstop-control_1_1linestimulus3.png,TMTstop-control_1_1greenlinestimulus3.png,TMTstop-control_1_1redlinestimulus3.png,TMT-Control,1,6,1.0,13.612457275390625,13.612457275390625,0.0,,1.0,1.0,0.0,3,1,0.018741399981081486,0.36885169986635447,13.612457275390625,13.612457275390625,0.0,,5.0
7,['3'],3,TMTstop-control_1_1linestimulus4.png,TMTstop-control_1_1greenlinestimulus4.png,TMTstop-control_1_1redlinestimulus4.png,TMT-Control,1,7,1.0,14.083955764770508,14.083955764770508,0.0,,1.0,1.0,0.0,2,3,-0.06732729985378683,0.062893700087443,14.083955764770508,14.083955764770508,0.0,,6.0
8,['2'],2,TMTstop-control_1_1linestimulus4.png,TMTstop-control_1_1greenlinestimulus5.png,TMTstop-control_1_1redlinestimulus5.png,TMT-Control,1,8,1.0,14.236817359924316,14.236817359924316,0.0,,1.0,1.0,0.0,1,2,0.06704639992676675,0.08870640001259744,14.236817359924316,14.236817359924316,0.0,,7.0
9,['3'],3,TMTstop-control_1_1linestimulus6.png,TMTstop-control_1_1greenlinestimulus6.png,TMTstop-control_1_1redlinestimulus6.png,TMT-Control,1,9,1.0,14.417503356933594,14.417503356933594,0.0,,1.0,1.0,0.0,3,0.025174699956551194,14.417503356933594,14.417503356933594,0.0,,8.0
10,['2'],2,TMTstop-control_1_1linestimulus7.png,TMTstop-control_1_1greenlinestimulus7.png,TMTstop-control_1_1redlinestimulus7.png,TMT-Control,1,10,1.0,14.521700859069824,14.521700859069824,0.0,,1.0,1.0,0.0,1,2,0.06027830019593239,0.09186100005172193,14.521700859069824,14.521700859069824,0.0,,9.0
11,['3'],3,TMTstop-control_1_1linestimulus8.png,TMTstop-control_1_1greenlinestimulus8.png,TMTstop-control_1_1redlinestimulus8.png,TMT-Control,1,11,1.0,14.702327728271484,14.702327728271484,0.0,,1.0,1.0,0.0,3,0.015323699917644262,14.702327728271484,14.702327728271484,0.0,,10.0
12,['1'],1,TMTstop-control_1_1linestimulus9.png,TMTstop-control_1_1greenlinestimulus9.png,TMTstop-control_1_1redlinestimulus9.png,TMT-Control,1,12,1.0,14.785372734069824,14.785372734069824,0.0,,1.0,1.0,0.0,1,0.0670533999800682,14.785372734069824,14.785372734069824,0.0,,11.0
13,['3'],3,TMTstop-control_1_1linestimulus10.png,TMTstop-control_1_1greenlinestimulus10.png,TMTstop-control_1_1redlinestimulus10.png,TMT-Control,1,13,1.0,14.931602478027344,14.931602478027344,0.0,,1.0,1.0,0.0,2,3,-0.0416788998991251,0.048937400104478,14.931602478027344,14.931602478027344,0.0,,12.0
14,['1'],1,TMTstop-control_1_1linestimulus11.png,TMTstop-control_1_1greenlinestimulus11.png,TMTstop-control_1_1redlinestimulus11.png,TMT-Control,1,14,1.0,15.112730026245117,15.112730026245117,0.0,,1.0,1.0,0.0,1,0.0067425998859107494,15.112730026245117,15.112730026245117,0.0,,13.0
15,['3'],3,TMTstop-control_1_1linestimulus12.png,TMTstop-control_1_1greenlinestimulus12.png,TMTstop-control_1_1redlinestimulus12.png,TMT-Control,1,15,1.0,15.211484909057617,15.211484909057617,0.0,,1.0,1.0,0.0,2,3,-0.07030899985693395,0.041601600125432014,15.211484909057617,15.211484909057617,0.0,,14.0
16,['1'],1,TMTstop-control_1_1linestimulus13.png,TMTstop-control_1_1greenlinestimulus13.png,TMTstop-control_1_1redlinestimulus13.png,TMT-Control,1,16,1.0,15.355873107910156,15.355873107910156,0.0,,1.0,1.0,0.0,1,0.025539299938827753,15.355873107910156,15.355873107910156,0.0,,15.0
17,['2'],2,TMTstop-control_1_1linestimulus14.png,TMTstop-control_1_1greenlinestimulus14.png,TMTstop-control_1_1redlinestimulus14.png,TMT-Control,1,17,1.0,15.466944694519043,15.466944694519043,0.0,,1.0,1.0,0.0,2,-0.03409109986387193,15.466944694519043,15.466944694519043,0.0,,16.0
18,['1'],1,TMTstop-control_1_1linestimulus15.png,TMTstop-control_1_1greenlinestimulus15.png,TMTstop-control_1_1redlinestimulus15.png,TMT-Control,1,18,1.0,15.542166709899902,15.542166709899902,0.0,,1.0,1.0,0.0,3,1,-0.014297400135546923,0.12182519980706275,15.542166709899902,15.542166709899902,0.0,,17.0
19,['3'],3,TMTstop-control_1_1linestimulus16.png,TMTstop-control_1_1greenlinestimulus16.png,TMTstop-control_1_1redlinestimulus16.png,TMT-Control,1,19,1.0,15.73669719696045,15.73669719696045,0.0,,1.0,1.0,0.0,2,3,-0.0357956001535058,0.07022459991276264,15.73669719696045,15.73669719696045,0.0,,18.0
20,['1'],1,TMTstop-control_1_1linestimulus17.png,TMTstop-control_1_1greenlinestimulus17.png,TMTstop-control_1_1redlinestimulus17.png,TMT-Control,1,20,1.0,15.890886306762695,15.890886306762695,0.0,,1.0,1.0,0.0,1,0.04829730000346899,15.890886306762695,15.890886306762695,0.0,,19.0
21,['3'],3,TMTstop-control_1_1linestimulus18.png,TMTstop-control_1_1greenlinestimulus18.png,TMTstop-control_1_1redlinestimulus18.png,TMT-Control,1,21,1.0,16.016300201416016,16.016300201416016,0.0,,1.0,1.0,0.0,2,3,-0.04735670005902648,0.07020860002376139,16.016300201416016,16.016300201416016,0.0,,20.0
22,['1'],1,TMTstop-control_1_1linestimulus19.png,TMTstop-control_1_1greenlinestimulus19.png,TMTstop-control_1_1redlinestimulus19.png,TMT-Control,1,22,1.0,16.168283462524414,16.168283462524414,0.0,,1.0,1.0,0.0,1,0.056332699954509735,16.168283462524414,16.168283462524414,0.0,,21.0
23,['3'],3,TMTstop-control_1_1linestimulus20.png,TMTstop-control_1_1greenlinestimulus20.png,TMTstop-control_1_1redlinestimulus20.png,TMT-Control,1,23,1.0,16.34080696105957,16.34080696105957,0.0,,1.0,1.0,0.0,2,3,-0.052839700132608414,0.03523889998905361,16.34080696105957,16.34080696105957,0.0,,22.0
24,['1'],1,TMTstop-control_1_1linestimulus21.png,TMTstop-control_1_1greenlinestimulus21.png,TMTstop-control_1_1redlinestimulus21.png,TMT-Control,1,24,1.0,16.453453063964844,16.453453063964844,0.0,,1.0,1.0,0.0,1,0.05991220008581877,16.453453063964844,16.453453063964844,0.0,,23.0
25,['3'],3,TMTstop-control_1_1linestimulus22.png,TMTstop-control_1_1greenlinestimulus22.png,TMTstop-control_1_1redlinestimulus22.png,TMT-Control,1,25,1.0,16.59103775024414,16.59103775024414,0.0,,1.0,1.0,0.0,2,3,-0.017864099936559796,0.059044199995696545,16.59103775024414,16.59103775024414,0.0,,24.0
None,None,None,TMTstop-control_1_1linestimulus23.png,TMTstop-control_1_1greenlinestimulus23.png,TMTstop-control_1_1redlinestimulus23.png,TMT-Control,1,Feedback_last,1.0,16.744064331054688,16.744064331054688,0.0,,0.0,0.0,0.0,1,2,3,0.0288761998526752,0.0998972998932004,0.178061299957335,16.744064331054688,16.744064331054688,0.0,,25.0

extraInfo
participant,
session,001
date,2022_Feb_02_1727
expName,TMT_fmri
psychopyVersion,2021.2.3
frameRate,148.21555877189027
﻿NumberLetter,corrAns,Correct,StimFile,Correct_StimFile,False_StimFile,Version,Block,TrialNumber_session,n,Stim.started_mean,Stim.started_raw,Stim.started_std,Stim.stopped_raw,key_resp_2.corr_mean,key_resp_2.corr_raw,key_resp_2.corr_std,key_resp_2.keys_raw,key_resp_2.rt_raw,key_resp_2.started_mean,key_resp_2.started_raw,key_resp_2.started_std,key_resp_2.stopped_raw,order
1,['1'],1,TMTstop-control_1_2.png,TMTstop-control_1_2.png,TMTstop-control_1_2.png,TMT-Control,2,26,1.0,20.874897003173828,20.874897003173828,0.0,,1.0,1.0,0.0,3,1,0.43431010004132986,0.9023647999856621,20.874897003173828,20.874897003173828,0.0,,0.0
2,['3'],3,TMTstop-control_1_2.png,TMTstop-control_1_2firstgreen.png,TMTstop-control_1_2firstred.png,TMT-Control,2,27,1.0,21.86876678466797,21.86876678466797,0.0,,1.0,1.0,0.0,2,3,-0.004650300135836005,0.14523159991949797,21.86876678466797,21.86876678466797,0.0,,1.0
3,['2'],2,TMTstop-control_1_2linestimulus0.png,TMTstop-control_1_2greenlinestimulus0.png,TMTstop-control_1_2redlinestimulus0.png,TMT-Control,2,28,1.0,22.10447883605957,22.10447883605957,0.0,,0.0,0.0,0.0,,'--',22.10447883605957,22.10447883605957,0.0,,2.0
4,['3'],3,TMTstop-control_1_2linestimulus1.png,TMTstop-control_1_2greenlinestimulus1.png,TMTstop-control_1_2redlinestimulus1.png,TMT-Control,2,29,0.0,,,,'--',,,,'--','--',,,,'--',
5,['1'],1,TMTstop-control_1_2linestimulus2.png,TMTstop-control_1_2greenlinestimulus2.png,TMTstop-control_1_2redlinestimulus2.png,TMT-Control,2,30,0.0,,,,'--',,,,'--','--',,,,'--',
6,['3'],3,TMTstop-control_1_2linestimulus3.png,TMTstop-control_1_2greenlinestimulus3.png,TMTstop-control_1_2redlinestimulus3.png,TMT-Control,2,31,0.0,,,,'--',,,,'--','--',,,,'--',
7,['2'],2,TMTstop-control_1_2linestimulus4.png,TMTstop-control_1_2greenlinestimulus4.png,TMTstop-control_1_2redlinestimulus4.png,TMT-Control,2,32,0.0,,,,'--',,,,'--','--',,,,'--',
8,['1'],1,TMTstop-control_1_2linestimulus4.png,TMTstop-control_1_2greenlinestimulus5.png,TMTstop-control_1_2redlinestimulus5.png,TMT-Control,2,33,0.0,,,,'--',,,,'--','--',,,,'--',
9,['2'],2,TMTstop-control_1_2linestimulus6.png,TMTstop-control_1_2greenlinestimulus6.png,TMTstop-control_1_2redlinestimulus6.png,TMT-Control,2,34,0.0,,,,'--',,,,'--','--',,,,'--',
10,['3'],3,TMTstop-control_1_2linestimulus7.png,TMTstop-control_1_2greenlinestimulus7.png,TMTstop-control_1_2redlinestimulus7.png,TMT-Control,2,35,0.0,,,,'--',,,,'--','--',,,,'--',
11,['1'],1,TMTstop-control_1_2linestimulus8.png,TMTstop-control_1_2greenlinestimulus8.png,TMTstop-control_1_2redlinestimulus8.png,TMT-Control,2,36,0.0,,,,'--',,,,'--','--',,,,'--',
12,['2'],2,TMTstop-control_1_2linestimulus9.png,TMTstop-control_1_2greenlinestimulus9.png,TMTstop-control_1_2redlinestimulus9.png,TMT-Control,2,37,0.0,,,,'--',,,,'--','--',,,,'--',
13,['3'],3,TMTstop-control_1_2linestimulus10.png,TMTstop-control_1_2greenlinestimulus10.png,TMTstop-control_1_2redlinestimulus10.png,TMT-Control,2,38,0.0,,,,'--',,,,'--','--',,,,'--',
14,['1'],1,TMTstop-control_1_2linestimulus11.png,TMTstop-control_1_2greenlinestimulus11.png,TMTstop-control_1_2redlinestimulus11.png,TMT-Control,2,39,0.0,,,,'--',,,,'--','--',,,,'--',
15,['2'],2,TMTstop-control_1_2linestimulus12.png,TMTstop-control_1_2greenlinestimulus12.png,TMTstop-control_1_2redlinestimulus12.png,TMT-Control,2,40,0.0,,,,'--',,,,'--','--',,,,'--',
16,['1'],1,TMTstop-control_1_2linestimulus13.png,TMTstop-control_1_2greenlinestimulus13.png,TMTstop-control_1_2redlinestimulus13.png,TMT-Control,2,41,0.0,,,,'--',,,,'--','--',,,,'--',
17,['2'],2,TMTstop-control_1_2linestimulus14.png,TMTstop-control_1_2greenlinestimulus14.png,TMTstop-control_1_2redlinestimulus14.png,TMT-Control,2,42,0.0,,,,'--',,,,'--','--',,,,'--',
18,['1'],1,TMTstop-control_1_2linestimulus15.png,TMTstop-control_1_2greenlinestimulus15.png,TMTstop-control_1_2redlinestimulus15.png,TMT-Control,2,43,0.0,,,,'--',,,,'--','--',,,,'--',
19,['3'],3,TMTstop-control_1_2linestimulus16.png,TMTstop-control_1_2greenlinestimulus16.png,TMTstop-control_1_2redlinestimulus16.png,TMT-Control,2,44,0.0,,,,'--',,,,'--','--',,,,'--',
20,['1'],1,TMTstop-control_1_2linestimulus17.png,TMTstop-control_1_2greenlinestimulus17.png,TMTstop-control_1_2redlinestimulus17.png,TMT-Control,2,45,0.0,,,,'--',,,,'--','--',,,,'--',
21,['2'],2,TMTstop-control_1_2linestimulus18.png,TMTstop-control_1_2greenlinestimulus18.png,TMTstop-control_1_2redlinestimulus18.png,TMT-Control,2,46,0.0,,,,'--',,,,'--','--',,,,'--',
22,['1'],1,TMTstop-control_1_2linestimulus19.png,TMTstop-control_1_2greenlinestimulus19.png,TMTstop-control_1_2redlinestimulus19.png,TMT-Control,2,47,0.0,,,,'--',,,,'--','--',,,,'--',
23,['3'],3,TMTstop-control_1_2linestimulus20.png,TMTstop-control_1_2greenlinestimulus20.png,TMTstop-control_1_2redlinestimulus20.png,TMT-Control,2,48,0.0,,,,'--',,,,'--','--',,,,'--',
24,['1'],1,TMTstop-control_1_2linestimulus21.png,TMTstop-control_1_2greenlinestimulus21.png,TMTstop-control_1_2redlinestimulus21.png,TMT-Control,2,49,0.0,,,,'--',,,,'--','--',,,,'--',
25,['3'],3,TMTstop-control_1_2linestimulus22.png,TMTstop-control_1_2greenlinestimulus22.png,TMTstop-control_1_2redlinestimulus22.png,TMT-Control,2,50,0.0,,,,'--',,,,'--','--',,,,'--',
None,None,None,TMTstop-control_1_2linestimulus23.png,TMTstop-control_1_2greenlinestimulus23.png,TMTstop-control_1_2redlinestimulus23.png,TMT-Control,2,Feedback_last,0.0,,,,'--',,,,'--','--',,,,'--',

extraInfo
participant,
session,001
date,2022_Feb_02_1727
expName,TMT_fmri
psychopyVersion,2021.2.3
frameRate,148.21555877189027
﻿NumberLetter,corrAns,Correct,StimFile,Correct_StimFile,False_StimFile,Version,Block,TrialNumber_session,n,Stim.started_raw,Stim.stopped_raw,key_resp_2.corr_mean,key_resp_2.corr_raw,key_resp_2.corr_std,key_resp_2.keys_raw,key_resp_2.started_raw,key_resp_2.stopped_raw,order
1,['3'],3,TMTstop-control_1_3.png,TMTstop-control_1_3.png,TMTstop-control_1_3.png,TMT-Control,3,51,1.0,30.061904479935762,,0.0,0.0,0.0,,30.061904479935762,,0.0
2,['1'],1,TMTstop-control_1_3.png,TMTstop-control_1_3firstgreen.png,TMTstop-control_1_3firstred.png,TMT-Control,3,52,0.0,'--','--',,,,'--','--','--',
3,['3'],3,TMTstop-control_1_3linestimulus0.png,TMTstop-control_1_3greenlinestimulus0.png,TMTstop-control_1_3redlinestimulus0.png,TMT-Control,3,53,0.0,'--','--',,,,'--','--','--',
4,['1'],1,TMTstop-control_1_3linestimulus1.png,TMTstop-control_1_3greenlinestimulus1.png,TMTstop-control_1_3redlinestimulus1.png,TMT-Control,3,54,0.0,'--','--',,,,'--','--','--',
5,['3'],3,TMTstop-control_1_3linestimulus2.png,TMTstop-control_1_3greenlinestimulus2.png,TMTstop-control_1_3redlinestimulus2.png,TMT-Control,3,55,0.0,'--','--',,,,'--','--','--',
6,['2'],2,TMTstop-control_1_3linestimulus3.png,TMTstop-control_1_3greenlinestimulus3.png,TMTstop-control_1_3redlinestimulus3.png,TMT-Control,3,56,0.0,'--','--',,,,'--','--','--',
7,['1'],1,TMTstop-control_1_3linestimulus4.png,TMTstop-control_1_3greenlinestimulus4.png,TMTstop-control_1_3redlinestimulus4.png,TMT-Control,3,57,0.0,'--','--',,,,'--','--','--',
8,['3'],3,TMTstop-control_1_3linestimulus4.png,TMTstop-control_1_3greenlinestimulus5.png,TMTstop-control_1_3redlinestimulus5.png,TMT-Control,3,58,0.0,'--','--',,,,'--','--','--',
9,['2'],2,TMTstop-control_1_3linestimulus6.png,TMTstop-control_1_3greenlinestimulus6.png,TMTstop-control_1_3redlinestimulus6.png,TMT-Control,3,59,0.0,'--','--',,,,'--','--','--',
10,['3'],3,TMTstop-control_1_3linestimulus7.png,TMTstop-control_1_3greenlinestimulus7.png,TMTstop-control_1_3redlinestimulus7.png,TMT-Control,3,60,0.0,'--','--',,,,'--','--','--',
11,['2'],2,TMTstop-control_1_3linestimulus8.png,TMTstop-control_1_3greenlinestimulus8.png,TMTstop-control_1_3redlinestimulus8.png,TMT-Control,3,61,0.0,'--','--',,,,'--','--','--',
12,['1'],1,TMTstop-control_1_3linestimulus9.png,TMTstop-control_1_3greenlinestimulus9.png,TMTstop-control_1_3redlinestimulus9.png,TMT-Control,3,62,0.0,'--','--',,,,'--','--','--',
13,['2'],2,TMTstop-control_1_3linestimulus10.png,TMTstop-control_1_3greenlinestimulus10.png,TMTstop-control_1_3redlinestimulus10.png,TMT-Control,3,63,0.0,'--','--',,,,'--','--','--',
14,['3'],3,TMTstop-control_1_3linestimulus11.png,TMTstop-control_1_3greenlinestimulus11.png,TMTstop-control_1_3redlinestimulus11.png,TMT-Control,3,64,0.0,'--','--',,,,'--','--','--',
15,['2'],2,TMTstop-control_1_3linestimulus12.png,TMTstop-control_1_3greenlinestimulus12.png,TMTstop-control_1_3redlinestimulus12.png,TMT-Control,3,65,0.0,'--','--',,,,'--','--','--',
16,['1'],1,TMTstop-control_1_3linestimulus13.png,TMTstop-control_1_3greenlinestimulus13.png,TMTstop-control_1_3redlinestimulus13.png,TMT-Control,3,66,0.0,'--','--',,,,'--','--','--',
17,['2'],2,TMTstop-control_1_3linestimulus14.png,TMTstop-control_1_3greenlinestimulus14.png,TMTstop-control_1_3redlinestimulus14.png,TMT-Control,3,67,0.0,'--','--',,,,'--','--','--',
18,['3'],3,TMTstop-control_1_3linestimulus15.png,TMTstop-control_1_3greenlinestimulus15.png,TMTstop-control_1_3redlinestimulus15.png,TMT-Control,3,68,0.0,'--','--',,,,'--','--','--',
19,['1'],1,TMTstop-control_1_3linestimulus16.png,TMTstop-control_1_3greenlinestimulus16.png,TMTstop-control_1_3redlinestimulus16.png,TMT-Control,3,69,0.0,'--','--',,,,'--','--','--',
20,['2'],2,TMTstop-control_1_3linestimulus17.png,TMTstop-control_1_3greenlinestimulus17.png,TMTstop-control_1_3redlinestimulus17.png,TMT-Control,3,70,0.0,'--','--',,,,'--','--','--',
21,['3'],3,TMTstop-control_1_3linestimulus18.png,TMTstop-control_1_3greenlinestimulus18.png,TMTstop-control_1_3redlinestimulus18.png,TMT-Control,3,71,0.0,'--','--',,,,'--','--','--',
22,['2'],2,TMTstop-control_1_3linestimulus19.png,TMTstop-control_1_3greenlinestimulus19.png,TMTstop-control_1_3redlinestimulus19.png,TMT-Control,3,72,0.0,'--','--',,,,'--','--','--',
23,['1'],1,TMTstop-control_1_3linestimulus20.png,TMTstop-control_1_3greenlinestimulus20.png,TMTstop-control_1_3redlinestimulus20.png,TMT-Control,3,73,0.0,'--','--',,,,'--','--','--',
24,['3'],3,TMTstop-control_1_3linestimulus21.png,TMTstop-control_1_3greenlinestimulus21.png,TMTstop-control_1_3redlinestimulus21.png,TMT-Control,3,74,0.0,'--','--',,,,'--','--','--',
25,['1'],1,TMTstop-control_1_3linestimulus22.png,TMTstop-control_1_3greenlinestimulus22.png,TMTstop-control_1_3redlinestimulus22.png,TMT-Control,3,75,0.0,'--','--',,,,'--','--','--',
None,None,None,TMTstop-control_1_3linestimulus23.png,TMTstop-control_1_3greenlinestimulus23.png,TMTstop-control_1_3redlinestimulus23.png,TMT-Control,3,Feedback_last,0.0,'--','--',,,,'--','--','--',

extraInfo
participant,
session,001
date,2022_Feb_02_1727
expName,TMT_fmri
psychopyVersion,2021.2.3
frameRate,148.21555877189027
﻿NumberLetter,corrAns,Correct,StimFile,Correct_StimFile,False_StimFile,Version,Block,TrialNumber_session,n,Stim.started_raw,Stim.stopped_raw,key_resp_2.corr_mean,key_resp_2.corr_raw,key_resp_2.corr_std,key_resp_2.keys_raw,key_resp_2.started_raw,key_resp_2.stopped_raw,order
1,['2'],2,TMTstop-control_1_4.png,TMTstop-control_1_4.png,TMTstop-control_1_4.png,TMT-Control,4,76,1.0,33.146949080005285,,0.0,0.0,0.0,,33.146949080005285,,0.0
2,['1'],1,TMTstop-control_1_4.png,TMTstop-control_1_4firstgreen.png,TMTstop-control_1_4firstred.png,TMT-Control,4,77,0.0,'--','--',,,,'--','--','--',
3,['3'],3,TMTstop-control_1_4linestimulus0.png,TMTstop-control_1_4greenlinestimulus0.png,TMTstop-control_1_4redlinestimulus0.png,TMT-Control,4,78,0.0,'--','--',,,,'--','--','--',
4,['1'],1,TMTstop-control_1_4linestimulus1.png,TMTstop-control_1_4greenlinestimulus1.png,TMTstop-control_1_4redlinestimulus1.png,TMT-Control,4,79,0.0,'--','--',,,,'--','--','--',
5,['2'],2,TMTstop-control_1_4linestimulus2.png,TMTstop-control_1_4greenlinestimulus2.png,TMTstop-control_1_4redlinestimulus2.png,TMT-Control,4,80,0.0,'--','--',,,,'--','--','--',
6,['1'],1,TMTstop-control_1_4linestimulus3.png,TMTstop-control_1_4greenlinestimulus3.png,TMTstop-control_1_4redlinestimulus3.png,TMT-Control,4,81,0.0,'--','--',,,,'--','--','--',
7,['3'],3,TMTstop-control_1_4linestimulus4.png,TMTstop-control_1_4greenlinestimulus4.png,TMTstop-control_1_4redlinestimulus4.png,TMT-Control,4,82,0.0,'--','--',,,,'--','--','--',
8,['1'],1,TMTstop-control_1_4linestimulus4.png,TMTstop-control_1_4greenlinestimulus5.png,TMTstop-control_1_4redlinestimulus5.png,TMT-Control,4,83,0.0,'--','--',,,,'--','--','--',
9,['2'],2,TMTstop-control_1_4linestimulus6.png,TMTstop-control_1_4greenlinestimulus6.png,TMTstop-control_1_4redlinestimulus6.png,TMT-Control,4,84,0.0,'--','--',,,,'--','--','--',
10,['1'],1,TMTstop-control_1_4linestimulus7.png,TMTstop-control_1_4greenlinestimulus7.png,TMTstop-control_1_4redlinestimulus7.png,TMT-Control,4,85,0.0,'--','--',,,,'--','--','--',
11,['2'],2,TMTstop-control_1_4linestimulus8.png,TMTstop-control_1_4greenlinestimulus8.png,TMTstop-control_1_4redlinestimulus8.png,TMT-Control,4,86,0.0,'--','--',,,,'--','--','--',
12,['1'],1,TMTstop-control_1_4linestimulus9.png,TMTstop-control_1_4greenlinestimulus9.png,TMTstop-control_1_4redlinestimulus9.png,TMT-Control,4,87,0.0,'--','--',,,,'--','--','--',
13,['2'],2,TMTstop-control_1_4linestimulus10.png,TMTstop-control_1_4greenlinestimulus10.png,TMTstop-control_1_4redlinestimulus10.png,TMT-Control,4,88,0.0,'--','--',,,,'--','--','--',
14,['1'],1,TMTstop-control_1_4linestimulus11.png,TMTstop-control_1_4greenlinestimulus11.png,TMTstop-control_1_4redlinestimulus11.png,TMT-Control,4,89,0.0,'--','--',,,,'--','--','--',
15,['2'],2,TMTstop-control_1_4linestimulus12.png,TMTstop-control_1_4greenlinestimulus12.png,TMTstop-control_1_4redlinestimulus12.png,TMT-Control,4,90,0.0,'--','--',,,,'--','--','--',
16,['3'],3,TMTstop-control_1_4linestimulus13.png,TMTstop-control_1_4greenlinestimulus13.png,TMTstop-control_1_4redlinestimulus13.png,TMT-Control,4,91,0.0,'--','--',,,,'--','--','--',
17,['2'],2,TMTstop-control_1_4linestimulus14.png,TMTstop-control_1_4greenlinestimulus14.png,TMTstop-control_1_4redlinestimulus14.png,TMT-Control,4,92,0.0,'--','--',,,,'--','--','--',
18,['3'],3,TMTstop-control_1_4linestimulus15.png,TMTstop-control_1_4greenlinestimulus15.png,TMTstop-control_1_4redlinestimulus15.png,TMT-Control,4,93,0.0,'--','--',,,,'--','--','--',
19,['1'],1,TMTstop-control_1_4linestimulus16.png,TMTstop-control_1_4greenlinestimulus16.png,TMTstop-control_1_4redlinestimulus16.png,TMT-Control,4,94,0.0,'--','--',,,,'--','--','--',
20,['3'],3,TMTstop-control_1_4linestimulus17.png,TMTstop-control_1_4greenlinestimulus17.png,TMTstop-control_1_4redlinestimulus17.png,TMT-Control,4,95,0.0,'--','--',,,,'--','--','--',
21,['2'],2,TMTstop-control_1_4linestimulus18.png,TMTstop-control_1_4greenlinestimulus18.png,TMTstop-control_1_4redlinestimulus18.png,TMT-Control,4,96,0.0,'--','--',,,,'--','--','--',
22,['3'],3,TMTstop-control_1_4linestimulus19.png,TMTstop-control_1_4greenlinestimulus19.png,TMTstop-control_1_4redlinestimulus19.png,TMT-Control,4,97,0.0,'--','--',,,,'--','--','--',
23,['2'],2,TMTstop-control_1_4linestimulus20.png,TMTstop-control_1_4greenlinestimulus20.png,TMTstop-control_1_4redlinestimulus20.png,TMT-Control,4,98,0.0,'--','--',,,,'--','--','--',
24,['1'],1,TMTstop-control_1_4linestimulus21.png,TMTstop-control_1_4greenlinestimulus21.png,TMTstop-control_1_4redlinestimulus21.png,TMT-Control,4,99,0.0,'--','--',,,,'--','--','--',
25,['3'],3,TMTstop-control_1_4linestimulus22.png,TMTstop-control_1_4greenlinestimulus22.png,TMTstop-control_1_4redlinestimulus22.png,TMT-Control,4,100,0.0,'--','--',,,,'--','--','--',
None,None,None,TMTstop-control_1_4linestimulus23.png,TMTstop-control_1_4greenlinestimulus23.png,TMTstop-control_1_4redlinestimulus23.png,TMT-Control,4,Feedback_last,0.0,'--','--',,,,'--','--','--',

extraInfo
participant,
session,001
date,2022_Feb_02_1727
expName,TMT_fmri
psychopyVersion,2021.2.3
frameRate,148.21555877189027
﻿NumberLetter,corrAns,Correct,StimFile,Correct_StimFile,False_StimFile,Version,Block,TrialNumber_session,n,Stim.started_raw,Stim.stopped_raw,key_resp_2.corr_mean,key_resp_2.corr_raw,key_resp_2.corr_std,key_resp_2.keys_raw,key_resp_2.started_raw,key_resp_2.stopped_raw,order
1,['1'],1,TMTstop-control_1_5.png,TMTstop-control_1_5.png,TMTstop-control_1_5.png,TMT-Control,5,101,1.0,36.22915638000704,,0.0,0.0,0.0,,36.22915638000704,,0.0
2,['2'],2,TMTstop-control_1_5.png,TMTstop-control_1_5firstgreen.png,TMTstop-control_1_5firstred.png,TMT-Control,5,102,0.0,'--','--',,,,'--','--','--',
3,['3'],3,TMTstop-control_1_5linestimulus0.png,TMTstop-control_1_5greenlinestimulus0.png,TMTstop-control_1_5redlinestimulus0.png,TMT-Control,5,103,0.0,'--','--',,,,'--','--','--',
4,['1'],1,TMTstop-control_1_5linestimulus1.png,TMTstop-control_1_5greenlinestimulus1.png,TMTstop-control_1_5redlinestimulus1.png,TMT-Control,5,104,0.0,'--','--',,,,'--','--','--',
5,['2'],2,TMTstop-control_1_5linestimulus2.png,TMTstop-control_1_5greenlinestimulus2.png,TMTstop-control_1_5redlinestimulus2.png,TMT-Control,5,105,0.0,'--','--',,,,'--','--','--',
6,['3'],3,TMTstop-control_1_5linestimulus3.png,TMTstop-control_1_5greenlinestimulus3.png,TMTstop-control_1_5redlinestimulus3.png,TMT-Control,5,106,0.0,'--','--',,,,'--','--','--',
7,['2'],2,TMTstop-control_1_5linestimulus4.png,TMTstop-control_1_5greenlinestimulus4.png,TMTstop-control_1_5redlinestimulus4.png,TMT-Control,5,107,0.0,'--','--',,,,'--','--','--',
8,['3'],3,TMTstop-control_1_5linestimulus4.png,TMTstop-control_1_5greenlinestimulus5.png,TMTstop-control_1_5redlinestimulus5.png,TMT-Control,5,108,0.0,'--','--',,,,'--','--','--',
9,['2'],2,TMTstop-control_1_5linestimulus6.png,TMTstop-control_1_5greenlinestimulus6.png,TMTstop-control_1_5redlinestimulus6.png,TMT-Control,5,109,0.0,'--','--',,,,'--','--','--',
10,['3'],3,TMTstop-control_1_5linestimulus7.png,TMTstop-control_1_5greenlinestimulus7.png,TMTstop-control_1_5redlinestimulus7.png,TMT-Control,5,110,0.0,'--','--',,,,'--','--','--',
11,['1'],1,TMTstop-control_1_5linestimulus8.png,TMTstop-control_1_5greenlinestimulus8.png,TMTstop-control_1_5redlinestimulus8.png,TMT-Control,5,111,0.0,'--','--',,,,'--','--','--',
12,['2'],2,TMTstop-control_1_5linestimulus9.png,TMTstop-control_1_5greenlinestimulus9.png,TMTstop-control_1_5redlinestimulus9.png,TMT-Control,5,112,0.0,'--','--',,,,'--','--','--',
13,['1'],1,TMTstop-control_1_5linestimulus10.png,TMTstop-control_1_5greenlinestimulus10.png,TMTstop-control_1_5redlinestimulus10.png,TMT-Control,5,113,0.0,'--','--',,,,'--','--','--',
14,['2'],2,TMTstop-control_1_5linestimulus11.png,TMTstop-control_1_5greenlinestimulus11.png,TMTstop-control_1_5redlinestimulus11.png,TMT-Control,5,114,0.0,'--','--',,,,'--','--','--',
15,['1'],1,TMTstop-control_1_5linestimulus12.png,TMTstop-control_1_5greenlinestimulus12.png,TMTstop-control_1_5redlinestimulus12.png,TMT-Control,5,115,0.0,'--','--',,,,'--','--','--',
16,['3'],3,TMTstop-control_1_5linestimulus13.png,TMTstop-control_1_5greenlinestimulus13.png,TMTstop-control_1_5redlinestimulus13.png,TMT-Control,5,116,0.0,'--','--',,,,'--','--','--',
17,['2'],2,TMTstop-control_1_5linestimulus14.png,TMTstop-control_1_5greenlinestimulus14.png,TMTstop-control_1_5redlinestimulus14.png,TMT-Control,5,117,0.0,'--','--',,,,'--','--','--',
18,['1'],1,TMTstop-control_1_5linestimulus15.png,TMTstop-control_1_5greenlinestimulus15.png,TMTstop-control_1_5redlinestimulus15.png,TMT-Control,5,118,0.0,'--','--',,,,'--','--','--',
19,['3'],3,TMTstop-control_1_5linestimulus16.png,TMTstop-control_1_5greenlinestimulus16.png,TMTstop-control_1_5redlinestimulus16.png,TMT-Control,5,119,0.0,'--','--',,,,'--','--','--',
20,['2'],2,TMTstop-control_1_5linestimulus17.png,TMTstop-control_1_5greenlinestimulus17.png,TMTstop-control_1_5redlinestimulus17.png,TMT-Control,5,120,0.0,'--','--',,,,'--','--','--',
21,['3'],3,TMTstop-control_1_5linestimulus18.png,TMTstop-control_1_5greenlinestimulus18.png,TMTstop-control_1_5redlinestimulus18.png,TMT-Control,5,121,0.0,'--','--',,,,'--','--','--',
22,['2'],2,TMTstop-control_1_5linestimulus19.png,TMTstop-control_1_5greenlinestimulus19.png,TMTstop-control_1_5redlinestimulus19.png,TMT-Control,5,122,0.0,'--','--',,,,'--','--','--',
23,['3'],3,TMTstop-control_1_5linestimulus20.png,TMTstop-control_1_5greenlinestimulus20.png,TMTstop-control_1_5redlinestimulus20.png,TMT-Control,5,123,0.0,'--','--',,,,'--','--','--',
24,['2'],2,TMTstop-control_1_5linestimulus21.png,TMTstop-control_1_5greenlinestimulus21.png,TMTstop-control_1_5redlinestimulus21.png,TMT-Control,5,124,0.0,'--','--',,,,'--','--','--',
25,['3'],3,TMTstop-control_1_5linestimulus22.png,TMTstop-control_1_5greenlinestimulus22.png,TMTstop-control_1_5redlinestimulus22.png,TMT-Control,5,125,0.0,'--','--',,,,'--','--','--',
None,None,None,TMTstop-control_1_5linestimulus23.png,TMTstop-control_1_5greenlinestimulus23.png,TMTstop-control_1_5redlinestimulus23.png,TMT-Control,5,Feedback_last,0.0,'--','--',,,,'--','--','--',

extraInfo
participant,
session,001
date,2022_Feb_02_1727
expName,TMT_fmri
psychopyVersion,2021.2.3
frameRate,148.21555877189027
﻿NumberLetter,corrAns,Correct,StimFile,Correct_StimFile,False_StimFile,Version,Block,TrialNumber_session,n,Stim.started_raw,Stim.stopped_raw,key_resp_2.corr_mean,key_resp_2.corr_raw,key_resp_2.corr_std,key_resp_2.keys_raw,key_resp_2.started_raw,key_resp_2.stopped_raw,order
1,['1'],1,TMTstop-control_1_6.png,TMTstop-control_1_6.png,TMTstop-control_1_6.png,TMT-Control,6,126,1.0,39.31913977996446,,0.0,0.0,0.0,,39.31913977996446,,0.0
2,['3'],3,TMTstop-control_1_6.png,TMTstop-control_1_6firstgreen.png,TMTstop-control_1_6firstred.png,TMT-Control,6,127,0.0,'--','--',,,,'--','--','--',
3,['2'],2,TMTstop-control_1_6linestimulus0.png,TMTstop-control_1_6greenlinestimulus0.png,TMTstop-control_1_6redlinestimulus0.png,TMT-Control,6,128,0.0,'--','--',,,,'--','--','--',
4,['1'],1,TMTstop-control_1_6linestimulus1.png,TMTstop-control_1_6greenlinestimulus1.png,TMTstop-control_1_6redlinestimulus1.png,TMT-Control,6,129,0.0,'--','--',,,,'--','--','--',
5,['3'],3,TMTstop-control_1_6linestimulus2.png,TMTstop-control_1_6greenlinestimulus2.png,TMTstop-control_1_6redlinestimulus2.png,TMT-Control,6,130,0.0,'--','--',,,,'--','--','--',
6,['2'],2,TMTstop-control_1_6linestimulus3.png,TMTstop-control_1_6greenlinestimulus3.png,TMTstop-control_1_6redlinestimulus3.png,TMT-Control,6,131,0.0,'--','--',,,,'--','--','--',
7,['1'],1,TMTstop-control_1_6linestimulus4.png,TMTstop-control_1_6greenlinestimulus4.png,TMTstop-control_1_6redlinestimulus4.png,TMT-Control,6,132,0.0,'--','--',,,,'--','--','--',
8,['2'],2,TMTstop-control_1_6linestimulus4.png,TMTstop-control_1_6greenlinestimulus5.png,TMTstop-control_1_6redlinestimulus5.png,TMT-Control,6,133,0.0,'--','--',,,,'--','--','--',
9,['3'],3,TMTstop-control_1_6linestimulus6.png,TMTstop-control_1_6greenlinestimulus6.png,TMTstop-control_1_6redlinestimulus6.png,TMT-Control,6,134,0.0,'--','--',,,,'--','--','--',
10,['1'],1,TMTstop-control_1_6linestimulus7.png,TMTstop-control_1_6greenlinestimulus7.png,TMTstop-control_1_6redlinestimulus7.png,TMT-Control,6,135,0.0,'--','--',,,,'--','--','--',
11,['3'],3,TMTstop-control_1_6linestimulus8.png,TMTstop-control_1_6greenlinestimulus8.png,TMTstop-control_1_6redlinestimulus8.png,TMT-Control,6,136,0.0,'--','--',,,,'--','--','--',
12,['1'],1,TMTstop-control_1_6linestimulus9.png,TMTstop-control_1_6greenlinestimulus9.png,TMTstop-control_1_6redlinestimulus9.png,TMT-Control,6,137,0.0,'--','--',,,,'--','--','--',
13,['3'],3,TMTstop-control_1_6linestimulus10.png,TMTstop-control_1_6greenlinestimulus10.png,TMTstop-control_1_6redlinestimulus10.png,TMT-Control,6,138,0.0,'--','--',,,,'--','--','--',
14,['1'],1,TMTstop-control_1_6linestimulus11.png,TMTstop-control_1_6greenlinestimulus11.png,TMTstop-control_1_6redlinestimulus11.png,TMT-Control,6,139,0.0,'--','--',,,,'--','--','--',
15,['3'],3,TMTstop-control_1_6linestimulus12.png,TMTstop-control_1_6greenlinestimulus12.png,TMTstop-control_1_6redlinestimulus12.png,TMT-Control,6,140,0.0,'--','--',,,,'--','--','--',
16,['1'],1,TMTstop-control_1_6linestimulus13.png,TMTstop-control_1_6greenlinestimulus13.png,TMTstop-control_1_6redlinestimulus13.png,TMT-Control,6,141,0.0,'--','--',,,,'--','--','--',
17,['2'],2,TMTstop-control_1_6linestimulus14.png,TMTstop-control_1_6greenlinestimulus14.png,TMTstop-control_1_6redlinestimulus14.png,TMT-Control,6,142,0.0,'--','--',,,,'--','--','--',
18,['1'],1,TMTstop-control_1_6linestimulus15.png,TMTstop-control_1_6greenlinestimulus15.png,TMTstop-control_1_6redlinestimulus15.png,TMT-Control,6,143,0.0,'--','--',,,,'--','--','--',
19,['3'],3,TMTstop-control_1_6linestimulus16.png,TMTstop-control_1_6greenlinestimulus16.png,TMTstop-control_1_6redlinestimulus16.png,TMT-Control,6,144,0.0,'--','--',,,,'--','--','--',
20,['1'],1,TMTstop-control_1_6linestimulus17.png,TMTstop-control_1_6greenlinestimulus17.png,TMTstop-control_1_6redlinestimulus17.png,TMT-Control,6,145,0.0,'--','--',,,,'--','--','--',
21,['3'],3,TMTstop-control_1_6linestimulus18.png,TMTstop-control_1_6greenlinestimulus18.png,TMTstop-control_1_6redlinestimulus18.png,TMT-Control,6,146,0.0,'--','--',,,,'--','--','--',
22,['1'],1,TMTstop-control_1_6linestimulus19.png,TMTstop-control_1_6greenlinestimulus19.png,TMTstop-control_1_6redlinestimulus19.png,TMT-Control,6,147,0.0,'--','--',,,,'--','--','--',
23,['3'],3,TMTstop-control_1_6linestimulus20.png,TMTstop-control_1_6greenlinestimulus20.png,TMTstop-control_1_6redlinestimulus20.png,TMT-Control,6,148,0.0,'--','--',,,,'--','--','--',
24,['2'],2,TMTstop-control_1_6linestimulus21.png,TMTstop-control_1_6greenlinestimulus21.png,TMTstop-control_1_6redlinestimulus21.png,TMT-Control,6,149,0.0,'--','--',,,,'--','--','--',
25,['1'],1,TMTstop-control_1_6linestimulus22.png,TMTstop-control_1_6greenlinestimulus22.png,TMTstop-control_1_6redlinestimulus22.png,TMT-Control,6,150,0.0,'--','--',,,,'--','--','--',
None,None,None,TMTstop-control_1_6linestimulus23.png,TMTstop-control_1_6greenlinestimulus23.png,TMTstop-control_1_6redlinestimulus23.png,TMT-Control,6,Feedback_last,0.0,'--','--',,,,'--','--','--',

extraInfo
participant,
session,001
date,2022_Feb_02_1727
expName,TMT_fmri
psychopyVersion,2021.2.3
frameRate,148.21555877189027
