NumberLetter,corrAns,Correct,StimFile,Correct_StimFile,False_StimFile,DurationTrial,trials_TMTControl.thisRepN,trials_TMTControl.thisTrialN,trials_TMTControl.thisN,trials_TMTControl.thisIndex,trials_TMTA.thisRepN,trials_TMTA.thisTrialN,trials_TMTA.thisN,trials_TMTA.thisIndex,trials_TMTB.thisRepN,trials_TMTB.thisTrialN,trials_TMTB.thisN,trials_TMTB.thisIndex,Attempts,First_attempt,Stim.started,Stim.stopped,key_resp_2.keys,key_resp_2.corr,key_resp_2.rt,key_resp_2.started,key_resp_2.stopped,participant,session,date,expName,psychopyVersion,frameRate,
1,['2'],2,TMTstop-control_1_p.png,TMTstop-control_1_p.png,TMTstop-control_1_p.png,10,0,0,0,0,,,,,,,,,1,1,61.49664209999901,None,['2'],1,[2.499125999995158],61.49664209999901,None,,001,2022_Mar_30_1509,TMT_fmri,2021.2.3,143.6459644001473,
2,['1'],1,TMTstop-control_1_p.png,TMTstop-control_1_pfirstgreen.png,TMTstop-control_1_pfirstred.png,10,0,1,1,1,,,,,,,,,1,1,64.0804061999952,None,['1'],1,[0.4973431999969762],64.0804061999952,None,,001,2022_Mar_30_1509,TMT_fmri,2021.2.3,143.6459644001473,
3,['3'],3,TMTstop-control_1_plinestimulus0.png,TMTstop-control_1_pgreenlinestimulus0.png,TMTstop-control_1_predlinestimulus0.png,10,0,2,2,2,,,,,,,,,1,1,64.64951529999962,None,['3'],1,[0.6563472999987425],64.64951529999962,None,,001,2022_Mar_30_1509,TMT_fmri,2021.2.3,143.6459644001473,
4,['1'],1,TMTstop-control_1_plinestimulus1.png,TMTstop-control_1_pgreenlinestimulus1.png,TMTstop-control_1_predlinestimulus1.png,10,0,3,3,3,,,,,,,,,1,1,65.37869509999291,None,['1'],1,[0.47657149999577086],65.37869509999291,None,,001,2022_Mar_30_1509,TMT_fmri,2021.2.3,143.6459644001473,
5,['3'],3,TMTstop-control_1_plinestimulus2.png,TMTstop-control_1_pgreenlinestimulus2.png,TMTstop-control_1_predlinestimulus2.png,10,0,4,4,4,,,,,,,,,1,1,65.94128459999047,None,['3'],1,[0.35466709999309387],65.94128459999047,None,,001,2022_Mar_30_1509,TMT_fmri,2021.2.3,143.6459644001473,
6,['1'],1,TMTstop-control_1_plinestimulus3.png,TMTstop-control_1_pgreenlinestimulus3.png,TMTstop-control_1_predlinestimulus3.png,10,0,5,5,5,,,,,,,,,1,1,66.3785288999934,None,['1'],1,[0.29110109999601264],66.3785288999934,None,,001,2022_Mar_30_1509,TMT_fmri,2021.2.3,143.6459644001473,
7,['3'],3,TMTstop-control_1_plinestimulus4.png,TMTstop-control_1_pgreenlinestimulus4.png,TMTstop-control_1_predlinestimulus4.png,10,0,6,6,6,,,,,,,,,1,1,66.73990699999558,None,['3'],1,[0.36139259999617934],66.73990699999558,None,,001,2022_Mar_30_1509,TMT_fmri,2021.2.3,143.6459644001473,
8,['1'],1,TMTstop-control_1_plinestimulus4.png,TMTstop-control_1_pgreenlinestimulus5.png,TMTstop-control_1_predlinestimulus5.png,10,0,7,7,7,,,,,,,,,1,1,67.17719619999116,None,['1'],1,[0.3151771999982884],67.17719619999116,None,,001,2022_Mar_30_1509,TMT_fmri,2021.2.3,143.6459644001473,
9,['2'],2,TMTstop-control_1_plinestimulus6.png,TMTstop-control_1_pgreenlinestimulus6.png,TMTstop-control_1_predlinestimulus6.png,10,0,8,8,8,,,,,,,,,1,1,67.56615050000255,None,['2'],1,[0.19372420001309365],67.56615050000255,None,,001,2022_Mar_30_1509,TMT_fmri,2021.2.3,143.6459644001473,
10,['3'],3,TMTstop-control_1_plinestimulus7.png,TMTstop-control_1_pgreenlinestimulus7.png,TMTstop-control_1_predlinestimulus7.png,10,0,9,9,9,,,,,,,,,1,1,67.83009639999364,None,['3'],1,[0.27159990000654943],67.83009639999364,None,,001,2022_Mar_30_1509,TMT_fmri,2021.2.3,143.6459644001473,
11,['2'],2,TMTstop-control_1_plinestimulus8.png,TMTstop-control_1_pgreenlinestimulus8.png,TMTstop-control_1_predlinestimulus8.png,10,0,10,10,10,,,,,,,,,2,0,68.177145499998,None,"['1', '2']",1,"[0.11614179999742191, 0.245671399999992]",68.177145499998,None,,001,2022_Mar_30_1509,TMT_fmri,2021.2.3,143.6459644001473,
12,['3'],3,TMTstop-control_1_plinestimulus9.png,TMTstop-control_1_pgreenlinestimulus9.png,TMTstop-control_1_predlinestimulus9.png,10,0,11,11,11,,,,,,,,,1,1,68.52480199999991,None,['3'],1,[0.007375700006377883],68.52480199999991,None,,001,2022_Mar_30_1509,TMT_fmri,2021.2.3,143.6459644001473,
13,['1'],1,TMTstop-control_1_plinestimulus10.png,TMTstop-control_1_pgreenlinestimulus10.png,TMTstop-control_1_predlinestimulus10.png,1,0,12,12,12,,,,,,,,,1,1,68.61520200000086,None,['1'],1,[0.07346260000485927],68.61520200000086,None,,001,2022_Mar_30_1509,TMT_fmri,2021.2.3,143.6459644001473,
14,['2'],2,TMTstop-control_1_plinestimulus11.png,TMTstop-control_1_pgreenlinestimulus11.png,TMTstop-control_1_predlinestimulus11.png,None,0,13,13,13,,,,,,,,,1,1,68.77446590000181,None,['2'],1,[-0.009815800003707409],68.77446590000181,None,,001,2022_Mar_30_1509,TMT_fmri,2021.2.3,143.6459644001473,
15,['3'],3,TMTstop-control_1_plinestimulus12.png,TMTstop-control_1_pgreenlinestimulus12.png,TMTstop-control_1_predlinestimulus12.png,None,0,14,14,14,,,,,,,,,1,1,68.85780830000294,None,['3'],1,[0.02126900000439491],68.85780830000294,None,,001,2022_Mar_30_1509,TMT_fmri,2021.2.3,143.6459644001473,
16,['1'],1,TMTstop-control_1_plinestimulus13.png,TMTstop-control_1_pgreenlinestimulus13.png,TMTstop-control_1_predlinestimulus13.png,None,0,15,15,15,,,,,,,,,1,1,68.95500079999329,None,['1'],1,[0.062348899999051355],68.95500079999329,None,,001,2022_Mar_30_1509,TMT_fmri,2021.2.3,143.6459644001473,
17,['3'],3,TMTstop-control_1_plinestimulus14.png,TMTstop-control_1_pgreenlinestimulus14.png,TMTstop-control_1_predlinestimulus14.png,None,0,16,16,16,,,,,,,,,2,0,69.09421270000166,None,"['2', '3']",1,"[0.016131900003529154, 0.11365250000380911]",69.09421270000166,None,,001,2022_Mar_30_1509,TMT_fmri,2021.2.3,143.6459644001473,
18,['1'],1,TMTstop-control_1_plinestimulus15.png,TMTstop-control_1_pgreenlinestimulus15.png,TMTstop-control_1_predlinestimulus15.png,None,0,17,17,17,,,,,,,,,1,1,69.30388510000193,None,['1'],1,[0.017139500007033348],69.30388510000193,None,,001,2022_Mar_30_1509,TMT_fmri,2021.2.3,143.6459644001473,
19,['3'],3,TMTstop-control_1_plinestimulus16.png,TMTstop-control_1_pgreenlinestimulus16.png,TMTstop-control_1_predlinestimulus16.png,None,0,18,18,18,,,,,,,,,2,0,69.41468580000219,None,"['2', '3']",1,"[0.038550500001292676, 0.12648120000085328]",69.41468580000219,None,,001,2022_Mar_30_1509,TMT_fmri,2021.2.3,143.6459644001473,
20,['2'],2,TMTstop-control_1_plinestimulus17.png,TMTstop-control_1_pgreenlinestimulus17.png,TMTstop-control_1_predlinestimulus17.png,None,0,19,19,19,,,,,,,,,2,0,69.64955239999108,None,"['1', '2']",1,"[0.04438920000393409, 0.0986001999990549]",69.64955239999108,None,,001,2022_Mar_30_1509,TMT_fmri,2021.2.3,143.6459644001473,
21,['1'],1,TMTstop-control_1_plinestimulus18.png,TMTstop-control_1_pgreenlinestimulus18.png,TMTstop-control_1_predlinestimulus18.png,None,0,20,20,20,,,,,,,,,2,0,69.85762850000174,None,"['3', '1']",1,"[0.00034749999758787453, 0.13295800000196323]",69.85762850000174,None,,001,2022_Mar_30_1509,TMT_fmri,2021.2.3,143.6459644001473,
22,['3'],3,TMTstop-control_1_plinestimulus19.png,TMTstop-control_1_pgreenlinestimulus19.png,TMTstop-control_1_predlinestimulus19.png,None,0,21,21,21,,,,,,,,,2,0,70.09407829999691,None,"['2', '3']",1,"[-0.008466900006169453, 0.0751414999976987]",70.09407829999691,None,,001,2022_Mar_30_1509,TMT_fmri,2021.2.3,143.6459644001473,
23,['2'],2,TMTstop-control_1_plinestimulus20.png,TMTstop-control_1_pgreenlinestimulus20.png,TMTstop-control_1_predlinestimulus20.png,None,0,22,22,22,,,,,,,,,2,0,70.25411100000201,None,"['1', '2']",1,"[0.053389599997899495, 0.14468920000945218]",70.25411100000201,None,,001,2022_Mar_30_1509,TMT_fmri,2021.2.3,143.6459644001473,
24,['1'],1,TMTstop-control_1_plinestimulus21.png,TMTstop-control_1_pgreenlinestimulus21.png,TMTstop-control_1_predlinestimulus21.png,None,0,23,23,23,,,,,,,,,2,0,70.5107577000017,None,"['3', '1']",1,"[-0.03353650000644848, 0.10475529999530409]",70.5107577000017,None,,001,2022_Mar_30_1509,TMT_fmri,2021.2.3,143.6459644001473,
25,['3'],3,TMTstop-control_1_plinestimulus22.png,TMTstop-control_1_pgreenlinestimulus22.png,TMTstop-control_1_predlinestimulus22.png,None,0,24,24,24,,,,,,,,,2,0,70.71199899999192,None,"['2', '3']",1,"[0.02181570000539068, 0.08573350000369828]",70.71199899999192,None,,001,2022_Mar_30_1509,TMT_fmri,2021.2.3,143.6459644001473,
None,None,None,TMTstop-control_1_plinestimulus23.png,TMTstop-control_1_pgreenlinestimulus23.png,TMTstop-control_1_predlinestimulus23.png,None,0,25,25,25,,,,,,,,,3,0,70.89344030000211,None,"['1', '2', '3']",0,"[0.02777359999890905, 0.11063250000006519, 0.2075014000001829]",70.89344030000211,None,,001,2022_Mar_30_1509,TMT_fmri,2021.2.3,143.6459644001473,
1,['3'],3,TMTstop-A_1_p.png,TMTstop-A_1_p.png,TMTstop-A_1_p.png,10,,,,,0,0,0,0,,,,,3,0,75.7947021,None,"['1', '2', '3']",1,"[0.4694971999997506, 0.60918899999524, 0.6313060999964364]",75.7947021,None,,001,2022_Mar_30_1509,TMT_fmri,2021.2.3,143.6459644001473,
2,['1'],1,TMTstop-A_1_p.png,TMTstop-A_1_pfirstgreen.png,TMTstop-A_1_pfirstred.png,10,,,,,0,1,1,1,,,,,1,1,76.51124100000015,None,['1'],1,[0.11248899999191053],76.51124100000015,None,,001,2022_Mar_30_1509,TMT_fmri,2021.2.3,143.6459644001473,
3,['2'],2,TMTstop-A_1_plinestimulus0.png,TMTstop-A_1_pgreenlinestimulus0.png,TMTstop-A_1_predlinestimulus0.png,10,,,,,0,2,2,2,,,,,1,1,76.71927400000277,None,['2'],1,[-0.04589449999912176],76.71927400000277,None,,001,2022_Mar_30_1509,TMT_fmri,2021.2.3,143.6459644001473,
4,['1'],1,TMTstop-A_1_plinestimulus1.png,TMTstop-A_1_pgreenlinestimulus1.png,TMTstop-A_1_predlinestimulus1.png,10,,,,,0,3,3,3,,,,,2,0,76.80289269999776,None,"['3', '1']",1,"[-0.022679599991533905, 0.14712799999688286]",76.80289269999776,None,,001,2022_Mar_30_1509,TMT_fmri,2021.2.3,143.6459644001473,
5,['2'],2,TMTstop-A_1_plinestimulus2.png,TMTstop-A_1_pgreenlinestimulus2.png,TMTstop-A_1_predlinestimulus2.png,10,,,,,0,4,4,4,,,,,1,1,77.05919040000299,None,['2'],1,[-0.06531420000828803],77.05919040000299,None,,001,2022_Mar_30_1509,TMT_fmri,2021.2.3,143.6459644001473,
6,['1'],1,TMTstop-A_1_plinestimulus3.png,TMTstop-A_1_pgreenlinestimulus3.png,TMTstop-A_1_predlinestimulus3.png,10,,,,,0,5,5,5,,,,,2,0,77.13613849999092,None,"['3', '1']",1,"[-0.03616610000608489, 0.08919040000182576]",77.13613849999092,None,,001,2022_Mar_30_1509,TMT_fmri,2021.2.3,143.6459644001473,
7,['2'],2,TMTstop-A_1_plinestimulus4.png,TMTstop-A_1_pgreenlinestimulus4.png,TMTstop-A_1_predlinestimulus4.png,10,,,,,0,6,6,6,,,,,1,1,77.30206289999478,None,['2'],1,[-0.002744199999142438],77.30206289999478,None,,001,2022_Mar_30_1509,TMT_fmri,2021.2.3,143.6459644001473,
8,['1'],1,TMTstop-A_1_plinestimulus5.png,TMTstop-A_1_pgreenlinestimulus5.png,TMTstop-A_1_predlinestimulus5.png,10,,,,,0,7,7,7,,,,,2,0,77.3784760999988,None,"['3', '1']",1,"[-0.006362000000081025, 0.11553640000056475]",77.3784760999988,None,,001,2022_Mar_30_1509,TMT_fmri,2021.2.3,143.6459644001473,
9,['2'],2,TMTstop-A_1_plinestimulus6.png,TMTstop-A_1_pgreenlinestimulus6.png,TMTstop-A_1_predlinestimulus6.png,10,,,,,0,8,8,8,,,,,1,1,77.57981189999555,None,['2'],1,[0.01115140000183601],77.57981189999555,None,,001,2022_Mar_30_1509,TMT_fmri,2021.2.3,143.6459644001473,
10,['1'],1,TMTstop-A_1_plinestimulus7.png,TMTstop-A_1_pgreenlinestimulus7.png,TMTstop-A_1_predlinestimulus7.png,10,,,,,0,9,9,9,,,,,2,0,77.66343600000255,None,"['3', '1']",1,"[-0.002895500001613982, 0.12929490000533406]",77.66343600000255,None,,001,2022_Mar_30_1509,TMT_fmri,2021.2.3,143.6459644001473,
11,['2'],2,TMTstop-A_1_plinestimulus8.png,TMTstop-A_1_pgreenlinestimulus8.png,TMTstop-A_1_predlinestimulus8.png,10,,,,,0,10,10,10,,,,,1,1,77.9062058999989,None,['2'],1,[-0.02168340000207536],77.9062058999989,None,,001,2022_Mar_30_1509,TMT_fmri,2021.2.3,143.6459644001473,
12,['1'],1,TMTstop-A_1_plinestimulus9.png,TMTstop-A_1_pgreenlinestimulus9.png,TMTstop-A_1_predlinestimulus9.png,10,,,,,0,11,11,11,,,,,2,0,77.98348959999566,None,"['3', '1']",1,"[-0.004282399997464381, 0.12552230000437703]",77.98348959999566,None,,001,2022_Mar_30_1509,TMT_fmri,2021.2.3,143.6459644001473,
13,['2'],2,TMTstop-A_1_plinestimulus10.png,TMTstop-A_1_pgreenlinestimulus10.png,TMTstop-A_1_predlinestimulus10.png,1,,,,,0,12,12,12,,,,,1,1,78.2255765000009,None,['2'],1,[-0.0266020999988541],78.2255765000009,None,,001,2022_Mar_30_1509,TMT_fmri,2021.2.3,143.6459644001473,
14,['3'],3,TMTstop-A_1_plinestimulus11.png,TMTstop-A_1_pgreenlinestimulus11.png,TMTstop-A_1_predlinestimulus11.png,None,,,,,0,13,13,13,,,,,1,1,78.30239149999397,None,['3'],1,[-0.022481099993456155],78.30239149999397,None,,001,2022_Mar_30_1509,TMT_fmri,2021.2.3,143.6459644001473,
15,['1'],1,TMTstop-A_1_plinestimulus12.png,TMTstop-A_1_pgreenlinestimulus12.png,TMTstop-A_1_predlinestimulus12.png,None,,,,,0,14,14,14,,,,,1,1,78.37853719999839,None,['1'],1,[0.03851720000966452],78.37853719999839,None,,001,2022_Mar_30_1509,TMT_fmri,2021.2.3,143.6459644001473,
16,['3'],3,TMTstop-A_1_plinestimulus13.png,TMTstop-A_1_pgreenlinestimulus13.png,TMTstop-A_1_predlinestimulus13.png,None,,,,,0,15,15,15,,,,,2,0,78.4964195999928,None,"['2', '3']",1,"[0.01854760000423994, 0.10976900000241585]",78.4964195999928,None,,001,2022_Mar_30_1509,TMT_fmri,2021.2.3,143.6459644001473,
17,['1'],1,TMTstop-A_1_plinestimulus14.png,TMTstop-A_1_pgreenlinestimulus14.png,TMTstop-A_1_predlinestimulus14.png,None,,,,,0,16,16,16,,,,,1,1,78.68503649999911,None,['1'],1,[0.033955999999307096],78.68503649999911,None,,001,2022_Mar_30_1509,TMT_fmri,2021.2.3,143.6459644001473,
18,['2'],2,TMTstop-A_1_plinestimulus15.png,TMTstop-A_1_pgreenlinestimulus15.png,TMTstop-A_1_predlinestimulus15.png,None,,,,,0,17,17,17,,,,,1,1,78.8020916999958,None,['2'],1,[0.02779730000474956],78.8020916999958,None,,001,2022_Mar_30_1509,TMT_fmri,2021.2.3,143.6459644001473,
19,['3'],3,TMTstop-A_1_plinestimulus16.png,TMTstop-A_1_pgreenlinestimulus16.png,TMTstop-A_1_predlinestimulus16.png,None,,,,,0,18,18,18,,,,,1,1,78.90620499999204,None,['3'],1,[0.005857199997990392],78.90620499999204,None,,001,2022_Mar_30_1509,TMT_fmri,2021.2.3,143.6459644001473,
20,['2'],2,TMTstop-A_1_plinestimulus17.png,TMTstop-A_1_pgreenlinestimulus17.png,TMTstop-A_1_predlinestimulus17.png,None,,,,,0,19,19,19,,,,,2,0,78.99672209999699,None,"['1', '2']",1,"[0.04999520001001656, 0.13132580000092275]",78.99672209999699,None,,001,2022_Mar_30_1509,TMT_fmri,2021.2.3,143.6459644001473,
21,['3'],3,TMTstop-A_1_plinestimulus18.png,TMTstop-A_1_pgreenlinestimulus18.png,TMTstop-A_1_predlinestimulus18.png,None,,,,,0,20,20,20,,,,,1,1,79.21173650000128,None,['3'],1,[0.022802299994509667],79.21173650000128,None,,001,2022_Mar_30_1509,TMT_fmri,2021.2.3,143.6459644001473,
22,['1'],1,TMTstop-A_1_plinestimulus19.png,TMTstop-A_1_pgreenlinestimulus19.png,TMTstop-A_1_predlinestimulus19.png,None,,,,,0,21,21,21,,,,,1,1,79.30886669999745,None,['1'],1,[0.04021590000775177],79.30886669999745,None,,001,2022_Mar_30_1509,TMT_fmri,2021.2.3,143.6459644001473,
23,['2'],2,TMTstop-A_1_plinestimulus20.png,TMTstop-A_1_pgreenlinestimulus20.png,TMTstop-A_1_predlinestimulus20.png,None,,,,,0,22,22,22,,,,,1,1,79.42040469999483,None,['2'],1,[0.05536949999805074],79.42040469999483,None,,001,2022_Mar_30_1509,TMT_fmri,2021.2.3,143.6459644001473,
24,['3'],3,TMTstop-A_1_plinestimulus21.png,TMTstop-A_1_pgreenlinestimulus21.png,TMTstop-A_1_predlinestimulus21.png,None,,,,,0,23,23,23,,,,,1,1,79.5671990999981,None,['3'],1,[-0.015319600002840161],79.5671990999981,None,,001,2022_Mar_30_1509,TMT_fmri,2021.2.3,143.6459644001473,
25,['2'],2,TMTstop-A_1_plinestimulus22.png,TMTstop-A_1_pgreenlinestimulus22.png,TMTstop-A_1_predlinestimulus22.png,None,,,,,0,24,24,24,,,,,2,0,79.65747560000455,None,"['1', '2']",1,"[0.011301899998215958, 0.10445539999636821]",79.65747560000455,None,,001,2022_Mar_30_1509,TMT_fmri,2021.2.3,143.6459644001473,
None,None,None,TMTstop-A_1_plinestimulus23.png,TMTstop-A_1_pgreenlinestimulus23.png,TMTstop-A_1_predlinestimulus23.png,None,,,,,0,25,25,25,,,,,7,0,79.8436531000043,None,"['3', '1', '2', '3', '1', '2', '3']",0,"[0.019841200002701953, 0.1607668999931775, 0.2538854000013089, 0.36833329999353737, 0.5240807999944082, 0.5979291999974521, 0.7056880000018282]",79.8436531000043,None,,001,2022_Mar_30_1509,TMT_fmri,2021.2.3,143.6459644001473,
1,['3'],3,TMTstop-B_1_p.png,TMTstop-B_1_p.png,TMTstop-B_1_p.png,10,,,,,,,,,0,0,0,0,1,1,92.05817950000346,None,['3'],1,[2.1949454999994487],92.05817950000346,None,,001,2022_Mar_30_1509,TMT_fmri,2021.2.3,143.6459644001473,
A,['1'],1,TMTstop-B_1_p.png,TMTstop-B_1_pfirstgreen.png,TMTstop-B_1_pfirstred.png,10,,,,,,,,,0,1,1,1,1,1,94.32919150000089,None,['1'],1,[0.4244796999992104],94.32919150000089,None,,001,2022_Mar_30_1509,TMT_fmri,2021.2.3,143.6459644001473,
2,['2'],2,TMTstop-B_1_plinestimulus0.png,TMTstop-B_1_pgreenlinestimulus0.png,TMTstop-B_1_predlinestimulus0.png,10,,,,,,,,,0,2,2,2,1,1,94.82936069999414,None,['2'],1,[0.08524659999238793],94.82936069999414,None,,001,2022_Mar_30_1509,TMT_fmri,2021.2.3,143.6459644001473,
B,['3'],3,TMTstop-B_1_plinestimulus1.png,TMTstop-B_1_pgreenlinestimulus1.png,TMTstop-B_1_predlinestimulus1.png,10,,,,,,,,,0,3,3,3,1,1,94.99605220000376,None,['3'],1,[0.04470410000067204],94.99605220000376,None,,001,2022_Mar_30_1509,TMT_fmri,2021.2.3,143.6459644001473,
3,['1'],1,TMTstop-B_1_plinestimulus2.png,TMTstop-B_1_pgreenlinestimulus2.png,TMTstop-B_1_predlinestimulus2.png,10,,,,,,,,,0,4,4,4,1,1,95.1217750999931,None,['1'],1,[0.11783620000642259],95.1217750999931,None,,001,2022_Mar_30_1509,TMT_fmri,2021.2.3,143.6459644001473,
C,['3'],3,TMTstop-B_1_plinestimulus3.png,TMTstop-B_1_pgreenlinestimulus3.png,TMTstop-B_1_predlinestimulus3.png,10,,,,,,,,,0,5,5,5,2,0,95.32244590000482,None,"['2', '3']",1,"[-0.011831900003016926, 0.09256289999757428]",95.32244590000482,None,,001,2022_Mar_30_1509,TMT_fmri,2021.2.3,143.6459644001473,
4,['1'],1,TMTstop-B_1_plinestimulus4.png,TMTstop-B_1_pgreenlinestimulus4.png,TMTstop-B_1_predlinestimulus4.png,10,,,,,,,,,0,6,6,6,1,1,95.52385810000123,None,['1'],1,[0.03588000001036562],95.52385810000123,None,,001,2022_Mar_30_1509,TMT_fmri,2021.2.3,143.6459644001473,
D,['3'],3,TMTstop-B_1_plinestimulus5.png,TMTstop-B_1_pgreenlinestimulus5.png,TMTstop-B_1_predlinestimulus5.png,10,,,,,,,,,0,7,7,7,2,0,95.6349293999956,None,"['2', '3']",1,"[0.0018477999983588234, 0.09665829999721609]",95.6349293999956,None,,001,2022_Mar_30_1509,TMT_fmri,2021.2.3,143.6459644001473,
5,['2'],2,TMTstop-B_1_plinestimulus6.png,TMTstop-B_1_pgreenlinestimulus6.png,TMTstop-B_1_predlinestimulus6.png,10,,,,,,,,,0,8,8,8,2,0,95.80852809999487,None,"['1', '2']",1,"[0.02155499999935273, 0.12971929999184795]",95.80852809999487,None,,001,2022_Mar_30_1509,TMT_fmri,2021.2.3,143.6459644001473,
E,['1'],1,TMTstop-B_1_plinestimulus7.png,TMTstop-B_1_pgreenlinestimulus7.png,TMTstop-B_1_predlinestimulus7.png,10,,,,,,,,,0,9,9,9,2,0,96.03783659999317,None,"['3', '1']",1,"[-0.010885800002142787, 0.10482380000757985]",96.03783659999317,None,,001,2022_Mar_30_1509,TMT_fmri,2021.2.3,143.6459644001473,
6,['3'],3,TMTstop-B_1_plinestimulus8.png,TMTstop-B_1_pgreenlinestimulus8.png,TMTstop-B_1_predlinestimulus8.png,10,,,,,,,,,0,10,10,10,2,0,96.2392317000049,None,"['2', '3']",1,"[-0.011182799993548542, 0.08157530000607949]",96.2392317000049,None,,001,2022_Mar_30_1509,TMT_fmri,2021.2.3,143.6459644001473,
F,['1'],1,TMTstop-B_1_plinestimulus9.png,TMTstop-B_1_pgreenlinestimulus9.png,TMTstop-B_1_predlinestimulus9.png,10,,,,,,,,,0,11,11,11,1,1,96.39883079999709,None,['1'],1,[0.022495400000480004],96.39883079999709,None,,001,2022_Mar_30_1509,TMT_fmri,2021.2.3,143.6459644001473,
,,,,,,,,,,,,,,,,,,,1,1,,,,,,,,,,,,,,
