NumberLetter,corrAns,StimFile,Correct_StimFile,False_StimFile,DurationTrial,restartpractice.thisRepN,restartpractice.thisTrialN,restartpractice.thisN,restartpractice.thisIndex,trials_practice.thisRepN,trials_practice.thisTrialN,trials_practice.thisN,trials_practice.thisIndex,trials.thisRepN,trials.thisTrialN,trials.thisN,trials.thisIndex,trials_2.thisRepN,trials_2.thisTrialN,trials_2.thisN,trials_2.thisIndex,trials_3.thisRepN,trials_3.thisTrialN,trials_3.thisN,trials_3.thisIndex,trials_4.thisRepN,trials_4.thisTrialN,trials_4.thisN,trials_4.thisIndex,Instruct.started,Instruct.stopped,text_2.started,text_2.stopped,polygon.started,polygon.stopped,Stim_practice.started,Stim_practice.stopped,key_resp_practice.keys,key_resp_practice.rt,key_resp_practice.started,key_resp_practice.stopped,text_5.started,text_5.stopped,key_resp_5.keys,key_resp_5.rt,key_resp_5.started,key_resp_5.stopped,Stim.started,Stim.stopped,key_resp_2.keys,key_resp_2.corr,key_resp_2.rt,key_resp_2.started,key_resp_2.stopped,text.started,text.stopped,participant,session,date,expName,psychopyVersion,frameRate,
1,['1'],TMTstop-A_1_practice.png,TMTstop-A_1_practice.png,TMTstop-A_1_practice.png,10,0,0,0,0,0,0,0,0,,,,,,,,,,,,,,,,,12.838808899992728,None,12.838808899992728,None,13.827852099988377,None,16.895197399993776,None,1,0.9937718000001041,16.895197399993776,None,,,,,,,,,,,,,,,,,001,2021_Nov_17_1114,TMTAB,2021.2.3,145.7598460760572,
2,['2'],TMTstop-A_1_practice.png,TMTstop-A_1_practicefirstgreen.png,TMTstop-A_1_practicefirstred.png,10,0,0,0,0,0,1,1,1,,,,,,,,,,,,,,,,,,,,,,,17.989704899999197,None,2,0.23659369999950286,17.989704899999197,None,,,,,,,,,,,,,,,,,001,2021_Nov_17_1114,TMTAB,2021.2.3,145.7598460760572,
3,['3'],TMTstop-A_1_practicelinestimulus0.png,TMTstop-A_1_practicegreenlinestimulus0.png,TMTstop-A_1_practiceredlinestimulus0.png,10,0,0,0,0,0,2,2,2,,,,,,,,,,,,,,,,,,,,,,,18.302550199994585,None,3,0.074192399988533,18.302550199994585,None,,,,,,,,,,,,,,,,,001,2021_Nov_17_1114,TMTAB,2021.2.3,145.7598460760572,
4,['1'],TMTstop-A_1_practicelinestimulus1.png,TMTstop-A_1_practicegreenlinestimulus1.png,TMTstop-A_1_practiceredlinestimulus1.png,10,0,0,0,0,0,3,3,3,,,,,,,,,,,,,,,,,,,,,,,18.47756039998785,None,1,0.017581099993549287,18.47756039998785,None,,,,,,,,,,,,,,,,,001,2021_Nov_17_1114,TMTAB,2021.2.3,145.7598460760572,
5,['2'],TMTstop-A_1_practicelinestimulus2.png,TMTstop-A_1_practicegreenlinestimulus2.png,TMTstop-A_1_practiceredlinestimulus2.png,10,0,0,0,0,0,4,4,4,,,,,,,,,,,,,,,,,,,,,,,18.580108699999982,None,2,0.019906799992895685,18.580108699999982,None,,,,,,,,,,,,,,,,,001,2021_Nov_17_1114,TMTAB,2021.2.3,145.7598460760572,
6,['3'],TMTstop-A_1_practicelinestimulus3.png,TMTstop-A_1_practicegreenlinestimulus3.png,TMTstop-A_1_practiceredlinestimulus3.png,10,0,0,0,0,0,5,5,5,,,,,,,,,,,,,,,,,,,,,,,18.686481400000048,None,3,0.016059300003689714,18.686481400000048,None,,,,,,,,,,,,,,,,,001,2021_Nov_17_1114,TMTAB,2021.2.3,145.7598460760572,
7,['1'],TMTstop-A_1_practicelinestimulus4.png,TMTstop-A_1_practicegreenlinestimulus4.png,TMTstop-A_1_practiceredlinestimulus4.png,10,0,0,0,0,0,6,6,6,,,,,,,,,,,,,,,,,,,,,,,18.788805499993032,None,1,0.03313569999590982,18.788805499993032,None,,,,,,,,,,,,,,,,,001,2021_Nov_17_1114,TMTAB,2021.2.3,145.7598460760572,
8,['3'],TMTstop-A_1_practicelinestimulus5.png,TMTstop-A_1_practicegreenlinestimulus5.png,TMTstop-A_1_practiceredlinestimulus5.png,10,0,0,0,0,0,7,7,7,,,,,,,,,,,,,,,,,,,,,,,18.90691139998671,None,3,0.10390850000840146,18.90691139998671,None,,,,,,,,,,,,,,,,,001,2021_Nov_17_1114,TMTAB,2021.2.3,145.7598460760572,
9,['2'],TMTstop-A_1_practicelinestimulus6.png,TMTstop-A_1_practicegreenlinestimulus6.png,TMTstop-A_1_practiceredlinestimulus6.png,10,0,0,0,0,0,8,8,8,,,,,,,,,,,,,,,,,,,,,,,19.146921999999904,None,2,0.03480390000913758,19.146921999999904,None,,,,,,,,,,,,,,,,,001,2021_Nov_17_1114,TMTAB,2021.2.3,145.7598460760572,
10,['3'],TMTstop-A_1_practicelinestimulus7.png,TMTstop-A_1_practicegreenlinestimulus7.png,TMTstop-A_1_practiceredlinestimulus7.png,10,0,0,0,0,0,9,9,9,,,,,,,,,,,,,,,,,,,,,,,19.312247099995147,None,3,0.3014429999893764,19.312247099995147,None,,,,,,,,,,,,,,,,,001,2021_Nov_17_1114,TMTAB,2021.2.3,145.7598460760572,
11,['1'],TMTstop-A_1_practicelinestimulus8.png,TMTstop-A_1_practicegreenlinestimulus8.png,TMTstop-A_1_practiceredlinestimulus8.png,10,0,0,0,0,0,10,10,10,,,,,,,,,,,,,,,,,,,,,,,19.72637719998602,None,1,0.013814099991577677,19.72637719998602,None,,,,,,,,,,,,,,,,,001,2021_Nov_17_1114,TMTAB,2021.2.3,145.7598460760572,
12,['2'],TMTstop-A_1_practicelinestimulus9.png,TMTstop-A_1_practicegreenlinestimulus9.png,TMTstop-A_1_practiceredlinestimulus9.png,10,0,0,0,0,0,11,11,11,,,,,,,,,,,,,,,,,,,,,,,19.816389499988873,None,2,0.0019742000004043803,19.816389499988873,None,,,,,,,,,,,,,,,,,001,2021_Nov_17_1114,TMTAB,2021.2.3,145.7598460760572,
None,None,TMTstop-A_1_practicelinestimulus10.png,TMTstop-A_1_practicegreenlinestimulus10.png,TMTstop-A_1_practiceredlinestimulus10.png,None,0,0,0,0,0,12,12,12,,,,,,,,,,,,,,,,,,,,,,,19.920364699995844,None,3,0.0021069000067654997,19.920364699995844,None,,,,,,,,,,,,,,,,,001,2021_Nov_17_1114,TMTAB,2021.2.3,145.7598460760572,
,,,,,,0,0,0,0,,,,,,,,,,,,,,,,,,,,,,,,,,,,,,,,,21.028863499988802,None,2,0.529006600001594,21.028863499988802,None,,,,,,,,,,,001,2021_Nov_17_1114,TMTAB,2021.2.3,145.7598460760572,
1,['2'],TMTstop-A_1_1.png,TMTstop-A_1_1.png,TMTstop-A_1_1.png,10,,,,,,,,,0,0,0,0,,,,,,,,,,,,,,,,,21.577407799995854,None,,,,,,,,,,,,,24.628297399991425,None,['2'],1,[2.1143920999893453],24.628297399991425,None,,,,001,2021_Nov_17_1114,TMTAB,2021.2.3,145.7598460760572,
2,['1'],TMTstop-A_1_1.png,TMTstop-A_1_1firstgreen.png,TMTstop-A_1_1firstred.png,10,,,,,,,,,0,1,1,1,,,,,,,,,,,,,,,,,,,,,,,,,,,,,,,26.83674639998935,None,"['2', '1']",1,"[0.3315225999976974, 0.5496017999976175]",26.83674639998935,None,,,,001,2021_Nov_17_1114,TMTAB,2021.2.3,145.7598460760572,
3,['2'],TMTstop-A_1_1linestimulus0.png,TMTstop-A_1_1greenlinestimulus0.png,TMTstop-A_1_1redlinestimulus0.png,10,,,,,,,,,0,2,2,2,,,,,,,,,,,,,,,,,,,,,,,,,,,,,,,27.469002699988778,None,"['3', '1', '2']",1,"[0.10506170000007842, 0.2848228999937419, 5.057857399995555]",27.469002699988778,None,,,,001,2021_Nov_17_1114,TMTAB,2021.2.3,145.7598460760572,
4,['3'],TMTstop-A_1_1linestimulus1.png,TMTstop-A_1_1greenlinestimulus1.png,TMTstop-A_1_1redlinestimulus1.png,10,,,,,,,,,0,3,3,3,,,,,,,,,,,,,,,,,,,,,,,,,,,,,,,32.635532599990256,None,['3'],1,[0.4486459999898216],32.635532599990256,None,,,,001,2021_Nov_17_1114,TMTAB,2021.2.3,145.7598460760572,
5,['2'],TMTstop-A_1_1linestimulus2.png,TMTstop-A_1_1greenlinestimulus2.png,TMTstop-A_1_1redlinestimulus2.png,10,,,,,,,,,0,4,4,4,,,,,,,,,,,,,,,,,,,,,,,,,,,,,,,33.1701422999904,None,['2'],1,[0.4330152999900747],33.1701422999904,None,,,,001,2021_Nov_17_1114,TMTAB,2021.2.3,145.7598460760572,
6,['3'],TMTstop-A_1_1linestimulus3.png,TMTstop-A_1_1greenlinestimulus3.png,TMTstop-A_1_1redlinestimulus3.png,10,,,,,,,,,0,5,5,5,,,,,,,,,,,,,,,,,,,,,,,,,,,,,,,33.69140019999759,None,['3'],1,[1.2239562000031583],33.69140019999759,None,,,,001,2021_Nov_17_1114,TMTAB,2021.2.3,145.7598460760572,
7,['2'],TMTstop-A_1_1linestimulus4.png,TMTstop-A_1_1greenlinestimulus4.png,TMTstop-A_1_1redlinestimulus4.png,10,,,,,,,,,0,6,6,6,,,,,,,,,,,,,,,,,,,,,,,,,,,,,,,35.00344529999711,None,['2'],1,[0.8131377999961842],35.00344529999711,None,,,,001,2021_Nov_17_1114,TMTAB,2021.2.3,145.7598460760572,
8,['1'],TMTstop-A_1_1linestimulus5.png,TMTstop-A_1_1greenlinestimulus5.png,TMTstop-A_1_1redlinestimulus5.png,10,,,,,,,,,0,7,7,7,,,,,,,,,,,,,,,,,,,,,,,,,,,,,,,35.91328289998637,None,['1'],1,[0.6510527999926126],35.91328289998637,None,,,,001,2021_Nov_17_1114,TMTAB,2021.2.3,145.7598460760572,
9,['2'],TMTstop-A_1_1linestimulus6.png,TMTstop-A_1_1greenlinestimulus6.png,TMTstop-A_1_1redlinestimulus6.png,10,,,,,,,,,0,8,8,8,,,,,,,,,,,,,,,,,,,,,,,,,,,,,,,36.64261699999042,None,['2'],1,[0.511663099998259],36.64261699999042,None,,,,001,2021_Nov_17_1114,TMTAB,2021.2.3,145.7598460760572,
10,['1'],TMTstop-A_1_1linestimulus7.png,TMTstop-A_1_1greenlinestimulus7.png,TMTstop-A_1_1redlinestimulus7.png,10,,,,,,,,,0,9,9,9,,,,,,,,,,,,,,,,,,,,,,,,,,,,,,,37.236124799994286,None,['1'],1,[0.5221834999974817],37.236124799994286,None,,,,001,2021_Nov_17_1114,TMTAB,2021.2.3,145.7598460760572,
11,['2'],TMTstop-A_1_1linestimulus8.png,TMTstop-A_1_1greenlinestimulus8.png,TMTstop-A_1_1redlinestimulus8.png,10,,,,,,,,,0,10,10,10,,,,,,,,,,,,,,,,,,,,,,,,,,,,,,,37.83802469998773,None,['2'],1,[1.2751543000049423],37.83802469998773,None,,,,001,2021_Nov_17_1114,TMTAB,2021.2.3,145.7598460760572,
12,['3'],TMTstop-A_1_1linestimulus9.png,TMTstop-A_1_1greenlinestimulus9.png,TMTstop-A_1_1redlinestimulus9.png,10,,,,,,,,,0,11,11,11,,,,,,,,,,,,,,,,,,,,,,,,,,,,,,,39.190768599990406,None,['3'],1,[0.6031655999977374],39.190768599990406,None,,,,001,2021_Nov_17_1114,TMTAB,2021.2.3,145.7598460760572,
13,['2'],TMTstop-A_1_1linestimulus10.png,TMTstop-A_1_1greenlinestimulus10.png,TMTstop-A_1_1redlinestimulus10.png,1,,,,,,,,,0,12,12,12,,,,,,,,,,,,,,,,,,,,,,,,,,,,,,,39.90599729999667,None,['2'],1,[0.3279350000084378],39.90599729999667,None,,,,001,2021_Nov_17_1114,TMTAB,2021.2.3,145.7598460760572,
14,['3'],TMTstop-A_1_1linestimulus11.png,TMTstop-A_1_1greenlinestimulus11.png,TMTstop-A_1_1redlinestimulus11.png,None,,,,,,,,,0,13,13,13,,,,,,,,,,,,,,,,,,,,,,,,,,,,,,,40.32255309999164,None,['3'],1,[0.5568800999899395],40.32255309999164,None,,,,001,2021_Nov_17_1114,TMTAB,2021.2.3,145.7598460760572,
15,['1'],TMTstop-A_1_1linestimulus12.png,TMTstop-A_1_1greenlinestimulus12.png,TMTstop-A_1_1redlinestimulus12.png,None,,,,,,,,,0,14,14,14,,,,,,,,,,,,,,,,,,,,,,,,,,,,,,,40.96882419999747,None,['1'],1,[0.476726900000358],40.96882419999747,None,,,,001,2021_Nov_17_1114,TMTAB,2021.2.3,145.7598460760572,
16,['3'],TMTstop-A_1_1linestimulus13.png,TMTstop-A_1_1greenlinestimulus13.png,TMTstop-A_1_1redlinestimulus13.png,None,,,,,,,,,0,15,15,15,,,,,,,,,,,,,,,,,,,,,,,,,,,,,,,41.53787799998827,None,['3'],1,[0.4657685999991372],41.53787799998827,None,,,,001,2021_Nov_17_1114,TMTAB,2021.2.3,145.7598460760572,
17,['2'],TMTstop-A_1_1linestimulus14.png,TMTstop-A_1_1greenlinestimulus14.png,TMTstop-A_1_1redlinestimulus14.png,None,,,,,,,,,0,16,16,16,,,,,,,,,,,,,,,,,,,,,,,,,,,,,,,42.09360919999017,None,['2'],1,[0.43806499999482185],42.09360919999017,None,,,,001,2021_Nov_17_1114,TMTAB,2021.2.3,145.7598460760572,
18,['3'],TMTstop-A_1_1linestimulus15.png,TMTstop-A_1_1greenlinestimulus15.png,TMTstop-A_1_1redlinestimulus15.png,None,,,,,,,,,0,17,17,17,,,,,,,,,,,,,,,,,,,,,,,,,,,,,,,42.64913219999289,None,['3'],1,[0.6499088999989908],42.64913219999289,None,,,,001,2021_Nov_17_1114,TMTAB,2021.2.3,145.7598460760572,
19,['1'],TMTstop-A_1_1linestimulus16.png,TMTstop-A_1_1greenlinestimulus16.png,TMTstop-A_1_1redlinestimulus16.png,None,,,,,,,,,0,18,18,18,,,,,,,,,,,,,,,,,,,,,,,,,,,,,,,43.378563499994925,None,['1'],1,[0.8936694000003627],43.378563499994925,None,,,,001,2021_Nov_17_1114,TMTAB,2021.2.3,145.7598460760572,
20,['3'],TMTstop-A_1_1linestimulus17.png,TMTstop-A_1_1greenlinestimulus17.png,TMTstop-A_1_1redlinestimulus17.png,None,,,,,,,,,0,19,19,19,,,,,,,,,,,,,,,,,,,,,,,,,,,,,,,44.35781559998577,None,['3'],1,[2.2882863999984693],44.35781559998577,None,,,,001,2021_Nov_17_1114,TMTAB,2021.2.3,145.7598460760572,
21,['1'],TMTstop-A_1_1linestimulus18.png,TMTstop-A_1_1greenlinestimulus18.png,TMTstop-A_1_1redlinestimulus18.png,None,,,,,,,,,0,20,20,20,,,,,,,,,,,,,,,,,,,,,,,,,,,,,,,46.75995679998596,None,['1'],1,[1.1710602999955881],46.75995679998596,None,,,,001,2021_Nov_17_1114,TMTAB,2021.2.3,145.7598460760572,
22,['3'],TMTstop-A_1_1linestimulus19.png,TMTstop-A_1_1greenlinestimulus19.png,TMTstop-A_1_1redlinestimulus19.png,None,,,,,,,,,0,21,21,21,,,,,,,,,,,,,,,,,,,,,,,,,,,,,,,48.01685619998898,None,['3'],1,[0.4232324000040535],48.01685619998898,None,,,,001,2021_Nov_17_1114,TMTAB,2021.2.3,145.7598460760572,
23,['1'],TMTstop-A_1_1linestimulus20.png,TMTstop-A_1_1greenlinestimulus20.png,TMTstop-A_1_1redlinestimulus20.png,None,,,,,,,,,0,22,22,22,,,,,,,,,,,,,,,,,,,,,,,,,,,,,,,48.5237608999887,None,['1'],1,[0.6195431999949506],48.5237608999887,None,,,,001,2021_Nov_17_1114,TMTAB,2021.2.3,145.7598460760572,
24,['2'],TMTstop-A_1_1linestimulus21.png,TMTstop-A_1_1greenlinestimulus21.png,TMTstop-A_1_1redlinestimulus21.png,None,,,,,,,,,0,23,23,23,,,,,,,,,,,,,,,,,,,,,,,,,,,,,,,49.23227739999129,None,['2'],1,[0.5702738999971189],49.23227739999129,None,,,,001,2021_Nov_17_1114,TMTAB,2021.2.3,145.7598460760572,
25,['3'],TMTstop-A_1_1linestimulus22.png,TMTstop-A_1_1greenlinestimulus22.png,TMTstop-A_1_1redlinestimulus22.png,None,,,,,,,,,0,24,24,24,,,,,,,,,,,,,,,,,,,,,,,,,,,,,,,49.89910549999331,None,['3'],1,[0.33644279999134596],49.89910549999331,None,,,,001,2021_Nov_17_1114,TMTAB,2021.2.3,145.7598460760572,
None,None,TMTstop-A_1_1linestimulus23.png,TMTstop-A_1_1greenlinestimulus23.png,TMTstop-A_1_1redlinestimulus23.png,None,,,,,,,,,0,25,25,25,,,,,,,,,,,,,,,,,,,,,,,,,,,,,,,50.44080079998821,None,None,1,,50.44080079998821,None,,,,001,2021_Nov_17_1114,TMTAB,2021.2.3,145.7598460760572,
1,['3'],TMTstop-A_1_2.png,TMTstop-A_1_2.png,TMTstop-A_1_2.png,10,,,,,,,,,,,,,0,0,0,0,,,,,,,,,,,,,51.355124499998055,None,,,,,,,,,,,,,54.42637209998793,None,['3'],1,[1.216520500005572],54.42637209998793,None,,,,001,2021_Nov_17_1114,TMTAB,2021.2.3,145.7598460760572,
2,['2'],TMTstop-A_1_2.png,TMTstop-A_1_2firstgreen.png,TMTstop-A_1_2firstred.png,10,,,,,,,,,,,,,0,1,1,1,,,,,,,,,,,,,,,,,,,,,,,,,,,55.717997399988235,None,['2'],1,[0.5646238999906927],55.717997399988235,None,,,,001,2021_Nov_17_1114,TMTAB,2021.2.3,145.7598460760572,
3,['1'],TMTstop-A_1_2linestimulus0.png,TMTstop-A_1_2greenlinestimulus0.png,TMTstop-A_1_2redlinestimulus0.png,10,,,,,,,,,,,,,0,2,2,2,,,,,,,,,,,,,,,,,,,,,,,,,,,56.365804099987145,None,['1'],1,[0.5765025000000605],56.365804099987145,None,,,,001,2021_Nov_17_1114,TMTAB,2021.2.3,145.7598460760572,
4,['3'],TMTstop-A_1_2linestimulus1.png,TMTstop-A_1_2greenlinestimulus1.png,TMTstop-A_1_2redlinestimulus1.png,10,,,,,,,,,,,,,0,3,3,3,,,,,,,,,,,,,,,,,,,,,,,,,,,57.01661929998954,None,['3'],1,[1.0316000000020722],57.01661929998954,None,,,,001,2021_Nov_17_1114,TMTAB,2021.2.3,145.7598460760572,
5,['1'],TMTstop-A_1_2linestimulus2.png,TMTstop-A_1_2greenlinestimulus2.png,TMTstop-A_1_2redlinestimulus2.png,10,,,,,,,,,,,,,0,4,4,4,,,,,,,,,,,,,,,,,,,,,,,,,,,58.128172999990056,None,['1'],1,[1.1526186999981292],58.128172999990056,None,,,,001,2021_Nov_17_1114,TMTAB,2021.2.3,145.7598460760572,
6,['2'],TMTstop-A_1_2linestimulus3.png,TMTstop-A_1_2greenlinestimulus3.png,TMTstop-A_1_2redlinestimulus3.png,10,,,,,,,,,,,,,0,5,5,5,,,,,,,,,,,,,,,,,,,,,,,,,,,59.36383629999182,None,['2'],1,[0.4236319000046933],59.36383629999182,None,,,,001,2021_Nov_17_1114,TMTAB,2021.2.3,145.7598460760572,
7,['1'],TMTstop-A_1_2linestimulus4.png,TMTstop-A_1_2greenlinestimulus4.png,TMTstop-A_1_2redlinestimulus4.png,10,,,,,,,,,,,,,0,6,6,6,,,,,,,,,,,,,,,,,,,,,,,,,,,59.86382929999672,None,['1'],1,[0.8462964000063948],59.86382929999672,None,,,,001,2021_Nov_17_1114,TMTAB,2021.2.3,145.7598460760572,
8,['2'],TMTstop-A_1_2linestimulus5.png,TMTstop-A_1_2greenlinestimulus5.png,TMTstop-A_1_2redlinestimulus5.png,10,,,,,,,,,,,,,0,7,7,7,,,,,,,,,,,,,,,,,,,,,,,,,,,60.794287899989286,None,['2'],1,[0.5964730999985477],60.794287899989286,None,,,,001,2021_Nov_17_1114,TMTAB,2021.2.3,145.7598460760572,
9,['1'],TMTstop-A_1_2linestimulus6.png,TMTstop-A_1_2greenlinestimulus6.png,TMTstop-A_1_2redlinestimulus6.png,10,,,,,,,,,,,,,0,8,8,8,,,,,,,,,,,,,,,,,,,,,,,,,,,61.47519879999163,None,['1'],1,[2.588256699993508],61.47519879999163,None,,,,001,2021_Nov_17_1114,TMTAB,2021.2.3,145.7598460760572,
10,['3'],TMTstop-A_1_2linestimulus7.png,TMTstop-A_1_2greenlinestimulus7.png,TMTstop-A_1_2redlinestimulus7.png,10,,,,,,,,,,,,,0,9,9,9,,,,,,,,,,,,,,,,,,,,,,,,,,,64.14176889999362,None,['3'],1,[0.7087318999983836],64.14176889999362,None,,,,001,2021_Nov_17_1114,TMTAB,2021.2.3,145.7598460760572,
11,['1'],TMTstop-A_1_2linestimulus8.png,TMTstop-A_1_2greenlinestimulus8.png,TMTstop-A_1_2redlinestimulus8.png,10,,,,,,,,,,,,,0,10,10,10,,,,,,,,,,,,,,,,,,,,,,,,,,,64.9332216999901,None,['1'],1,[0.5265857000049436],64.9332216999901,None,,,,001,2021_Nov_17_1114,TMTAB,2021.2.3,145.7598460760572,
12,['3'],TMTstop-A_1_2linestimulus9.png,TMTstop-A_1_2greenlinestimulus9.png,TMTstop-A_1_2redlinestimulus9.png,10,,,,,,,,,,,,,0,11,11,11,,,,,,,,,,,,,,,,,,,,,,,,,,,65.53770449999138,None,['3'],1,[1.1398941999941599],65.53770449999138,None,,,,001,2021_Nov_17_1114,TMTAB,2021.2.3,145.7598460760572,
13,['1'],TMTstop-A_1_2linestimulus10.png,TMTstop-A_1_2greenlinestimulus10.png,TMTstop-A_1_2redlinestimulus10.png,1,,,,,,,,,,,,,0,12,12,12,,,,,,,,,,,,,,,,,,,,,,,,,,,66.77341269998578,None,['1'],1,[0.41159190000325907],66.77341269998578,None,,,,001,2021_Nov_17_1114,TMTAB,2021.2.3,145.7598460760572,
14,['2'],TMTstop-A_1_2linestimulus11.png,TMTstop-A_1_2greenlinestimulus11.png,TMTstop-A_1_2redlinestimulus11.png,None,,,,,,,,,,,,,0,13,13,13,,,,,,,,,,,,,,,,,,,,,,,,,,,67.28286269999808,None,['2'],1,[0.4103499000048032],67.28286269999808,None,,,,001,2021_Nov_17_1114,TMTAB,2021.2.3,145.7598460760572,
15,['3'],TMTstop-A_1_2linestimulus12.png,TMTstop-A_1_2greenlinestimulus12.png,TMTstop-A_1_2redlinestimulus12.png,None,,,,,,,,,,,,,0,14,14,14,,,,,,,,,,,,,,,,,,,,,,,,,,,67.77349399999366,None,['3'],1,[0.48594100000627805],67.77349399999366,None,,,,001,2021_Nov_17_1114,TMTAB,2021.2.3,145.7598460760572,
16,['1'],TMTstop-A_1_2linestimulus13.png,TMTstop-A_1_2greenlinestimulus13.png,TMTstop-A_1_2redlinestimulus13.png,None,,,,,,,,,,,,,0,15,15,15,,,,,,,,,,,,,,,,,,,,,,,,,,,68.3358894999983,None,['1'],1,[1.0687010000110604],68.3358894999983,None,,,,001,2021_Nov_17_1114,TMTAB,2021.2.3,145.7598460760572,
17,['2'],TMTstop-A_1_2linestimulus14.png,TMTstop-A_1_2greenlinestimulus14.png,TMTstop-A_1_2redlinestimulus14.png,None,,,,,,,,,,,,,0,16,16,16,,,,,,,,,,,,,,,,,,,,,,,,,,,69.48218789999373,None,['2'],1,[1.073915400003898],69.48218789999373,None,,,,001,2021_Nov_17_1114,TMTAB,2021.2.3,145.7598460760572,
18,['3'],TMTstop-A_1_2linestimulus15.png,TMTstop-A_1_2greenlinestimulus15.png,TMTstop-A_1_2redlinestimulus15.png,None,,,,,,,,,,,,,0,17,17,17,,,,,,,,,,,,,,,,,,,,,,,,,,,70.6413593999896,None,['3'],1,[1.2040054999961285],70.6413593999896,None,,,,001,2021_Nov_17_1114,TMTAB,2021.2.3,145.7598460760572,
19,['1'],TMTstop-A_1_2linestimulus16.png,TMTstop-A_1_2greenlinestimulus16.png,TMTstop-A_1_2redlinestimulus16.png,None,,,,,,,,,,,,,0,18,18,18,,,,,,,,,,,,,,,,,,,,,,,,,,,71.93312109999533,None,['1'],1,[0.652180999997654],71.93312109999533,None,,,,001,2021_Nov_17_1114,TMTAB,2021.2.3,145.7598460760572,
20,['3'],TMTstop-A_1_2linestimulus17.png,TMTstop-A_1_2greenlinestimulus17.png,TMTstop-A_1_2redlinestimulus17.png,None,,,,,,,,,,,,,0,19,19,19,,,,,,,,,,,,,,,,,,,,,,,,,,,72.66260299998976,None,['3'],1,[0.8720046999951592],72.66260299998976,None,,,,001,2021_Nov_17_1114,TMTAB,2021.2.3,145.7598460760572,
21,['1'],TMTstop-A_1_2linestimulus18.png,TMTstop-A_1_2greenlinestimulus18.png,TMTstop-A_1_2redlinestimulus18.png,None,,,,,,,,,,,,,0,20,20,20,,,,,,,,,,,,,,,,,,,,,,,,,,,73.60682839999208,None,['1'],1,[1.042930499999784],73.60682839999208,None,,,,001,2021_Nov_17_1114,TMTAB,2021.2.3,145.7598460760572,
22,['2'],TMTstop-A_1_2linestimulus19.png,TMTstop-A_1_2greenlinestimulus19.png,TMTstop-A_1_2redlinestimulus19.png,None,,,,,,,,,,,,,0,21,21,21,,,,,,,,,,,,,,,,,,,,,,,,,,,74.7594526999892,None,['2'],1,[1.1161127999948803],74.7594526999892,None,,,,001,2021_Nov_17_1114,TMTAB,2021.2.3,145.7598460760572,
23,['1'],TMTstop-A_1_2linestimulus20.png,TMTstop-A_1_2greenlinestimulus20.png,TMTstop-A_1_2redlinestimulus20.png,None,,,,,,,,,,,,,0,22,22,22,,,,,,,,,,,,,,,,,,,,,,,,,,,75.96085279999534,None,['1'],1,[1.6266271000058623],75.96085279999534,None,,,,001,2021_Nov_17_1114,TMTAB,2021.2.3,145.7598460760572,
24,['2'],TMTstop-A_1_2linestimulus21.png,TMTstop-A_1_2greenlinestimulus21.png,TMTstop-A_1_2redlinestimulus21.png,None,,,,,,,,,,,,,0,23,23,23,,,,,,,,,,,,,,,,,,,,,,,,,,,77.68399059999501,None,['2'],1,[1.016001600000891],77.68399059999501,None,,,,001,2021_Nov_17_1114,TMTAB,2021.2.3,145.7598460760572,
25,['1'],TMTstop-A_1_2linestimulus22.png,TMTstop-A_1_2greenlinestimulus22.png,TMTstop-A_1_2redlinestimulus22.png,None,,,,,,,,,,,,,0,24,24,24,,,,,,,,,,,,,,,,,,,,,,,,,,,78.7875500999944,None,['1'],1,[0.6263535999896703],78.7875500999944,None,,,,001,2021_Nov_17_1114,TMTAB,2021.2.3,145.7598460760572,
None,None,TMTstop-A_1_2linestimulus23.png,TMTstop-A_1_2greenlinestimulus23.png,TMTstop-A_1_2redlinestimulus23.png,None,,,,,,,,,,,,,0,25,25,25,,,,,,,,,,,,,,,,,,,,,,,,,,,79.49533059999521,None,None,1,,79.49533059999521,None,,,,001,2021_Nov_17_1114,TMTAB,2021.2.3,145.7598460760572,
1,['1'],TMTstop-A_1_3.png,TMTstop-A_1_3.png,TMTstop-A_1_3.png,10,,,,,,,,,,,,,,,,,0,0,0,0,,,,,,,,,80.50700009999855,None,,,,,,,,,,,,,83.5862907999981,None,['1'],1,[2.433914900000673],83.5862907999981,None,,,,001,2021_Nov_17_1114,TMTAB,2021.2.3,145.7598460760572,
2,['3'],TMTstop-A_1_3.png,TMTstop-A_1_3firstgreen.png,TMTstop-A_1_3firstred.png,10,,,,,,,,,,,,,,,,,0,1,1,1,,,,,,,,,,,,,,,,,,,,,,,86.09950059998664,None,['3'],1,[0.8827216000063345],86.09950059998664,None,,,,001,2021_Nov_17_1114,TMTAB,2021.2.3,145.7598460760572,
3,['1'],TMTstop-A_1_3linestimulus0.png,TMTstop-A_1_3greenlinestimulus0.png,TMTstop-A_1_3redlinestimulus0.png,10,,,,,,,,,,,,,,,,,0,2,2,2,,,,,,,,,,,,,,,,,,,,,,,87.05784659998608,None,['1'],1,[1.030729700010852],87.05784659998608,None,,,,001,2021_Nov_17_1114,TMTAB,2021.2.3,145.7598460760572,
4,['3'],TMTstop-A_1_3linestimulus1.png,TMTstop-A_1_3greenlinestimulus1.png,TMTstop-A_1_3redlinestimulus1.png,10,,,,,,,,,,,,,,,,,0,3,3,3,,,,,,,,,,,,,,,,,,,,,,,88.19113479999942,None,['3'],1,[1.0882037999981549],88.19113479999942,None,,,,001,2021_Nov_17_1114,TMTAB,2021.2.3,145.7598460760572,
5,['1'],TMTstop-A_1_3linestimulus2.png,TMTstop-A_1_3greenlinestimulus2.png,TMTstop-A_1_3redlinestimulus2.png,10,,,,,,,,,,,,,,,,,0,4,4,4,,,,,,,,,,,,,,,,,,,,,,,89.47672409999359,None,['1'],1,[2.4817142999963835],89.47672409999359,None,,,,001,2021_Nov_17_1114,TMTAB,2021.2.3,145.7598460760572,
6,['2'],TMTstop-A_1_3linestimulus3.png,TMTstop-A_1_3greenlinestimulus3.png,TMTstop-A_1_3redlinestimulus3.png,10,,,,,,,,,,,,,,,,,0,5,5,5,,,,,,,,,,,,,,,,,,,,,,,92.04370939999353,None,['2'],1,[0.460744900003192],92.04370939999353,None,,,,001,2021_Nov_17_1114,TMTAB,2021.2.3,145.7598460760572,
7,['3'],TMTstop-A_1_3linestimulus4.png,TMTstop-A_1_3greenlinestimulus4.png,TMTstop-A_1_3redlinestimulus4.png,10,,,,,,,,,,,,,,,,,0,6,6,6,,,,,,,,,,,,,,,,,,,,,,,92.5923397999868,None,['3'],1,[0.5576021000015317],92.5923397999868,None,,,,001,2021_Nov_17_1114,TMTAB,2021.2.3,145.7598460760572,
8,['2'],TMTstop-A_1_3linestimulus5.png,TMTstop-A_1_3greenlinestimulus5.png,TMTstop-A_1_3redlinestimulus5.png,10,,,,,,,,,,,,,,,,,0,7,7,7,,,,,,,,,,,,,,,,,,,,,,,93.2380642999924,None,['2'],1,[0.9609968000004301],93.2380642999924,None,,,,001,2021_Nov_17_1114,TMTAB,2021.2.3,145.7598460760572,
9,['3'],TMTstop-A_1_3linestimulus6.png,TMTstop-A_1_3greenlinestimulus6.png,TMTstop-A_1_3redlinestimulus6.png,10,,,,,,,,,,,,,,,,,0,8,8,8,,,,,,,,,,,,,,,,,,,,,,,94.29353399999673,None,['3'],1,[1.3794936000049347],94.29353399999673,None,,,,001,2021_Nov_17_1114,TMTAB,2021.2.3,145.7598460760572,
10,['2'],TMTstop-A_1_3linestimulus7.png,TMTstop-A_1_3greenlinestimulus7.png,TMTstop-A_1_3redlinestimulus7.png,10,,,,,,,,,,,,,,,,,0,9,9,9,,,,,,,,,,,,,,,,,,,,,,,95.75884419999784,None,['2'],1,[1.8520898999995552],95.75884419999784,None,,,,001,2021_Nov_17_1114,TMTAB,2021.2.3,145.7598460760572,
11,['3'],TMTstop-A_1_3linestimulus8.png,TMTstop-A_1_3greenlinestimulus8.png,TMTstop-A_1_3redlinestimulus8.png,10,,,,,,,,,,,,,,,,,0,10,10,10,,,,,,,,,,,,,,,,,,,,,,,97.69653459999245,None,['3'],1,[0.6535110999975586],97.69653459999245,None,,,,001,2021_Nov_17_1114,TMTAB,2021.2.3,145.7598460760572,
12,['1'],TMTstop-A_1_3linestimulus9.png,TMTstop-A_1_3greenlinestimulus9.png,TMTstop-A_1_3redlinestimulus9.png,10,,,,,,,,,,,,,,,,,0,11,11,11,,,,,,,,,,,,,,,,,,,,,,,98.44762949999131,None,['1'],1,[2.497156299999915],98.44762949999131,None,,,,001,2021_Nov_17_1114,TMTAB,2021.2.3,145.7598460760572,
13,['3'],TMTstop-A_1_3linestimulus10.png,TMTstop-A_1_3greenlinestimulus10.png,TMTstop-A_1_3redlinestimulus10.png,1,,,,,,,,,,,,,,,,,0,12,12,12,,,,,,,,,,,,,,,,,,,,,,,101.02952379999624,None,['3'],1,[0.9653171000099974],101.02952379999624,None,,,,001,2021_Nov_17_1114,TMTAB,2021.2.3,145.7598460760572,
14,['1'],TMTstop-A_1_3linestimulus11.png,TMTstop-A_1_3greenlinestimulus11.png,TMTstop-A_1_3redlinestimulus11.png,None,,,,,,,,,,,,,,,,,0,13,13,13,,,,,,,,,,,,,,,,,,,,,,,102.08519779999915,None,['1'],1,[1.7533190999965882],102.08519779999915,None,,,,001,2021_Nov_17_1114,TMTAB,2021.2.3,145.7598460760572,
15,['3'],TMTstop-A_1_3linestimulus12.png,TMTstop-A_1_3greenlinestimulus12.png,TMTstop-A_1_3redlinestimulus12.png,None,,,,,,,,,,,,,,,,,0,14,14,14,,,,,,,,,,,,,,,,,,,,,,,103.92630549999012,None,['3'],1,[0.7395496999961324],103.92630549999012,None,,,,001,2021_Nov_17_1114,TMTAB,2021.2.3,145.7598460760572,
16,['2'],TMTstop-A_1_3linestimulus13.png,TMTstop-A_1_3greenlinestimulus13.png,TMTstop-A_1_3redlinestimulus13.png,None,,,,,,,,,,,,,,,,,0,15,15,15,,,,,,,,,,,,,,,,,,,,,,,104.76535839999269,None,['2'],1,[0.5637206999963382],104.76535839999269,None,,,,001,2021_Nov_17_1114,TMTAB,2021.2.3,145.7598460760572,
17,['3'],TMTstop-A_1_3linestimulus14.png,TMTstop-A_1_3greenlinestimulus14.png,TMTstop-A_1_3redlinestimulus14.png,None,,,,,,,,,,,,,,,,,0,16,16,16,,,,,,,,,,,,,,,,,,,,,,,105.41860639999504,None,['3'],1,[0.820312300013029],105.41860639999504,None,,,,001,2021_Nov_17_1114,TMTAB,2021.2.3,145.7598460760572,
18,['2'],TMTstop-A_1_3linestimulus15.png,TMTstop-A_1_3greenlinestimulus15.png,TMTstop-A_1_3redlinestimulus15.png,None,,,,,,,,,,,,,,,,,0,17,17,17,,,,,,,,,,,,,,,,,,,,,,,106.32801769999787,None,['2'],1,[1.926024900007178],106.32801769999787,None,,,,001,2021_Nov_17_1114,TMTAB,2021.2.3,145.7598460760572,
19,['1'],TMTstop-A_1_3linestimulus16.png,TMTstop-A_1_3greenlinestimulus16.png,TMTstop-A_1_3redlinestimulus16.png,None,,,,,,,,,,,,,,,,,0,18,18,18,,,,,,,,,,,,,,,,,,,,,,,108.33488459998625,None,['1'],1,[0.5510723000043072],108.33488459998625,None,,,,001,2021_Nov_17_1114,TMTAB,2021.2.3,145.7598460760572,
20,['3'],TMTstop-A_1_3linestimulus17.png,TMTstop-A_1_3greenlinestimulus17.png,TMTstop-A_1_3redlinestimulus17.png,None,,,,,,,,,,,,,,,,,0,19,19,19,,,,,,,,,,,,,,,,,,,,,,,108.98939799999062,None,['3'],1,[0.683731799988891],108.98939799999062,None,,,,001,2021_Nov_17_1114,TMTAB,2021.2.3,145.7598460760572,
21,['2'],TMTstop-A_1_3linestimulus18.png,TMTstop-A_1_3greenlinestimulus18.png,TMTstop-A_1_3redlinestimulus18.png,None,,,,,,,,,,,,,,,,,0,20,20,20,,,,,,,,,,,,,,,,,,,,,,,109.76577449998877,None,['2'],1,[0.6674673999950755],109.76577449998877,None,,,,001,2021_Nov_17_1114,TMTAB,2021.2.3,145.7598460760572,
22,['1'],TMTstop-A_1_3linestimulus19.png,TMTstop-A_1_3greenlinestimulus19.png,TMTstop-A_1_3redlinestimulus19.png,None,,,,,,,,,,,,,,,,,0,21,21,21,,,,,,,,,,,,,,,,,,,,,,,110.5381830999977,None,['1'],1,[2.289350800012471],110.5381830999977,None,,,,001,2021_Nov_17_1114,TMTAB,2021.2.3,145.7598460760572,
23,['3'],TMTstop-A_1_3linestimulus20.png,TMTstop-A_1_3greenlinestimulus20.png,TMTstop-A_1_3redlinestimulus20.png,None,,,,,,,,,,,,,,,,,0,22,22,22,,,,,,,,,,,,,,,,,,,,,,,112.91812989999016,None,['3'],1,[2.032707599995774],112.91812989999016,None,,,,001,2021_Nov_17_1114,TMTAB,2021.2.3,145.7598460760572,
24,['1'],TMTstop-A_1_3linestimulus21.png,TMTstop-A_1_3greenlinestimulus21.png,TMTstop-A_1_3redlinestimulus21.png,None,,,,,,,,,,,,,,,,,0,23,23,23,,,,,,,,,,,,,,,,,,,,,,,115.03207629999088,None,['1'],1,[0.8310721000016201],115.03207629999088,None,,,,001,2021_Nov_17_1114,TMTAB,2021.2.3,145.7598460760572,
25,['2'],TMTstop-A_1_3linestimulus22.png,TMTstop-A_1_3greenlinestimulus22.png,TMTstop-A_1_3redlinestimulus22.png,None,,,,,,,,,,,,,,,,,0,24,24,24,,,,,,,,,,,,,,,,,,,,,,,115.95270139999047,None,['2'],1,[0.47453189999214374],115.95270139999047,None,,,,001,2021_Nov_17_1114,TMTAB,2021.2.3,145.7598460760572,
None,None,TMTstop-A_1_3linestimulus23.png,TMTstop-A_1_3greenlinestimulus23.png,TMTstop-A_1_3redlinestimulus23.png,None,,,,,,,,,,,,,,,,,0,25,25,25,,,,,,,,,,,,,,,,,,,,,,,116.50833089998923,None,None,1,,116.50833089998923,None,,,,001,2021_Nov_17_1114,TMTAB,2021.2.3,145.7598460760572,
1,['3'],TMTstop-A_1_3.png,TMTstop-A_1_3.png,TMTstop-A_1_3.png,10,,,,,,,,,,,,,,,,,,,,,0,0,0,0,,,,,117.51982639999187,None,,,,,,,,,,,,,120.60600919999706,None,"['1', '1', '2', '3']",1,"[2.7838145999994595, 4.228553299995838, 4.914776500008884, 5.40050920000067]",120.60600919999706,None,,,,001,2021_Nov_17_1114,TMTAB,2021.2.3,145.7598460760572,
2,['1'],TMTstop-A_1_3.png,TMTstop-A_1_3firstgreen.png,TMTstop-A_1_3firstred.png,10,,,,,,,,,,,,,,,,,,,,,0,1,1,1,,,,,,,,,,,,,,,,,,,126.10512289998587,None,"['3', '2', '1']",1,"[1.4135620000015479, 4.070229300006758, 4.475163200011593]",126.10512289998587,None,,,,001,2021_Nov_17_1114,TMTAB,2021.2.3,145.7598460760572,
3,['3'],TMTstop-A_1_3linestimulus0.png,TMTstop-A_1_3greenlinestimulus0.png,TMTstop-A_1_3redlinestimulus0.png,10,,,,,,,,,,,,,,,,,,,,,0,2,2,2,,,,,,,,,,,,,,,,,,,130.66058519999206,None,"['1', '2', '3']",1,"[2.367236199992476, 3.3146555999992415, 3.700091799997608]",130.66058519999206,None,,,,001,2021_Nov_17_1114,TMTAB,2021.2.3,145.7598460760572,
4,['1'],TMTstop-A_1_3linestimulus1.png,TMTstop-A_1_3greenlinestimulus1.png,TMTstop-A_1_3redlinestimulus1.png,10,,,,,,,,,,,,,,,,,,,,,0,3,3,3,,,,,,,,,,,,,,,,,,,134.45922019999125,None,"['3', '2', '1']",1,"[4.568701299998793, 7.00480389999575, 7.47488589999557]",134.45922019999125,None,,,,001,2021_Nov_17_1114,TMTAB,2021.2.3,145.7598460760572,
5,['2'],TMTstop-A_1_3linestimulus2.png,TMTstop-A_1_3greenlinestimulus2.png,TMTstop-A_1_3redlinestimulus2.png,10,,,,,,,,,,,,,,,,,,,,,0,4,4,4,,,,,,,,,,,,,,,,,,,142.0628280999954,None,"['3', '1', '1', '2']",1,"[8.99274040000455, 10.847048000010545, 11.882075100002112, 12.51811920000182]",142.0628280999954,None,,,,001,2021_Nov_17_1114,TMTAB,2021.2.3,145.7598460760572,
6,['3'],TMTstop-A_1_3linestimulus3.png,TMTstop-A_1_3greenlinestimulus3.png,TMTstop-A_1_3redlinestimulus3.png,10,,,,,,,,,,,,,,,,,,,,,0,5,5,5,,,,,,,,,,,,,,,,,,,154.72219269999187,None,['3'],1,[5.585787499992875],154.72219269999187,None,,,,001,2021_Nov_17_1114,TMTAB,2021.2.3,145.7598460760572,
7,['2'],TMTstop-A_1_3linestimulus4.png,TMTstop-A_1_3greenlinestimulus4.png,TMTstop-A_1_3redlinestimulus4.png,10,,,,,,,,,,,,,,,,,,,,,0,6,6,6,,,,,,,,,,,,,,,,,,,160.38919819999137,None,['2'],1,[3.1497834000037983],160.38919819999137,None,,,,001,2021_Nov_17_1114,TMTAB,2021.2.3,145.7598460760572,
8,['3'],TMTstop-A_1_3linestimulus5.png,TMTstop-A_1_3greenlinestimulus5.png,TMTstop-A_1_3redlinestimulus5.png,10,,,,,,,,,,,,,,,,,,,,,0,7,7,7,,,,,,,,,,,,,,,,,,,163.6188231999986,None,['3'],1,[5.907402800003183],163.6188231999986,None,,,,001,2021_Nov_17_1114,TMTAB,2021.2.3,145.7598460760572,
9,['1'],TMTstop-A_1_3linestimulus6.png,TMTstop-A_1_3greenlinestimulus6.png,TMTstop-A_1_3redlinestimulus6.png,10,,,,,,,,,,,,,,,,,,,,,0,8,8,8,,,,,,,,,,,,,,,,,,,169.60440579999704,None,"['2', '2', '3', '2', '2', '2', '1']",1,"[1.8174782999994932, 5.102729499994894, 5.623740299997735, 6.796312000005855, 7.345690999994986, 7.658955399994738, 8.03924850000476]",169.60440579999704,None,,,,001,2021_Nov_17_1114,TMTAB,2021.2.3,145.7598460760572,
10,['2'],TMTstop-A_1_3linestimulus7.png,TMTstop-A_1_3greenlinestimulus7.png,TMTstop-A_1_3redlinestimulus7.png,10,,,,,,,,,,,,,,,,,,,,,0,9,9,9,,,,,,,,,,,,,,,,,,,177.7703235999943,None,['2'],1,[7.166209099988919],177.7703235999943,None,,,,001,2021_Nov_17_1114,TMTAB,2021.2.3,145.7598460760572,
11,['3'],TMTstop-A_1_3linestimulus8.png,TMTstop-A_1_3greenlinestimulus8.png,TMTstop-A_1_3redlinestimulus8.png,10,,,,,,,,,,,,,,,,,,,,,0,10,10,10,,,,,,,,,,,,,,,,,,,185.02068419998977,None,['3'],1,[1.4889687999966554],185.02068419998977,None,,,,001,2021_Nov_17_1114,TMTAB,2021.2.3,145.7598460760572,
12,['1'],TMTstop-A_1_3linestimulus9.png,TMTstop-A_1_3greenlinestimulus9.png,TMTstop-A_1_3redlinestimulus9.png,10,,,,,,,,,,,,,,,,,,,,,0,11,11,11,,,,,,,,,,,,,,,,,,,186.60439629999746,None,['1'],1,[5.1418925000034506],186.60439629999746,None,,,,001,2021_Nov_17_1114,TMTAB,2021.2.3,145.7598460760572,
13,['2'],TMTstop-A_1_3linestimulus10.png,TMTstop-A_1_3greenlinestimulus10.png,TMTstop-A_1_3redlinestimulus10.png,1,,,,,,,,,,,,,,,,,,,,,0,12,12,12,,,,,,,,,,,,,,,,,,,191.88799749998725,None,"['3', '1', '2']",1,"[1.7818450999911875, 3.054525300001842, 3.468634099990595]",191.88799749998725,None,,,,001,2021_Nov_17_1114,TMTAB,2021.2.3,145.7598460760572,
14,['1'],TMTstop-A_1_3linestimulus11.png,TMTstop-A_1_3greenlinestimulus11.png,TMTstop-A_1_3redlinestimulus11.png,None,,,,,,,,,,,,,,,,,,,,,0,13,13,13,,,,,,,,,,,,,,,,,,,195.46437969998806,None,"['2', '2', '1']",1,"[1.3224997000070289, 1.7484919000125956, 2.1584418000129517]",195.46437969998806,None,,,,001,2021_Nov_17_1114,TMTAB,2021.2.3,145.7598460760572,
15,['2'],TMTstop-A_1_3linestimulus12.png,TMTstop-A_1_3greenlinestimulus12.png,TMTstop-A_1_3redlinestimulus12.png,None,,,,,,,,,,,,,,,,,,,,,0,14,14,14,,,,,,,,,,,,,,,,,,,197.74251639998693,None,"['3', '2']",1,"[0.3857745999994222, 0.6521761999902083]",197.74251639998693,None,,,,001,2021_Nov_17_1114,TMTAB,2021.2.3,145.7598460760572,
16,['3'],TMTstop-A_1_3linestimulus13.png,TMTstop-A_1_3greenlinestimulus13.png,TMTstop-A_1_3redlinestimulus13.png,None,,,,,,,,,,,,,,,,,,,,,0,15,15,15,,,,,,,,,,,,,,,,,,,198.52028349999455,None,"['1', '2', '3']",1,"[0.3487347999907797, 0.6710605999978725, 0.9606312999967486]",198.52028349999455,None,,,,001,2021_Nov_17_1114,TMTAB,2021.2.3,145.7598460760572,
17,['1'],TMTstop-A_1_3linestimulus14.png,TMTstop-A_1_3greenlinestimulus14.png,TMTstop-A_1_3redlinestimulus14.png,None,,,,,,,,,,,,,,,,,,,,,0,16,16,16,,,,,,,,,,,,,,,,,,,199.58299919999263,None,['1'],1,[0.2829541999963112],199.58299919999263,None,,,,001,2021_Nov_17_1114,TMTAB,2021.2.3,145.7598460760572,
18,['2'],TMTstop-A_1_3linestimulus15.png,TMTstop-A_1_3greenlinestimulus15.png,TMTstop-A_1_3redlinestimulus15.png,None,,,,,,,,,,,,,,,,,,,,,0,17,17,17,,,,,,,,,,,,,,,,,,,199.95776259999548,None,['2'],1,[0.2451325000001816],199.95776259999548,None,,,,001,2021_Nov_17_1114,TMTAB,2021.2.3,145.7598460760572,
19,['1'],TMTstop-A_1_3linestimulus16.png,TMTstop-A_1_3greenlinestimulus16.png,TMTstop-A_1_3redlinestimulus16.png,None,,,,,,,,,,,,,,,,,,,,,0,18,18,18,,,,,,,,,,,,,,,,,,,200.2926892999967,None,"['3', '1']",1,"[0.3871235999977216, 0.8112848000018857]",200.2926892999967,None,,,,001,2021_Nov_17_1114,TMTAB,2021.2.3,145.7598460760572,
20,['3'],TMTstop-A_1_3linestimulus17.png,TMTstop-A_1_3greenlinestimulus17.png,TMTstop-A_1_3redlinestimulus17.png,None,,,,,,,,,,,,,,,,,,,,,0,19,19,19,,,,,,,,,,,,,,,,,,,201.20768699998735,None,"['2', '3']",1,"[0.28888029999507125, 0.9062567999935709]",201.20768699998735,None,,,,001,2021_Nov_17_1114,TMTAB,2021.2.3,145.7598460760572,
21,['1'],TMTstop-A_1_3linestimulus18.png,TMTstop-A_1_3greenlinestimulus18.png,TMTstop-A_1_3redlinestimulus18.png,None,,,,,,,,,,,,,,,,,,,,,0,20,20,20,,,,,,,,,,,,,,,,,,,202.21068739998736,None,['1'],1,[0.18885669999872334],202.21068739998736,None,,,,001,2021_Nov_17_1114,TMTAB,2021.2.3,145.7598460760572,
22,['3'],TMTstop-A_1_3linestimulus19.png,TMTstop-A_1_3greenlinestimulus19.png,TMTstop-A_1_3redlinestimulus19.png,None,,,,,,,,,,,,,,,,,,,,,0,21,21,21,,,,,,,,,,,,,,,,,,,202.4788797999936,None,"['2', '1', '3']",1,"[0.4204112999868812, 0.9663054999982705, 1.6490180999971926]",202.4788797999936,None,,,,001,2021_Nov_17_1114,TMTAB,2021.2.3,145.7598460760572,
23,['2'],TMTstop-A_1_3linestimulus20.png,TMTstop-A_1_3greenlinestimulus20.png,TMTstop-A_1_3redlinestimulus20.png,None,,,,,,,,,,,,,,,,,,,,,0,22,22,22,,,,,,,,,,,,,,,,,,,204.2155633999937,None,None,0,,204.2155633999937,None,,,,001,2021_Nov_17_1114,TMTAB,2021.2.3,145.7598460760572,
24,['3'],TMTstop-A_1_3linestimulus21.png,TMTstop-A_1_3greenlinestimulus21.png,TMTstop-A_1_3redlinestimulus21.png,None,,,,,,,,,,,,,,,,,,,,,0,23,23,23,,,,,,,,,,,,,,,,,,,204.675531459997,None,None,0,,204.675531459997,None,,,,001,2021_Nov_17_1114,TMTAB,2021.2.3,145.7598460760572,
25,['2'],TMTstop-A_1_3linestimulus22.png,TMTstop-A_1_3greenlinestimulus22.png,TMTstop-A_1_3redlinestimulus22.png,None,,,,,,,,,,,,,,,,,,,,,0,24,24,24,,,,,,,,,,,,,,,,,,,204.72440601999406,None,None,0,,204.72440601999406,None,,,,001,2021_Nov_17_1114,TMTAB,2021.2.3,145.7598460760572,
None,None,TMTstop-A_1_3linestimulus23.png,TMTstop-A_1_3greenlinestimulus23.png,TMTstop-A_1_3redlinestimulus23.png,None,,,,,,,,,,,,,,,,,,,,,0,25,25,25,,,,,,,,,,,,,,,,,,,204.75931641999196,None,None,1,,204.75931641999196,None,,,,001,2021_Nov_17_1114,TMTAB,2021.2.3,145.7598460760572,
,,,,,,,,,,,,,,,,,,,,,,,,,,,,,,,,,,,,,,,,,,,,,,,,,,,,,,,204.76892039999075,None,,,,,,,
