NumberLetter,corrAns,StimFile,Correct_StimFile,False_StimFile,DurationTrial,trials.thisRepN,trials.thisTrialN,trials.thisN,trials.thisIndex,Instruct.started,Instruct.stopped,text_2.started,text_2.stopped,Stim.started,Stim.stopped,key_resp_2.keys,key_resp_2.corr,key_resp_2.rt,key_resp_2.started,key_resp_2.stopped,participant,session,date,expName,psychopyVersion,frameRate,
1,['2'],TMTstop-B_1_1.png,TMTstop-B_1_1.png,TMTstop-B_1_1.png,10,0,0,0,0,6.152371699921787,None,6.152371699921787,None,6.894484099932015,None,['2'],1,[0.7538769000675529],6.894484099932015,None,,001,2021_Nov_03_1528,TMTAB,2021.2.3,144.62591793834648,
A,['1'],TMTstop-B_1_1.png,TMTstop-B_1_1firstgreen.png,TMTstop-B_1_1.png,10,0,1,1,1,,,,,7.769607399939559,None,"['3', '1']",0,"[0.298664000001736, 0.5613787000766024]",7.769607399939559,None,,001,2021_Nov_03_1528,TMTAB,2021.2.3,144.62591793834648,
2,['3'],TMTstop-B_1_1linestimulus0.png,TMTstop-B_1_1greenlinestimulus0.png,TMTstop-B_1_1firstred.png,10,0,2,2,2,,,,,8.450415699975565,None,"['2', '3']",0,"[0.31091490003746003, 0.5811836000066251]",8.450415699975565,None,,001,2021_Nov_03_1528,TMTAB,2021.2.3,144.62591793834648,
B,['2'],TMTstop-B_1_1linestimulus1.png,TMTstop-B_1_1greenlinestimulus1.png,TMTstop-B_1_1redlinestimulus0.png,10,0,3,3,3,,,,,9.137964199995622,None,['2'],1,[0.29776059999130666],9.137964199995622,None,,001,2021_Nov_03_1528,TMTAB,2021.2.3,144.62591793834648,
3,['1'],TMTstop-B_1_1linestimulus2.png,TMTstop-B_1_1greenlinestimulus2.png,TMTstop-B_1_1redlinestimulus1.png,10,0,4,4,4,,,,,9.575742099899799,None,['1'],1,[0.12572519993409514],9.575742099899799,None,,001,2021_Nov_03_1528,TMTAB,2021.2.3,144.62591793834648,
C,['2'],TMTstop-B_1_1linestimulus3.png,TMTstop-B_1_1greenlinestimulus3.png,TMTstop-B_1_1redlinestimulus2.png,10,0,5,5,5,,,,,9.846236599958502,None,['2'],1,[0.13470209995284677],9.846236599958502,None,,001,2021_Nov_03_1528,TMTAB,2021.2.3,144.62591793834648,
4,['1'],TMTstop-B_1_1linestimulus4.png,TMTstop-B_1_1greenlinestimulus4.png,TMTstop-B_1_1redlinestimulus3.png,10,0,6,6,6,,,,,10.116622400004417,None,"['3', '1']",0,"[0.10630169999785721, 0.407569499919191]",10.116622400004417,None,,001,2021_Nov_03_1528,TMTAB,2021.2.3,144.62591793834648,
D,['2'],TMTstop-B_1_1linestimulus5.png,TMTstop-B_1_1greenlinestimulus5.png,TMTstop-B_1_1redlinestimulus4.png,10,0,7,7,7,,,,,10.6598917999072,None,['2'],1,[0.015109100029803813],10.6598917999072,None,,001,2021_Nov_03_1528,TMTAB,2021.2.3,144.62591793834648,
5,['3'],TMTstop-B_1_1linestimulus6.png,TMTstop-B_1_1greenlinestimulus6.png,TMTstop-B_1_1redlinestimulus5.png,10,0,8,8,8,,,,,10.833436899934895,None,['3'],1,[-0.0016110999276861548],10.833436899934895,None,,001,2021_Nov_03_1528,TMTAB,2021.2.3,144.62591793834648,
E,['1'],TMTstop-B_1_1linestimulus7.png,TMTstop-B_1_1greenlinestimulus7.png,TMTstop-B_1_1redlinestimulus6.png,10,0,9,9,9,,,,,10.972121999948286,None,['1'],1,[0.04663690004963428],10.972121999948286,None,,001,2021_Nov_03_1528,TMTAB,2021.2.3,144.62591793834648,
6,['3'],TMTstop-B_1_1linestimulus8.png,TMTstop-B_1_1greenlinestimulus8.png,TMTstop-B_1_1redlinestimulus7.png,10,0,10,10,10,,,,,11.13054749998264,None,"['2', '3']",0,"[-0.022055600071325898, 0.13364869996439666]",11.13054749998264,None,,001,2021_Nov_03_1528,TMTAB,2021.2.3,144.62591793834648,
F,['2'],TMTstop-B_1_1linestimulus9.png,TMTstop-B_1_1greenlinestimulus9.png,TMTstop-B_1_1redlinestimulus8.png,10,0,11,11,11,,,,,11.408668299904093,None,"['1', '2']",0,"[0.06162249995395541, 0.1543607999337837]",11.408668299904093,None,,001,2021_Nov_03_1528,TMTAB,2021.2.3,144.62591793834648,
7,['1'],TMTstop-B_1_1linestimulus10.png,TMTstop-B_1_1greenlinestimulus10.png,TMTstop-B_1_1redlinestimulus9.png,1,0,12,12,12,,,,,11.686633399920538,None,"['3', '1']",0,"[0.013093300047330558, 0.1730795999756083]",11.686633399920538,None,,001,2021_Nov_03_1528,TMTAB,2021.2.3,144.62591793834648,
G,['3'],TMTstop-B_1_1linestimulus11.png,TMTstop-B_1_1greenlinestimulus11.png,TMTstop-B_1_1redlinestimulus10.png,None,0,13,13,13,,,,,11.97152569994796,None,"['2', '3']",0,"[-0.03105999995023012, 0.07916209998074919]",11.97152569994796,None,,001,2021_Nov_03_1528,TMTAB,2021.2.3,144.62591793834648,
8,['1'],TMTstop-B_1_1linestimulus12.png,TMTstop-B_1_1greenlinestimulus12.png,TMTstop-B_1_1redlinestimulus11.png,None,0,14,14,14,,,,,12.165573899983428,None,['1'],1,[0.029958299943245947],12.165573899983428,None,,001,2021_Nov_03_1528,TMTAB,2021.2.3,144.62591793834648,
H,['2'],TMTstop-B_1_1linestimulus13.png,TMTstop-B_1_1greenlinestimulus13.png,TMTstop-B_1_1redlinestimulus12.png,None,0,15,15,15,,,,,12.326235399930738,None,['2'],1,[-0.05374759994447231],12.326235399930738,None,,001,2021_Nov_03_1528,TMTAB,2021.2.3,144.62591793834648,
9,['3'],TMTstop-B_1_1linestimulus14.png,TMTstop-B_1_1greenlinestimulus14.png,TMTstop-B_1_1redlinestimulus13.png,None,0,16,16,16,,,,,12.436411799979396,None,['3'],1,[-0.05990600003860891],12.436411799979396,None,,001,2021_Nov_03_1528,TMTAB,2021.2.3,144.62591793834648,
I,['2'],TMTstop-B_1_1linestimulus15.png,TMTstop-B_1_1greenlinestimulus15.png,TMTstop-B_1_1redlinestimulus14.png,None,0,17,17,17,,,,,12.547683899989352,None,"['1', '2']",0,"[-0.03515550005249679, 0.0338114999467507]",12.547683899989352,None,,001,2021_Nov_03_1528,TMTAB,2021.2.3,144.62591793834648,
10,['1'],TMTstop-B_1_1linestimulus16.png,TMTstop-B_1_1greenlinestimulus16.png,TMTstop-B_1_1redlinestimulus15.png,None,0,18,18,18,,,,,12.700729699921794,None,"['3', '1']",0,"[-0.016050699981860816, 0.13543450005818158]",12.700729699921794,None,,001,2021_Nov_03_1528,TMTAB,2021.2.3,144.62591793834648,
J,['2'],TMTstop-B_1_1linestimulus17.png,TMTstop-B_1_1greenlinestimulus17.png,TMTstop-B_1_1redlinestimulus16.png,None,0,19,19,19,,,,,12.978025199961849,None,['2'],1,[-0.0715850000269711],12.978025199961849,None,,001,2021_Nov_03_1528,TMTAB,2021.2.3,144.62591793834648,
11,['3'],TMTstop-B_1_1linestimulus18.png,TMTstop-B_1_1greenlinestimulus18.png,TMTstop-B_1_1redlinestimulus17.png,None,0,20,20,20,,,,,13.089239599998109,None,['3'],1,[-0.07574640004895627],13.089239599998109,None,,001,2021_Nov_03_1528,TMTAB,2021.2.3,144.62591793834648,
K,['1'],TMTstop-B_1_1linestimulus19.png,TMTstop-B_1_1greenlinestimulus19.png,TMTstop-B_1_1redlinestimulus18.png,None,0,21,21,21,,,,,13.207237499998882,None,['1'],1,[-0.0365246000001207],13.207237499998882,None,,001,2021_Nov_03_1528,TMTAB,2021.2.3,144.62591793834648,
12,['3'],TMTstop-B_1_1linestimulus20.png,TMTstop-B_1_1greenlinestimulus20.png,TMTstop-B_1_1redlinestimulus19.png,None,0,22,22,22,,,,,13.325612899963744,None,"['2', '3']",0,"[-0.07670920004602522, 0.029920400003902614]",13.325612899963744,None,,001,2021_Nov_03_1528,TMTAB,2021.2.3,144.62591793834648,
L,['1'],TMTstop-B_1_1linestimulus21.png,TMTstop-B_1_1greenlinestimulus21.png,TMTstop-B_1_1redlinestimulus20.png,None,0,23,23,23,,,,,13.478594899992459,None,['1'],1,[0.024382299976423383],13.478594899992459,None,,001,2021_Nov_03_1528,TMTAB,2021.2.3,144.62591793834648,
13,['2'],TMTstop-B_1_1linestimulus22.png,TMTstop-B_1_1greenlinestimulus22.png,TMTstop-B_1_1redlinestimulus21.png,None,0,24,24,24,,,,,13.645366299897432,None,['2'],1,[-0.07483719999436289],13.645366299897432,None,,001,2021_Nov_03_1528,TMTAB,2021.2.3,144.62591793834648,
None,None,TMTstop-B_1_1linestimulus23.png,TMTstop-B_1_1greenlinestimulus23.png,TMTstop-B_1_1redlinestimulus22.png,None,0,25,25,25,,,,,13.755779500002973,None,"['3', '1', '2', '3', '1']",0,"[-0.0800130000570789, 0.05006309994496405, 0.11242709995713085, 0.2368915999541059, 0.3818544999230653]",13.755779500002973,None,,001,2021_Nov_03_1528,TMTAB,2021.2.3,144.62591793834648,
