NumberLetter,corrAns,StimFile,Correct_StimFile,False_StimFile,DurationTrial,restartpractice.thisRepN,restartpractice.thisTrialN,restartpractice.thisN,restartpractice.thisIndex,trials_practice.thisRepN,trials_practice.thisTrialN,trials_practice.thisN,trials_practice.thisIndex,trials.thisRepN,trials.thisTrialN,trials.thisN,trials.thisIndex,Instruct.started,Instruct.stopped,text_2.started,text_2.stopped,polygon.started,polygon.stopped,Stim_practice.started,Stim_practice.stopped,key_resp_practice.keys,key_resp_practice.rt,key_resp_practice.started,key_resp_practice.stopped,text_5.started,text_5.stopped,key_resp_5.keys,key_resp_5.rt,key_resp_5.started,key_resp_5.stopped,participant,session,date,expName,psychopyVersion,frameRate,
1,['1'],TMTstop-A_1_practice.png,TMTstop-A_1_practice.png,TMTstop-A_1_practice.png,10,0,0,0,0,0,0,0,0,,,,,5.8804567999904975,None,5.8804567999904975,None,6.392526099996758,None,9.442932799996925,None,1,0.7186275999993086,9.442932799996925,None,,,,,,,,001,2021_Nov_15_1814,TMTAB,2021.2.3,144.50783521245188,
2,['2'],TMTstop-A_1_practice.png,TMTstop-A_1_practicefirstgreen.png,TMTstop-A_1_practicefirstred.png,10,0,0,0,0,0,1,1,1,,,,,,,,,,,10.24156719999155,None,2,0.029383400004007854,10.24156719999155,None,,,,,,,,001,2021_Nov_15_1814,TMTAB,2021.2.3,144.50783521245188,
3,['3'],TMTstop-A_1_practicelinestimulus0.png,TMTstop-A_1_practicegreenlinestimulus0.png,TMTstop-A_1_practiceredlinestimulus0.png,10,0,0,0,0,0,2,2,2,,,,,,,,,,,10.352857699996093,None,3,0.037275599999702536,10.352857699996093,None,,,,,,,,001,2021_Nov_15_1814,TMTAB,2021.2.3,144.50783521245188,
4,['1'],TMTstop-A_1_practicelinestimulus1.png,TMTstop-A_1_practicegreenlinestimulus1.png,TMTstop-A_1_practiceredlinestimulus1.png,10,0,0,0,0,0,3,3,3,,,,,,,,,,,10.470691499998793,None,1,0.025187699997331947,10.470691499998793,None,,,,,,,,001,2021_Nov_15_1814,TMTAB,2021.2.3,144.50783521245188,
5,['2'],TMTstop-A_1_practicelinestimulus2.png,TMTstop-A_1_practicegreenlinestimulus2.png,TMTstop-A_1_practiceredlinestimulus2.png,10,0,0,0,0,0,4,4,4,,,,,,,,,,,10.575171599994064,None,2,0.02032310000504367,10.575171599994064,None,,,,,,,,001,2021_Nov_15_1814,TMTAB,2021.2.3,144.50783521245188,
6,['3'],TMTstop-A_1_practicelinestimulus3.png,TMTstop-A_1_practicegreenlinestimulus3.png,TMTstop-A_1_practiceredlinestimulus3.png,10,0,0,0,0,0,5,5,5,,,,,,,,,,,10.672435399988899,None,3,0.013442799987387843,10.672435399988899,None,,,,,,,,001,2021_Nov_15_1814,TMTAB,2021.2.3,144.50783521245188,
7,['1'],TMTstop-A_1_practicelinestimulus4.png,TMTstop-A_1_practicegreenlinestimulus4.png,TMTstop-A_1_practiceredlinestimulus4.png,10,0,0,0,0,0,6,6,6,,,,,,,,,,,10.755596799994237,None,1,0.022217699995962903,10.755596799994237,None,,,,,,,,001,2021_Nov_15_1814,TMTAB,2021.2.3,144.50783521245188,
8,['3'],TMTstop-A_1_practicelinestimulus5.png,TMTstop-A_1_practicegreenlinestimulus5.png,TMTstop-A_1_practiceredlinestimulus5.png,10,0,0,0,0,0,7,7,7,,,,,,,,,,,10.852956699993229,None,3,0.11642259999644011,10.852956699993229,None,,,,,,,,001,2021_Nov_15_1814,TMTAB,2021.2.3,144.50783521245188,
9,['2'],TMTstop-A_1_practicelinestimulus6.png,TMTstop-A_1_practicegreenlinestimulus6.png,TMTstop-A_1_practiceredlinestimulus6.png,10,0,0,0,0,0,8,8,8,,,,,,,,,,,11.060997299995506,None,2,0.1011177000036696,11.060997299995506,None,,,,,,,,001,2021_Nov_15_1814,TMTAB,2021.2.3,144.50783521245188,
10,['3'],TMTstop-A_1_practicelinestimulus7.png,TMTstop-A_1_practicegreenlinestimulus7.png,TMTstop-A_1_practiceredlinestimulus7.png,10,0,0,0,0,0,9,9,9,,,,,,,,,,,11.235004299989669,None,3,1.4475112999934936,11.235004299989669,None,,,,,,,,001,2021_Nov_15_1814,TMTAB,2021.2.3,144.50783521245188,
11,['1'],TMTstop-A_1_practicelinestimulus8.png,TMTstop-A_1_practicegreenlinestimulus8.png,TMTstop-A_1_practiceredlinestimulus8.png,10,0,0,0,0,0,10,10,10,,,,,,,,,,,12.762650199991185,None,1,0.36852730000100564,12.762650199991185,None,,,,,,,,001,2021_Nov_15_1814,TMTAB,2021.2.3,144.50783521245188,
12,['2'],TMTstop-A_1_practicelinestimulus9.png,TMTstop-A_1_practicegreenlinestimulus9.png,TMTstop-A_1_practiceredlinestimulus9.png,10,0,0,0,0,0,11,11,11,,,,,,,,,,,13.207092399999965,None,2,0.3799334000068484,13.207092399999965,None,,,,,,,,001,2021_Nov_15_1814,TMTAB,2021.2.3,144.50783521245188,
None,None,TMTstop-A_1_practicelinestimulus10.png,TMTstop-A_1_practicegreenlinestimulus10.png,TMTstop-A_1_practiceredlinestimulus10.png,None,0,0,0,0,0,12,12,12,,,,,,,,,,,13.658473399991635,None,None,,13.658473399991635,None,,,,,,,,001,2021_Nov_15_1814,TMTAB,2021.2.3,144.50783521245188,
,,,,,,0,0,0,0,,,,,,,,,,,,,,,,,,,,,14.712250099997618,None,x,1.6727717999892775,14.712250099997618,None,,001,2021_Nov_15_1814,TMTAB,2021.2.3,144.50783521245188,
1,['1'],TMTstop-A_1_practice.png,TMTstop-A_1_practice.png,TMTstop-A_1_practice.png,10,1,0,1,0,0,0,0,0,,,,,,,,,,,16.470861299996614,None,1,0.9897805000073276,16.470861299996614,None,,,,,,,,001,2021_Nov_15_1814,TMTAB,2021.2.3,144.50783521245188,
2,['2'],TMTstop-A_1_practice.png,TMTstop-A_1_practicefirstgreen.png,TMTstop-A_1_practicefirstred.png,10,1,0,1,0,0,1,1,1,,,,,,,,,,,17.533426699999836,None,2,0.679464699991513,17.533426699999836,None,,,,,,,,001,2021_Nov_15_1814,TMTAB,2021.2.3,144.50783521245188,
3,['3'],TMTstop-A_1_practicelinestimulus0.png,TMTstop-A_1_practicegreenlinestimulus0.png,TMTstop-A_1_practiceredlinestimulus0.png,10,1,0,1,0,0,2,2,2,,,,,,,,,,,18.29020109999692,None,3,0.07169969999813475,18.29020109999692,None,,,,,,,,001,2021_Nov_15_1814,TMTAB,2021.2.3,144.50783521245188,
4,['1'],TMTstop-A_1_practicelinestimulus1.png,TMTstop-A_1_practicegreenlinestimulus1.png,TMTstop-A_1_practiceredlinestimulus1.png,10,1,0,1,0,0,3,3,3,,,,,,,,,,,18.443185600001016,None,1,0.047115900000790134,18.443185600001016,None,,,,,,,,001,2021_Nov_15_1814,TMTAB,2021.2.3,144.50783521245188,
5,['2'],TMTstop-A_1_practicelinestimulus2.png,TMTstop-A_1_practicegreenlinestimulus2.png,TMTstop-A_1_practiceredlinestimulus2.png,10,1,0,1,0,0,4,4,4,,,,,,,,,,,18.56790199999523,None,2,0.02576059999410063,18.56790199999523,None,,,,,,,,001,2021_Nov_15_1814,TMTAB,2021.2.3,144.50783521245188,
6,['3'],TMTstop-A_1_practicelinestimulus3.png,TMTstop-A_1_practicegreenlinestimulus3.png,TMTstop-A_1_practiceredlinestimulus3.png,10,1,0,1,0,0,5,5,5,,,,,,,,,,,18.672322200000053,None,3,0.035521600002539344,18.672322200000053,None,,,,,,,,001,2021_Nov_15_1814,TMTAB,2021.2.3,144.50783521245188,
7,['1'],TMTstop-A_1_practicelinestimulus4.png,TMTstop-A_1_practicegreenlinestimulus4.png,TMTstop-A_1_practiceredlinestimulus4.png,10,1,0,1,0,0,6,6,6,,,,,,,,,,,18.78334929999255,None,1,0.04567150000366382,18.78334929999255,None,,,,,,,,001,2021_Nov_15_1814,TMTAB,2021.2.3,144.50783521245188,
8,['3'],TMTstop-A_1_practicelinestimulus5.png,TMTstop-A_1_practicegreenlinestimulus5.png,TMTstop-A_1_practiceredlinestimulus5.png,10,1,0,1,0,0,7,7,7,,,,,,,,,,,18.90875999999116,None,3,0.13517090000095777,18.90875999999116,None,,,,,,,,001,2021_Nov_15_1814,TMTAB,2021.2.3,144.50783521245188,
9,['2'],TMTstop-A_1_practicelinestimulus6.png,TMTstop-A_1_practicegreenlinestimulus6.png,TMTstop-A_1_practiceredlinestimulus6.png,10,1,0,1,0,0,8,8,8,,,,,,,,,,,19.123745399992913,None,2,0.5894385000137845,19.123745399992913,None,,,,,,,,001,2021_Nov_15_1814,TMTAB,2021.2.3,144.50783521245188,
10,['3'],TMTstop-A_1_practicelinestimulus7.png,TMTstop-A_1_practicegreenlinestimulus7.png,TMTstop-A_1_practiceredlinestimulus7.png,10,1,0,1,0,0,9,9,9,,,,,,,,,,,19.78329959999246,None,3,0.08392779999121558,19.78329959999246,None,,,,,,,,001,2021_Nov_15_1814,TMTAB,2021.2.3,144.50783521245188,
11,['1'],TMTstop-A_1_practicelinestimulus8.png,TMTstop-A_1_practicegreenlinestimulus8.png,TMTstop-A_1_practiceredlinestimulus8.png,10,1,0,1,0,0,10,10,10,,,,,,,,,,,19.93654009999591,None,1,0.7644316000078106,19.93654009999591,None,,,,,,,,001,2021_Nov_15_1814,TMTAB,2021.2.3,144.50783521245188,
12,['2'],TMTstop-A_1_practicelinestimulus9.png,TMTstop-A_1_practicegreenlinestimulus9.png,TMTstop-A_1_practiceredlinestimulus9.png,10,1,0,1,0,0,11,11,11,,,,,,,,,,,20.77658099999826,None,2,0.6700254999886965,20.77658099999826,None,,,,,,,,001,2021_Nov_15_1814,TMTAB,2021.2.3,144.50783521245188,
None,None,TMTstop-A_1_practicelinestimulus10.png,TMTstop-A_1_practicegreenlinestimulus10.png,TMTstop-A_1_practiceredlinestimulus10.png,None,1,0,1,0,0,12,12,12,,,,,,,,,,,21.526542999999947,None,None,,21.526542999999947,None,,,,,,,,001,2021_Nov_15_1814,TMTAB,2021.2.3,144.50783521245188,
,,,,,,1,0,1,0,,,,,,,,,,,,,,,,,,,,,22.525467470000148,None,None,,22.525467470000148,None,,001,2021_Nov_15_1814,TMTAB,2021.2.3,144.50783521245188,
1,['1'],TMTstop-A_1_practice.png,TMTstop-A_1_practice.png,TMTstop-A_1_practice.png,10,2,0,2,0,0,0,0,0,,,,,,,,,,,22.59572479999042,None,1,0.9284546999988379,22.59572479999042,None,,,,,,,,001,2021_Nov_15_1814,TMTAB,2021.2.3,144.50783521245188,
2,['2'],TMTstop-A_1_practice.png,TMTstop-A_1_practicefirstgreen.png,TMTstop-A_1_practicefirstred.png,10,2,0,2,0,0,1,1,1,,,,,,,,,,,23.59558229999675,None,2,0.37034949999360833,23.59558229999675,None,,,,,,,,001,2021_Nov_15_1814,TMTAB,2021.2.3,144.50783521245188,
3,['3'],TMTstop-A_1_practicelinestimulus0.png,TMTstop-A_1_practicegreenlinestimulus0.png,TMTstop-A_1_practiceredlinestimulus0.png,10,2,0,2,0,0,2,2,2,,,,,,,,,,,24.054173799988348,None,3,0.027690800008713268,24.054173799988348,None,,,,,,,,001,2021_Nov_15_1814,TMTAB,2021.2.3,144.50783521245188,
4,['1'],TMTstop-A_1_practicelinestimulus1.png,TMTstop-A_1_practicegreenlinestimulus1.png,TMTstop-A_1_practiceredlinestimulus1.png,10,2,0,2,0,0,3,3,3,,,,,,,,,,,24.151110699996934,None,1,0.05293109999911394,24.151110699996934,None,,,,,,,,001,2021_Nov_15_1814,TMTAB,2021.2.3,144.50783521245188,
5,['2'],TMTstop-A_1_practicelinestimulus2.png,TMTstop-A_1_practicegreenlinestimulus2.png,TMTstop-A_1_practiceredlinestimulus2.png,10,2,0,2,0,0,4,4,4,,,,,,,,,,,24.276284999999916,None,2,0.050618499997654,24.276284999999916,None,,,,,,,,001,2021_Nov_15_1814,TMTAB,2021.2.3,144.50783521245188,
6,['3'],TMTstop-A_1_practicelinestimulus3.png,TMTstop-A_1_practicegreenlinestimulus3.png,TMTstop-A_1_practiceredlinestimulus3.png,10,2,0,2,0,0,5,5,5,,,,,,,,,,,24.394276499995613,None,3,0.019930299997213297,24.394276499995613,None,,,,,,,,001,2021_Nov_15_1814,TMTAB,2021.2.3,144.50783521245188,
7,['1'],TMTstop-A_1_practicelinestimulus4.png,TMTstop-A_1_practicegreenlinestimulus4.png,TMTstop-A_1_practiceredlinestimulus4.png,10,2,0,2,0,0,6,6,6,,,,,,,,,,,24.491671999989194,None,1,0.04286370000045281,24.491671999989194,None,,,,,,,,001,2021_Nov_15_1814,TMTAB,2021.2.3,144.50783521245188,
8,['3'],TMTstop-A_1_practicelinestimulus5.png,TMTstop-A_1_practicegreenlinestimulus5.png,TMTstop-A_1_practiceredlinestimulus5.png,10,2,0,2,0,0,7,7,7,,,,,,,,,,,24.616469399989,None,3,0.12912740001047496,24.616469399989,None,,,,,,,,001,2021_Nov_15_1814,TMTAB,2021.2.3,144.50783521245188,
9,['2'],TMTstop-A_1_practicelinestimulus6.png,TMTstop-A_1_practicegreenlinestimulus6.png,TMTstop-A_1_practiceredlinestimulus6.png,10,2,0,2,0,0,8,8,8,,,,,,,,,,,24.817946800001664,None,2,0.18068610000773333,24.817946800001664,None,,,,,,,,001,2021_Nov_15_1814,TMTAB,2021.2.3,144.50783521245188,
10,['3'],TMTstop-A_1_practicelinestimulus7.png,TMTstop-A_1_practicegreenlinestimulus7.png,TMTstop-A_1_practiceredlinestimulus7.png,10,2,0,2,0,0,9,9,9,,,,,,,,,,,25.102694899993367,None,3,0.8497102000110317,25.102694899993367,None,,,,,,,,001,2021_Nov_15_1814,TMTAB,2021.2.3,144.50783521245188,
11,['1'],TMTstop-A_1_practicelinestimulus8.png,TMTstop-A_1_practicegreenlinestimulus8.png,TMTstop-A_1_practiceredlinestimulus8.png,10,2,0,2,0,0,10,10,10,,,,,,,,,,,26.040492599990102,None,1,0.45252310000068974,26.040492599990102,None,,,,,,,,001,2021_Nov_15_1814,TMTAB,2021.2.3,144.50783521245188,
12,['2'],TMTstop-A_1_practicelinestimulus9.png,TMTstop-A_1_practicegreenlinestimulus9.png,TMTstop-A_1_practiceredlinestimulus9.png,10,2,0,2,0,0,11,11,11,,,,,,,,,,,26.56814370000211,None,2,0.5414581999939401,26.56814370000211,None,,,,,,,,001,2021_Nov_15_1814,TMTAB,2021.2.3,144.50783521245188,
None,None,TMTstop-A_1_practicelinestimulus10.png,TMTstop-A_1_practicegreenlinestimulus10.png,TMTstop-A_1_practiceredlinestimulus10.png,None,2,0,2,0,0,12,12,12,,,,,,,,,,,27.179251399997156,None,None,,27.179251399997156,None,,,,,,,,001,2021_Nov_15_1814,TMTAB,2021.2.3,144.50783521245188,
,,,,,,2,0,2,0,,,,,,,,,,,,,,,,,,,,,28.18431799999962,None,space,1.0044640000123763,28.18431799999962,None,,001,2021_Nov_15_1814,TMTAB,2021.2.3,144.50783521245188,
1,['1'],TMTstop-A_1_practice.png,TMTstop-A_1_practice.png,TMTstop-A_1_practice.png,10,3,0,3,0,0,0,0,0,,,,,,,,,,,29.26920819999941,None,1,1.8624741999956314,29.26920819999941,None,,,,,,,,001,2021_Nov_15_1814,TMTAB,2021.2.3,144.50783521245188,
2,['2'],TMTstop-A_1_practice.png,TMTstop-A_1_practicefirstgreen.png,TMTstop-A_1_practicefirstred.png,10,3,0,3,0,0,1,1,1,,,,,,,,,,,31.22054909999133,None,2,0.2564544000051683,31.22054909999133,None,,,,,,,,001,2021_Nov_15_1814,TMTAB,2021.2.3,144.50783521245188,
3,['3'],TMTstop-A_1_practicelinestimulus0.png,TMTstop-A_1_practicegreenlinestimulus0.png,TMTstop-A_1_practiceredlinestimulus0.png,10,3,0,3,0,0,2,2,2,,,,,,,,,,,31.574328000002424,None,3,0.02242829999886453,31.574328000002424,None,,,,,,,,001,2021_Nov_15_1814,TMTAB,2021.2.3,144.50783521245188,
4,['1'],TMTstop-A_1_practicelinestimulus1.png,TMTstop-A_1_practicegreenlinestimulus1.png,TMTstop-A_1_practiceredlinestimulus1.png,10,3,0,3,0,0,3,3,3,,,,,,,,,,,31.671576599997934,None,1,0.06272520001220983,31.671576599997934,None,,,,,,,,001,2021_Nov_15_1814,TMTAB,2021.2.3,144.50783521245188,
5,['2'],TMTstop-A_1_practicelinestimulus2.png,TMTstop-A_1_practicegreenlinestimulus2.png,TMTstop-A_1_practiceredlinestimulus2.png,10,3,0,3,0,0,4,4,4,,,,,,,,,,,31.810388400001102,None,2,0.01490340000600554,31.810388400001102,None,,,,,,,,001,2021_Nov_15_1814,TMTAB,2021.2.3,144.50783521245188,
6,['3'],TMTstop-A_1_practicelinestimulus3.png,TMTstop-A_1_practicegreenlinestimulus3.png,TMTstop-A_1_practiceredlinestimulus3.png,10,3,0,3,0,0,5,5,5,,,,,,,,,,,31.907976199989207,None,3,0.018205000000307336,31.907976199989207,None,,,,,,,,001,2021_Nov_15_1814,TMTAB,2021.2.3,144.50783521245188,
7,['1'],TMTstop-A_1_practicelinestimulus4.png,TMTstop-A_1_practicegreenlinestimulus4.png,TMTstop-A_1_practiceredlinestimulus4.png,10,3,0,3,0,0,6,6,6,,,,,,,,,,,31.998248299991246,None,1,0.05298900000343565,31.998248299991246,None,,,,,,,,001,2021_Nov_15_1814,TMTAB,2021.2.3,144.50783521245188,
8,['3'],TMTstop-A_1_practicelinestimulus5.png,TMTstop-A_1_practicegreenlinestimulus5.png,TMTstop-A_1_practiceredlinestimulus5.png,10,3,0,3,0,0,7,7,7,,,,,,,,,,,32.123433599990676,None,3,0.1379925000073854,32.123433599990676,None,,,,,,,,001,2021_Nov_15_1814,TMTAB,2021.2.3,144.50783521245188,
9,['2'],TMTstop-A_1_practicelinestimulus6.png,TMTstop-A_1_practicegreenlinestimulus6.png,TMTstop-A_1_practiceredlinestimulus6.png,10,3,0,3,0,0,8,8,8,,,,,,,,,,,32.3455713000003,None,2,0.13980249999440275,32.3455713000003,None,,,,,,,,001,2021_Nov_15_1814,TMTAB,2021.2.3,144.50783521245188,
10,['3'],TMTstop-A_1_practicelinestimulus7.png,TMTstop-A_1_practicegreenlinestimulus7.png,TMTstop-A_1_practiceredlinestimulus7.png,10,3,0,3,0,0,9,9,9,,,,,,,,,,,32.57456779999484,None,3,0.01628070000151638,32.57456779999484,None,,,,,,,,001,2021_Nov_15_1814,TMTAB,2021.2.3,144.50783521245188,
11,['1'],TMTstop-A_1_practicelinestimulus8.png,TMTstop-A_1_practicegreenlinestimulus8.png,TMTstop-A_1_practiceredlinestimulus8.png,10,3,0,3,0,0,10,10,10,,,,,,,,,,,32.67198529999587,None,1,0.04155150000588037,32.67198529999587,None,,,,,,,,001,2021_Nov_15_1814,TMTAB,2021.2.3,144.50783521245188,
12,['2'],TMTstop-A_1_practicelinestimulus9.png,TMTstop-A_1_practicegreenlinestimulus9.png,TMTstop-A_1_practiceredlinestimulus9.png,10,3,0,3,0,0,11,11,11,,,,,,,,,,,32.78301569999894,None,2,0.03695520000474062,32.78301569999894,None,,,,,,,,001,2021_Nov_15_1814,TMTAB,2021.2.3,144.50783521245188,
None,None,TMTstop-A_1_practicelinestimulus10.png,TMTstop-A_1_practicegreenlinestimulus10.png,TMTstop-A_1_practiceredlinestimulus10.png,None,3,0,3,0,0,12,12,12,,,,,,,,,,,32.8941582999978,None,3,0.007062399992719293,32.8941582999978,None,,,,,,,,001,2021_Nov_15_1814,TMTAB,2021.2.3,144.50783521245188,
,,,,,,3,0,3,0,,,,,,,,,,,,,,,,,,,,,33.92874605000543,None,None,,33.92874605000543,None,,001,2021_Nov_15_1814,TMTAB,2021.2.3,144.50783521245188,
1,['1'],TMTstop-A_1_practice.png,TMTstop-A_1_practice.png,TMTstop-A_1_practice.png,10,4,0,4,0,0,0,0,0,,,,,,,,,,,33.970418199998676,None,1,1.0567542999924626,33.970418199998676,None,,,,,,,,001,2021_Nov_15_1814,TMTAB,2021.2.3,144.50783521245188,
2,['2'],TMTstop-A_1_practice.png,TMTstop-A_1_practicefirstgreen.png,TMTstop-A_1_practicefirstred.png,10,4,0,4,0,0,1,1,1,,,,,,,,,,,35.10210959998949,None,2,0.03727470000740141,35.10210959998949,None,,,,,,,,001,2021_Nov_15_1814,TMTAB,2021.2.3,144.50783521245188,
3,['3'],TMTstop-A_1_practicelinestimulus0.png,TMTstop-A_1_practicegreenlinestimulus0.png,TMTstop-A_1_practiceredlinestimulus0.png,10,4,0,4,0,0,2,2,2,,,,,,,,,,,35.213470099988626,None,3,0.015996400004951283,35.213470099988626,None,,,,,,,,001,2021_Nov_15_1814,TMTAB,2021.2.3,144.50783521245188,
4,['1'],TMTstop-A_1_practicelinestimulus1.png,TMTstop-A_1_practicegreenlinestimulus1.png,TMTstop-A_1_practiceredlinestimulus1.png,10,4,0,4,0,0,3,3,3,,,,,,,,,,,35.3105002999946,None,1,0.3639423999993596,35.3105002999946,None,,,,,,,,001,2021_Nov_15_1814,TMTAB,2021.2.3,144.50783521245188,
5,['2'],TMTstop-A_1_practicelinestimulus2.png,TMTstop-A_1_practicegreenlinestimulus2.png,TMTstop-A_1_practiceredlinestimulus2.png,10,4,0,4,0,0,4,4,4,,,,,,,,,,,35.755592899993644,None,2,0.011677999995299615,35.755592899993644,None,,,,,,,,001,2021_Nov_15_1814,TMTAB,2021.2.3,144.50783521245188,
6,['3'],TMTstop-A_1_practicelinestimulus3.png,TMTstop-A_1_practicegreenlinestimulus3.png,TMTstop-A_1_practiceredlinestimulus3.png,10,4,0,4,0,0,5,5,5,,,,,,,,,,,35.83152289999998,None,3,0.029646300012245774,35.83152289999998,None,,,,,,,,001,2021_Nov_15_1814,TMTAB,2021.2.3,144.50783521245188,
7,['1'],TMTstop-A_1_practicelinestimulus4.png,TMTstop-A_1_practicegreenlinestimulus4.png,TMTstop-A_1_practiceredlinestimulus4.png,10,4,0,4,0,0,6,6,6,,,,,,,,,,,35.943038099998375,None,1,0.0478844999888679,35.943038099998375,None,,,,,,,,001,2021_Nov_15_1814,TMTAB,2021.2.3,144.50783521245188,
8,['3'],TMTstop-A_1_practicelinestimulus5.png,TMTstop-A_1_practicegreenlinestimulus5.png,TMTstop-A_1_practiceredlinestimulus5.png,10,4,0,4,0,0,7,7,7,,,,,,,,,,,36.06793189999007,None,3,0.1142359000077704,36.06793189999007,None,,,,,,,,001,2021_Nov_15_1814,TMTAB,2021.2.3,144.50783521245188,
9,['2'],TMTstop-A_1_practicelinestimulus6.png,TMTstop-A_1_practicegreenlinestimulus6.png,TMTstop-A_1_practiceredlinestimulus6.png,10,4,0,4,0,0,8,8,8,,,,,,,,,,,36.27621209999779,None,2,0.12636289998772554,36.27621209999779,None,,,,,,,,001,2021_Nov_15_1814,TMTAB,2021.2.3,144.50783521245188,
10,['3'],TMTstop-A_1_practicelinestimulus7.png,TMTstop-A_1_practicegreenlinestimulus7.png,TMTstop-A_1_practiceredlinestimulus7.png,10,4,0,4,0,0,9,9,9,,,,,,,,,,,36.49094459999469,None,3,0.5590833000023849,36.49094459999469,None,,,,,,,,001,2021_Nov_15_1814,TMTAB,2021.2.3,144.50783521245188,
11,['1'],TMTstop-A_1_practicelinestimulus8.png,TMTstop-A_1_practicegreenlinestimulus8.png,TMTstop-A_1_practiceredlinestimulus8.png,10,4,0,4,0,0,10,10,10,,,,,,,,,,,37.136800699998275,None,1,0.08289429999422282,37.136800699998275,None,,,,,,,,001,2021_Nov_15_1814,TMTAB,2021.2.3,144.50783521245188,
12,['2'],TMTstop-A_1_practicelinestimulus9.png,TMTstop-A_1_practicegreenlinestimulus9.png,TMTstop-A_1_practiceredlinestimulus9.png,10,4,0,4,0,0,11,11,11,,,,,,,,,,,37.28333649999695,None,2,0.03185769999981858,37.28333649999695,None,,,,,,,,001,2021_Nov_15_1814,TMTAB,2021.2.3,144.50783521245188,
None,None,TMTstop-A_1_practicelinestimulus10.png,TMTstop-A_1_practicegreenlinestimulus10.png,TMTstop-A_1_practiceredlinestimulus10.png,None,4,0,4,0,0,12,12,12,,,,,,,,,,,37.39416599999822,None,3,0.03754389999085106,37.39416599999822,None,,,,,,,,001,2021_Nov_15_1814,TMTAB,2021.2.3,144.50783521245188,
,,,,,,4,0,4,0,,,,,,,,,,,,,,,,,,,,,38.447915299999295,None,space,1.2723157000000356,38.447915299999295,None,,001,2021_Nov_15_1814,TMTAB,2021.2.3,144.50783521245188,
,,,,,,,,,,,,,,,,,,,,,,39.738356499990914,None,,,,,,,,,,,,,,,,,,,
