Block_file,Condition_rows,NumberLetter,corrAns,Correct,StimFile,Correct_StimFile,False_StimFile,Block,TrialNumber_session,restartpractice.thisRepN,restartpractice.thisTrialN,restartpractice.thisN,restartpractice.thisIndex,trials_practice.thisRepN,trials_practice.thisTrialN,trials_practice.thisN,trials_practice.thisIndex,Blocks_loop.thisRepN,Blocks_loop.thisTrialN,Blocks_loop.thisN,Blocks_loop.thisIndex,trials.thisRepN,trials.thisTrialN,trials.thisN,trials.thisIndex,Attempts,First_attempt,Stim.started,Stim.stopped,key_resp_2.keys,key_resp_2.corr,key_resp_2.rt,key_resp_2.started,key_resp_2.stopped,participant,session,date,expName,psychopyVersion,frameRate,
TMTstop-A_1_1.xlsx,0:26,1,['2'],2,TMTstop-A_1_1.png,TMTstop-A_1_1.png,TMTstop-A_1_1.png,1,1,,,,,,,,,0,0,0,0,0,0,0,0,1,1,19.48625549999997,None,['2'],1,[0.40455880016088486],19.48625549999997,None,,001,2022_Feb_02_1459,TMTAstop-A,2021.2.3,150.14924830064368,
TMTstop-A_1_1.xlsx,0:26,2,['1'],1,TMTstop-A_1_1.png,TMTstop-A_1_1firstgreen.png,TMTstop-A_1_1firstred.png,1,2,,,,,,,,,0,0,0,0,0,1,1,1,1,1,19.964788199868053,None,['1'],1,[-0.0550844999961555],19.964788199868053,None,,001,2022_Feb_02_1459,TMTAstop-A,2021.2.3,150.14924830064368,
TMTstop-A_1_1.xlsx,0:26,3,['2'],2,TMTstop-A_1_1linestimulus0.png,TMTstop-A_1_1greenlinestimulus0.png,TMTstop-A_1_1redlinestimulus0.png,1,3,,,,,,,,,0,0,0,0,0,2,2,2,3,1,20.048068299889565,None,"['3', '1', '2']",1,"[-0.0014783998485654593, 0.15130869997665286, 0.2463237999472767]",20.048068299889565,None,,001,2022_Feb_02_1459,TMTAstop-A,2021.2.3,150.14924830064368,
TMTstop-A_1_1.xlsx,0:26,4,['3'],3,TMTstop-A_1_1linestimulus1.png,TMTstop-A_1_1greenlinestimulus1.png,TMTstop-A_1_1redlinestimulus1.png,1,4,,,,,,,,,0,0,0,0,0,3,3,3,1,1,20.403106299927458,None,['3'],1,[-0.054081999929621816],20.403106299927458,None,,001,2022_Feb_02_1459,TMTAstop-A,2021.2.3,150.14924830064368,
TMTstop-A_1_1.xlsx,0:26,5,['2'],2,TMTstop-A_1_1linestimulus2.png,TMTstop-A_1_1greenlinestimulus2.png,TMTstop-A_1_1redlinestimulus2.png,1,5,,,,,,,,,0,0,0,0,0,4,4,4,2,1,20.478877199813724,None,"['1', '2']",1,"[0.017819699831306934, 0.07197759998962283]",20.478877199813724,None,,001,2022_Feb_02_1459,TMTAstop-A,2021.2.3,150.14924830064368,
TMTstop-A_1_1.xlsx,0:26,6,['3'],3,TMTstop-A_1_1linestimulus3.png,TMTstop-A_1_1greenlinestimulus3.png,TMTstop-A_1_1redlinestimulus3.png,1,6,,,,,,,,,0,0,0,0,0,5,5,5,1,1,20.65911370003596,None,['3'],1,[-0.008029900025576353],20.65911370003596,None,,001,2022_Feb_02_1459,TMTAstop-A,2021.2.3,150.14924830064368,
TMTstop-A_1_1.xlsx,0:26,7,['2'],2,TMTstop-A_1_1linestimulus4.png,TMTstop-A_1_1greenlinestimulus4.png,TMTstop-A_1_1redlinestimulus4.png,1,7,,,,,,,,,0,0,0,0,0,6,6,6,2,1,20.735392099944875,None,"['1', '2']",1,"[0.04518790007568896, 0.11297330004163086]",20.735392099944875,None,,001,2022_Feb_02_1459,TMTAstop-A,2021.2.3,150.14924830064368,
TMTstop-A_1_1.xlsx,0:26,8,['1'],1,TMTstop-A_1_1linestimulus5.png,TMTstop-A_1_1greenlinestimulus5.png,TMTstop-A_1_1redlinestimulus5.png,1,8,,,,,,,,,0,0,0,0,0,7,7,7,2,1,20.943770099896938,None,"['3', '1']",1,"[0.009558900026604533, 0.14955920004285872]",20.943770099896938,None,,001,2022_Feb_02_1459,TMTAstop-A,2021.2.3,150.14924830064368,
TMTstop-A_1_1.xlsx,0:26,9,['2'],2,TMTstop-A_1_1linestimulus6.png,TMTstop-A_1_1greenlinestimulus6.png,TMTstop-A_1_1redlinestimulus6.png,1,9,,,,,,,,,0,0,0,0,0,8,8,8,1,1,21.200987600022927,None,['2'],1,[-0.03855860000476241],21.200987600022927,None,,001,2022_Feb_02_1459,TMTAstop-A,2021.2.3,150.14924830064368,
TMTstop-A_1_1.xlsx,0:26,10,['1'],1,TMTstop-A_1_1linestimulus7.png,TMTstop-A_1_1greenlinestimulus7.png,TMTstop-A_1_1redlinestimulus7.png,1,10,,,,,,,,,0,0,0,0,0,9,9,9,2,1,21.27823599986732,None,"['3', '1']",1,"[-0.03450159984640777, 0.10125160007737577]",21.27823599986732,None,,001,2022_Feb_02_1459,TMTAstop-A,2021.2.3,150.14924830064368,
TMTstop-A_1_1.xlsx,0:26,11,['2'],2,TMTstop-A_1_1linestimulus8.png,TMTstop-A_1_1greenlinestimulus8.png,TMTstop-A_1_1redlinestimulus8.png,1,11,,,,,,,,,0,0,0,0,0,10,10,10,1,1,21.479835100006312,None,['2'],1,[-0.025230000028386712],21.479835100006312,None,,001,2022_Feb_02_1459,TMTAstop-A,2021.2.3,150.14924830064368,
TMTstop-A_1_1.xlsx,0:26,12,['3'],3,TMTstop-A_1_1linestimulus9.png,TMTstop-A_1_1greenlinestimulus9.png,TMTstop-A_1_1redlinestimulus9.png,1,12,,,,,,,,,0,0,0,0,0,11,11,11,1,1,21.55593689996749,None,['3'],1,[-0.02877400000579655],21.55593689996749,None,,001,2022_Feb_02_1459,TMTAstop-A,2021.2.3,150.14924830064368,
TMTstop-A_1_1.xlsx,0:26,13,['2'],2,TMTstop-A_1_1linestimulus10.png,TMTstop-A_1_1greenlinestimulus10.png,TMTstop-A_1_1redlinestimulus10.png,1,13,,,,,,,,,0,0,0,0,0,12,12,12,2,1,21.63165849982761,None,"['1', '2']",1,"[0.02867919998243451, 0.08372189989313483]",21.63165849982761,None,,001,2022_Feb_02_1459,TMTAstop-A,2021.2.3,150.14924830064368,
TMTstop-A_1_1.xlsx,0:26,14,['3'],3,TMTstop-A_1_1linestimulus11.png,TMTstop-A_1_1greenlinestimulus11.png,TMTstop-A_1_1redlinestimulus11.png,1,14,,,,,,,,,0,0,0,0,0,13,13,13,1,1,21.82560079987161,None,['3'],1,[-0.027676699915900826],21.82560079987161,None,,001,2022_Feb_02_1459,TMTAstop-A,2021.2.3,150.14924830064368,
TMTstop-A_1_1.xlsx,0:26,15,['1'],1,TMTstop-A_1_1linestimulus12.png,TMTstop-A_1_1greenlinestimulus12.png,TMTstop-A_1_1redlinestimulus12.png,1,15,,,,,,,,,0,0,0,0,0,14,14,14,1,1,21.902035600040108,None,['1'],1,[0.0049761999398469925],21.902035600040108,None,,001,2022_Feb_02_1459,TMTAstop-A,2021.2.3,150.14924830064368,
TMTstop-A_1_1.xlsx,0:26,16,['3'],3,TMTstop-A_1_1linestimulus13.png,TMTstop-A_1_1greenlinestimulus13.png,TMTstop-A_1_1redlinestimulus13.png,1,16,,,,,,,,,0,0,0,0,0,15,15,15,2,1,21.992247599875554,None,"['2', '3']",1,"[0.010735299903899431, 0.04830579995177686]",21.992247599875554,None,,001,2022_Feb_02_1459,TMTAstop-A,2021.2.3,150.14924830064368,
TMTstop-A_1_1.xlsx,0:26,17,['2'],2,TMTstop-A_1_1linestimulus14.png,TMTstop-A_1_1greenlinestimulus14.png,TMTstop-A_1_1redlinestimulus14.png,1,17,,,,,,,,,0,0,0,0,0,16,16,16,2,1,22.125150499865413,None,"['1', '2']",1,"[0.052262800047174096, 0.13151850015856326]",22.125150499865413,None,,001,2022_Feb_02_1459,TMTAstop-A,2021.2.3,150.14924830064368,
TMTstop-A_1_1.xlsx,0:26,18,['3'],3,TMTstop-A_1_1linestimulus15.png,TMTstop-A_1_1greenlinestimulus15.png,TMTstop-A_1_1redlinestimulus15.png,1,18,,,,,,,,,0,0,0,0,0,17,17,17,1,1,22.360301499953493,None,['3'],1,[-0.041623299941420555],22.360301499953493,None,,001,2022_Feb_02_1459,TMTAstop-A,2021.2.3,150.14924830064368,
TMTstop-A_1_1.xlsx,0:26,19,['1'],1,TMTstop-A_1_1linestimulus16.png,TMTstop-A_1_1greenlinestimulus16.png,TMTstop-A_1_1redlinestimulus16.png,1,19,,,,,,,,,0,0,0,0,0,18,18,18,1,1,22.43666210002266,None,['1'],1,[0.023283400107175112],22.43666210002266,None,,001,2022_Feb_02_1459,TMTAstop-A,2021.2.3,150.14924830064368,
TMTstop-A_1_1.xlsx,0:26,20,['3'],3,TMTstop-A_1_1linestimulus17.png,TMTstop-A_1_1greenlinestimulus17.png,TMTstop-A_1_1redlinestimulus17.png,1,20,,,,,,,,,0,0,0,0,0,19,19,19,2,1,22.541012899950147,None,"['2', '3']",1,"[0.00222550006583333, 0.06790519994683564]",22.541012899950147,None,,001,2022_Feb_02_1459,TMTAstop-A,2021.2.3,150.14924830064368,
TMTstop-A_1_1.xlsx,0:26,21,['1'],1,TMTstop-A_1_1linestimulus18.png,TMTstop-A_1_1greenlinestimulus18.png,TMTstop-A_1_1redlinestimulus18.png,1,21,,,,,,,,,0,0,0,0,0,20,20,20,1,1,22.722166299819946,None,['1'],1,[0.04700280004180968],22.722166299819946,None,,001,2022_Feb_02_1459,TMTAstop-A,2021.2.3,150.14924830064368,
TMTstop-A_1_1.xlsx,0:26,22,['3'],3,TMTstop-A_1_1linestimulus19.png,TMTstop-A_1_1greenlinestimulus19.png,TMTstop-A_1_1redlinestimulus19.png,1,22,,,,,,,,,0,0,0,0,0,21,21,21,2,1,22.853439399972558,None,"['2', '3']",1,"[-0.03499179985374212, 0.03983870008960366]",22.853439399972558,None,,001,2022_Feb_02_1459,TMTAstop-A,2021.2.3,150.14924830064368,
TMTstop-A_1_1.xlsx,0:26,23,['1'],1,TMTstop-A_1_1linestimulus20.png,TMTstop-A_1_1greenlinestimulus20.png,TMTstop-A_1_1redlinestimulus20.png,1,23,,,,,,,,,0,0,0,0,0,22,22,22,1,1,22.97865019994788,None,['1'],1,[0.04741460015065968],22.97865019994788,None,,001,2022_Feb_02_1459,TMTAstop-A,2021.2.3,150.14924830064368,
TMTstop-A_1_1.xlsx,0:26,24,['2'],2,TMTstop-A_1_1linestimulus21.png,TMTstop-A_1_1greenlinestimulus21.png,TMTstop-A_1_1redlinestimulus21.png,1,24,,,,,,,,,0,0,0,0,0,23,23,23,1,1,23.110390999820083,None,['2'],1,[-0.011492800200358033],23.110390999820083,None,,001,2022_Feb_02_1459,TMTAstop-A,2021.2.3,150.14924830064368,
TMTstop-A_1_1.xlsx,0:26,25,['3'],3,TMTstop-A_1_1linestimulus22.png,TMTstop-A_1_1greenlinestimulus22.png,TMTstop-A_1_1redlinestimulus22.png,1,25,,,,,,,,,0,0,0,0,0,24,24,24,1,1,23.193751099985093,None,['3'],1,[-0.030445499811321497],23.193751099985093,None,,001,2022_Feb_02_1459,TMTAstop-A,2021.2.3,150.14924830064368,
TMTstop-A_1_1.xlsx,0:26,None,None,None,TMTstop-A_1_1linestimulus23.png,TMTstop-A_1_1greenlinestimulus23.png,TMTstop-A_1_1redlinestimulus23.png,1,None,,,,,,,,,0,0,0,0,0,25,25,25,3,1,23.277323700021952,None,"['1', '2', '3']",0,"[0.01358940009959042, 0.06531380000524223, 0.17424600012600422]",23.277323700021952,None,,001,2022_Feb_02_1459,TMTAstop-A,2021.2.3,150.14924830064368,
TMTstop-A_1_2.xlsx,26:52,1,['3'],3,TMTstop-A_1_2.png,TMTstop-A_1_2.png,TMTstop-A_1_2.png,2,26,,,,,,,,,0,1,1,1,0,0,0,0,2,1,27.409397799987346,None,"['2', '3']",1,"[0.45501759997569025, 0.8556948998011649]",27.409397799987346,None,,001,2022_Feb_02_1459,TMTAstop-A,2021.2.3,150.14924830064368,
TMTstop-A_1_2.xlsx,26:52,2,['2'],2,TMTstop-A_1_2.png,TMTstop-A_1_2firstgreen.png,TMTstop-A_1_2firstred.png,2,27,,,,,,,,,0,1,1,1,0,1,1,1,2,1,28.35330819990486,None,"['1', '2']",1,"[0.2724115999881178, 0.6686026998795569]",28.35330819990486,None,,001,2022_Feb_02_1459,TMTAstop-A,2021.2.3,150.14924830064368,
TMTstop-A_1_2.xlsx,26:52,3,['3'],3,TMTstop-A_1_2linestimulus0.png,TMTstop-A_1_2greenlinestimulus0.png,TMTstop-A_1_2redlinestimulus0.png,2,28,,,,,,,,,0,1,1,1,0,2,2,2,0,1,29.130890700034797,None,None,0,,29.130890700034797,None,,001,2022_Feb_02_1459,TMTAstop-A,2021.2.3,150.14924830064368,
