NumberLetter,corrAns,Correct,StimFile,Correct_StimFile,False_StimFile,Version,Block,TrialNumber_session,n,Stim.started_mean,Stim.started_raw,Stim.started_std,Stim.stopped_raw,key_resp_2.corr_mean,key_resp_2.corr_raw,key_resp_2.corr_std,key_resp_2.keys_raw,key_resp_2.rt_raw,key_resp_2.started_mean,key_resp_2.started_raw,key_resp_2.started_std,key_resp_2.stopped_raw,order
1,['2'],2,TMTstop-control_1_1.png,TMTstop-control_1_1.png,TMTstop-control_1_1.png,TMT_Control,1,1,1.0,22.025733947753906,22.025733947753906,0.0,,1.0,1.0,0.0,2,1.2053669000015361,22.025733947753906,22.025733947753906,0.0,,0.0
2,['1'],1,TMTstop-control_1_1.png,TMTstop-control_1_1firstgreen.png,TMTstop-control_1_1firstred.png,TMT_Control,1,2,1.0,23.317808151245117,23.317808151245117,0.0,,1.0,1.0,0.0,1,0.8597355000092648,23.317808151245117,23.317808151245117,0.0,,1.0
3,['2'],2,TMTstop-control_1_1linestimulus0.png,TMTstop-control_1_1greenlinestimulus0.png,TMTstop-control_1_1redlinestimulus0.png,TMT_Control,1,3,1.0,24.262598037719727,24.262598037719727,0.0,,1.0,1.0,0.0,3,2,0.5196501000027638,0.8603790000051958,24.262598037719727,24.262598037719727,0.0,,2.0
4,['3'],3,TMTstop-control_1_1linestimulus1.png,TMTstop-control_1_1greenlinestimulus1.png,TMTstop-control_1_1redlinestimulus1.png,TMT_Control,1,4,1.0,25.241201400756836,25.241201400756836,0.0,,1.0,1.0,0.0,3,0.3302497999975458,25.241201400756836,25.241201400756836,0.0,,3.0
5,['2'],2,TMTstop-control_1_1linestimulus2.png,TMTstop-control_1_1greenlinestimulus2.png,TMTstop-control_1_1redlinestimulus2.png,TMT_Control,1,5,1.0,25.65087127685547,25.65087127685547,0.0,,1.0,1.0,0.0,1,2,0.08437810000032187,0.28031600000394974,25.65087127685547,25.65087127685547,0.0,,4.0
6,['1'],1,TMTstop-control_1_1linestimulus3.png,TMTstop-control_1_1greenlinestimulus3.png,TMTstop-control_1_1redlinestimulus3.png,TMT_Control,1,6,1.0,26.02642250061035,26.02642250061035,0.0,,1.0,1.0,0.0,3,1,-0.04683089999889489,0.17909430000872817,26.02642250061035,26.02642250061035,0.0,,5.0
7,['3'],3,TMTstop-control_1_1linestimulus4.png,TMTstop-control_1_1greenlinestimulus4.png,TMTstop-control_1_1redlinestimulus4.png,TMT_Control,1,7,1.0,26.310699462890625,26.310699462890625,0.0,,1.0,1.0,0.0,2,3,0.013249600000563078,0.10735690000001341,26.310699462890625,26.310699462890625,0.0,,6.0
8,['2'],2,TMTstop-control_1_1linestimulus4.png,TMTstop-control_1_1greenlinestimulus5.png,TMTstop-control_1_1redlinestimulus5.png,TMT_Control,1,8,1.0,26.519559860229492,26.519559860229492,0.0,,1.0,1.0,0.0,1,2,0.06806200000573881,0.13660240000172053,26.519559860229492,26.519559860229492,0.0,,7.0
9,['3'],3,TMTstop-control_1_1linestimulus6.png,TMTstop-control_1_1greenlinestimulus6.png,TMTstop-control_1_1redlinestimulus6.png,TMT_Control,1,9,1.0,26.741546630859375,26.741546630859375,0.0,,1.0,1.0,0.0,3,0.0005835000047227368,26.741546630859375,26.741546630859375,0.0,,8.0
10,['2'],2,TMTstop-control_1_1linestimulus7.png,TMTstop-control_1_1greenlinestimulus7.png,TMTstop-control_1_1redlinestimulus7.png,TMT_Control,1,10,1.0,26.81066131591797,26.81066131591797,0.0,,1.0,1.0,0.0,1,2,0.06582510001317132,0.17807360000733752,26.81066131591797,26.81066131591797,0.0,,9.0
11,['3'],3,TMTstop-control_1_1linestimulus8.png,TMTstop-control_1_1greenlinestimulus8.png,TMTstop-control_1_1redlinestimulus8.png,TMT_Control,1,11,1.0,27.0817928314209,27.0817928314209,0.0,,1.0,1.0,0.0,3,-0.025208600010955706,27.0817928314209,27.0817928314209,0.0,,10.0
12,['1'],1,TMTstop-control_1_1linestimulus9.png,TMTstop-control_1_1greenlinestimulus9.png,TMTstop-control_1_1redlinestimulus9.png,TMT_Control,1,12,1.0,27.15125846862793,27.15125846862793,0.0,,1.0,1.0,0.0,1,0.09355950000463054,27.15125846862793,27.15125846862793,0.0,,11.0
13,['3'],3,TMTstop-control_1_1linestimulus10.png,TMTstop-control_1_1greenlinestimulus10.png,TMTstop-control_1_1redlinestimulus10.png,TMT_Control,1,13,1.0,27.32484245300293,27.32484245300293,0.0,,1.0,1.0,0.0,2,3,0.0035795000003417954,0.11119239999970887,27.32484245300293,27.32484245300293,0.0,,12.0
14,['1'],1,TMTstop-control_1_1linestimulus11.png,TMTstop-control_1_1greenlinestimulus11.png,TMTstop-control_1_1redlinestimulus11.png,TMT_Control,1,14,1.0,27.53317642211914,27.53317642211914,0.0,,1.0,1.0,0.0,1,0.0491494000016246,27.53317642211914,27.53317642211914,0.0,,13.0
15,['3'],3,TMTstop-control_1_1linestimulus12.png,TMTstop-control_1_1greenlinestimulus12.png,TMTstop-control_1_1redlinestimulus12.png,TMT_Control,1,15,1.0,27.658220291137695,27.658220291137695,0.0,,1.0,1.0,0.0,2,3,-0.017282499989960343,0.11002700000244658,27.658220291137695,27.658220291137695,0.0,,14.0
16,['1'],1,TMTstop-control_1_1linestimulus13.png,TMTstop-control_1_1greenlinestimulus13.png,TMTstop-control_1_1redlinestimulus13.png,TMT_Control,1,16,1.0,27.85259246826172,27.85259246826172,0.0,,1.0,1.0,0.0,1,0.04319810000015423,27.85259246826172,27.85259246826172,0.0,,15.0
17,['2'],2,TMTstop-control_1_1linestimulus14.png,TMTstop-control_1_1greenlinestimulus14.png,TMTstop-control_1_1redlinestimulus14.png,TMT_Control,1,17,1.0,27.977428436279297,27.977428436279297,0.0,,1.0,1.0,0.0,2,-0.007143299997551367,27.977428436279297,27.977428436279297,0.0,,16.0
18,['1'],1,TMTstop-control_1_1linestimulus15.png,TMTstop-control_1_1greenlinestimulus15.png,TMTstop-control_1_1redlinestimulus15.png,TMT_Control,1,18,1.0,28.047208786010742,28.047208786010742,0.0,,1.0,1.0,0.0,3,1,0.013914800001657568,0.14172499999403954,28.047208786010742,28.047208786010742,0.0,,17.0
19,['3'],3,TMTstop-control_1_1linestimulus16.png,TMTstop-control_1_1greenlinestimulus16.png,TMTstop-control_1_1redlinestimulus16.png,TMT_Control,1,19,1.0,28.29710578918457,28.29710578918457,0.0,,1.0,1.0,0.0,2,3,-0.01378570000815671,0.06410969998978544,28.29710578918457,28.29710578918457,0.0,,18.0
20,['1'],1,TMTstop-control_1_1linestimulus17.png,TMTstop-control_1_1greenlinestimulus17.png,TMTstop-control_1_1redlinestimulus17.png,TMT_Control,1,20,1.0,28.44977378845215,28.44977378845215,0.0,,1.0,1.0,0.0,1,0.030656999995699152,28.44977378845215,28.44977378845215,0.0,,19.0
21,['3'],3,TMTstop-control_1_1linestimulus18.png,TMTstop-control_1_1greenlinestimulus18.png,TMTstop-control_1_1redlinestimulus18.png,TMT_Control,1,21,1.0,28.59532356262207,28.59532356262207,0.0,,1.0,1.0,0.0,2,3,-0.02379460001247935,0.07191519999469165,28.59532356262207,28.59532356262207,0.0,,20.0
22,['1'],1,TMTstop-control_1_1linestimulus19.png,TMTstop-control_1_1greenlinestimulus19.png,TMTstop-control_1_1redlinestimulus19.png,TMT_Control,1,22,1.0,28.748323440551758,28.748323440551758,0.0,,1.0,1.0,0.0,1,0.04442770000605378,28.748323440551758,28.748323440551758,0.0,,21.0
23,['3'],3,TMTstop-control_1_1linestimulus20.png,TMTstop-control_1_1greenlinestimulus20.png,TMTstop-control_1_1redlinestimulus20.png,TMT_Control,1,23,1.0,28.873462677001953,28.873462677001953,0.0,,1.0,1.0,0.0,2,3,0.013332999995327555,0.09678259999782313,28.873462677001953,28.873462677001953,0.0,,22.0
24,['1'],1,TMTstop-control_1_1linestimulus21.png,TMTstop-control_1_1greenlinestimulus21.png,TMTstop-control_1_1redlinestimulus21.png,TMT_Control,1,24,1.0,29.04697036743164,29.04697036743164,0.0,,1.0,1.0,0.0,1,0.053849599993554875,29.04697036743164,29.04697036743164,0.0,,23.0
25,['3'],3,TMTstop-control_1_1linestimulus22.png,TMTstop-control_1_1greenlinestimulus22.png,TMTstop-control_1_1redlinestimulus22.png,TMT_Control,1,25,1.0,29.171859741210938,29.171859741210938,0.0,,1.0,1.0,0.0,2,3,-0.010553700005402789,0.11284449999220669,29.171859741210938,29.171859741210938,0.0,,24.0
None,None,None,TMTstop-control_1_1linestimulus23.png,TMTstop-control_1_1greenlinestimulus23.png,TMTstop-control_1_1redlinestimulus23.png,TMT_Control,1,Feedback_last,1.0,29.366201400756836,29.366201400756836,0.0,,0.0,0.0,0.0,2,0.1621572999865748,29.366201400756836,29.366201400756836,0.0,,25.0

extraInfo
participant,
session,001
date,2022_Mar_30_1015
expName,TMT_fmri
psychopyVersion,2021.2.3
frameRate,143.5661545785615
﻿NumberLetter,corrAns,Correct,StimFile,Correct_StimFile,False_StimFile,Version,Block,TrialNumber_session,n,Stim.started_mean,Stim.started_raw,Stim.started_std,Stim.stopped_raw,key_resp_2.corr_mean,key_resp_2.corr_raw,key_resp_2.corr_std,key_resp_2.keys_raw,key_resp_2.rt_raw,key_resp_2.started_mean,key_resp_2.started_raw,key_resp_2.started_std,key_resp_2.stopped_raw,order
1,['1'],1,TMTstop-control_1_2.png,TMTstop-control_1_2.png,TMTstop-control_1_2.png,TMT_Control,2,26,1.0,33.490997314453125,33.490997314453125,0.0,,1.0,1.0,0.0,2,3,1,0.6307458000082988,1.1257197000086308,1.3881153000111226,33.490997314453125,33.490997314453125,0.0,,0.0
2,['3'],3,TMTstop-control_1_2.png,TMTstop-control_1_2firstgreen.png,TMTstop-control_1_2firstred.png,TMT_Control,2,27,1.0,35.03312683105469,35.03312683105469,0.0,,1.0,1.0,0.0,2,3,0.4338791000045603,0.9982529000117211,35.03312683105469,35.03312683105469,0.0,,1.0
3,['2'],2,TMTstop-control_1_2linestimulus0.png,TMTstop-control_1_2greenlinestimulus0.png,TMTstop-control_1_2redlinestimulus0.png,TMT_Control,2,28,1.0,36.11620330810547,36.11620330810547,0.0,,0.0,0.0,0.0,,'--',36.11620330810547,36.11620330810547,0.0,,2.0
4,['3'],3,TMTstop-control_1_2linestimulus1.png,TMTstop-control_1_2greenlinestimulus1.png,TMTstop-control_1_2redlinestimulus1.png,TMT_Control,2,29,0.0,,,,'--',,,,'--','--',,,,'--',
5,['1'],1,TMTstop-control_1_2linestimulus2.png,TMTstop-control_1_2greenlinestimulus2.png,TMTstop-control_1_2redlinestimulus2.png,TMT_Control,2,30,0.0,,,,'--',,,,'--','--',,,,'--',
6,['3'],3,TMTstop-control_1_2linestimulus3.png,TMTstop-control_1_2greenlinestimulus3.png,TMTstop-control_1_2redlinestimulus3.png,TMT_Control,2,31,0.0,,,,'--',,,,'--','--',,,,'--',
7,['2'],2,TMTstop-control_1_2linestimulus4.png,TMTstop-control_1_2greenlinestimulus4.png,TMTstop-control_1_2redlinestimulus4.png,TMT_Control,2,32,0.0,,,,'--',,,,'--','--',,,,'--',
8,['1'],1,TMTstop-control_1_2linestimulus4.png,TMTstop-control_1_2greenlinestimulus5.png,TMTstop-control_1_2redlinestimulus5.png,TMT_Control,2,33,0.0,,,,'--',,,,'--','--',,,,'--',
9,['2'],2,TMTstop-control_1_2linestimulus6.png,TMTstop-control_1_2greenlinestimulus6.png,TMTstop-control_1_2redlinestimulus6.png,TMT_Control,2,34,0.0,,,,'--',,,,'--','--',,,,'--',
10,['3'],3,TMTstop-control_1_2linestimulus7.png,TMTstop-control_1_2greenlinestimulus7.png,TMTstop-control_1_2redlinestimulus7.png,TMT_Control,2,35,0.0,,,,'--',,,,'--','--',,,,'--',
11,['1'],1,TMTstop-control_1_2linestimulus8.png,TMTstop-control_1_2greenlinestimulus8.png,TMTstop-control_1_2redlinestimulus8.png,TMT_Control,2,36,0.0,,,,'--',,,,'--','--',,,,'--',
12,['2'],2,TMTstop-control_1_2linestimulus9.png,TMTstop-control_1_2greenlinestimulus9.png,TMTstop-control_1_2redlinestimulus9.png,TMT_Control,2,37,0.0,,,,'--',,,,'--','--',,,,'--',
13,['3'],3,TMTstop-control_1_2linestimulus10.png,TMTstop-control_1_2greenlinestimulus10.png,TMTstop-control_1_2redlinestimulus10.png,TMT_Control,2,38,0.0,,,,'--',,,,'--','--',,,,'--',
14,['1'],1,TMTstop-control_1_2linestimulus11.png,TMTstop-control_1_2greenlinestimulus11.png,TMTstop-control_1_2redlinestimulus11.png,TMT_Control,2,39,0.0,,,,'--',,,,'--','--',,,,'--',
15,['2'],2,TMTstop-control_1_2linestimulus12.png,TMTstop-control_1_2greenlinestimulus12.png,TMTstop-control_1_2redlinestimulus12.png,TMT_Control,2,40,0.0,,,,'--',,,,'--','--',,,,'--',
16,['1'],1,TMTstop-control_1_2linestimulus13.png,TMTstop-control_1_2greenlinestimulus13.png,TMTstop-control_1_2redlinestimulus13.png,TMT_Control,2,41,0.0,,,,'--',,,,'--','--',,,,'--',
17,['2'],2,TMTstop-control_1_2linestimulus14.png,TMTstop-control_1_2greenlinestimulus14.png,TMTstop-control_1_2redlinestimulus14.png,TMT_Control,2,42,0.0,,,,'--',,,,'--','--',,,,'--',
18,['1'],1,TMTstop-control_1_2linestimulus15.png,TMTstop-control_1_2greenlinestimulus15.png,TMTstop-control_1_2redlinestimulus15.png,TMT_Control,2,43,0.0,,,,'--',,,,'--','--',,,,'--',
19,['3'],3,TMTstop-control_1_2linestimulus16.png,TMTstop-control_1_2greenlinestimulus16.png,TMTstop-control_1_2redlinestimulus16.png,TMT_Control,2,44,0.0,,,,'--',,,,'--','--',,,,'--',
20,['1'],1,TMTstop-control_1_2linestimulus17.png,TMTstop-control_1_2greenlinestimulus17.png,TMTstop-control_1_2redlinestimulus17.png,TMT_Control,2,45,0.0,,,,'--',,,,'--','--',,,,'--',
21,['2'],2,TMTstop-control_1_2linestimulus18.png,TMTstop-control_1_2greenlinestimulus18.png,TMTstop-control_1_2redlinestimulus18.png,TMT_Control,2,46,0.0,,,,'--',,,,'--','--',,,,'--',
22,['1'],1,TMTstop-control_1_2linestimulus19.png,TMTstop-control_1_2greenlinestimulus19.png,TMTstop-control_1_2redlinestimulus19.png,TMT_Control,2,47,0.0,,,,'--',,,,'--','--',,,,'--',
23,['3'],3,TMTstop-control_1_2linestimulus20.png,TMTstop-control_1_2greenlinestimulus20.png,TMTstop-control_1_2redlinestimulus20.png,TMT_Control,2,48,0.0,,,,'--',,,,'--','--',,,,'--',
24,['1'],1,TMTstop-control_1_2linestimulus21.png,TMTstop-control_1_2greenlinestimulus21.png,TMTstop-control_1_2redlinestimulus21.png,TMT_Control,2,49,0.0,,,,'--',,,,'--','--',,,,'--',
25,['3'],3,TMTstop-control_1_2linestimulus22.png,TMTstop-control_1_2greenlinestimulus22.png,TMTstop-control_1_2redlinestimulus22.png,TMT_Control,2,50,0.0,,,,'--',,,,'--','--',,,,'--',
None,None,None,TMTstop-control_1_2linestimulus23.png,TMTstop-control_1_2greenlinestimulus23.png,TMTstop-control_1_2redlinestimulus23.png,TMT_Control,2,Feedback_last,0.0,,,,'--',,,,'--','--',,,,'--',

extraInfo
participant,
session,001
date,2022_Mar_30_1015
expName,TMT_fmri
psychopyVersion,2021.2.3
frameRate,143.5661545785615
