NumberLetter,corrAns,Correct,StimFile,Correct_StimFile,False_StimFile,Version,Block,TrialNumber_session,n,Stim.started_mean,Stim.started_raw,Stim.started_std,Stim.stopped_raw,key_resp_2.corr_mean,key_resp_2.corr_raw,key_resp_2.corr_std,key_resp_2.keys_raw,key_resp_2.rt_raw,key_resp_2.started_mean,key_resp_2.started_raw,key_resp_2.started_std,key_resp_2.stopped_raw,order
1,['2'],2,TMTstop-A_1_1.png,TMTstop-A_1_1.png,TMTstop-A_1_1.png,TMT_A,1,1,1.0,55.44169998168945,55.44169998168945,0.0,,1.0,1.0,0.0,2,1.0446910000027856,55.44169998168945,55.44169998168945,0.0,,0.0
2,['1'],1,TMTstop-A_1_1.png,TMTstop-A_1_1firstgreen.png,TMTstop-A_1_1firstred.png,TMT_A,1,2,1.0,56.56689453125,56.56689453125,0.0,,1.0,1.0,0.0,1,0.4618107999995118,56.56689453125,56.56689453125,0.0,,1.0
3,['2'],2,TMTstop-A_1_1linestimulus0.png,TMTstop-A_1_1greenlinestimulus0.png,TMTstop-A_1_1redlinestimulus0.png,TMT_A,1,3,1.0,57.108863830566406,57.108863830566406,0.0,,1.0,1.0,0.0,2,0.1783897999994224,57.108863830566406,57.108863830566406,0.0,,2.0
4,['3'],3,TMTstop-A_1_1linestimulus1.png,TMTstop-A_1_1greenlinestimulus1.png,TMTstop-A_1_1redlinestimulus1.png,TMT_A,1,4,1.0,57.35891342163086,57.35891342163086,0.0,,1.0,1.0,0.0,3,0.26618529998813756,57.35891342163086,57.35891342163086,0.0,,3.0
5,['2'],2,TMTstop-A_1_1linestimulus2.png,TMTstop-A_1_1greenlinestimulus2.png,TMTstop-A_1_1redlinestimulus2.png,TMT_A,1,5,1.0,57.699153900146484,57.699153900146484,0.0,,1.0,1.0,0.0,1,2,0.17227600001206156,0.2845019000087632,57.699153900146484,57.699153900146484,0.0,,4.0
6,['3'],3,TMTstop-A_1_1linestimulus3.png,TMTstop-A_1_1greenlinestimulus3.png,TMTstop-A_1_1redlinestimulus3.png,TMT_A,1,6,1.0,58.0810432434082,58.0810432434082,0.0,,1.0,1.0,0.0,3,0.0509334999951534,58.0810432434082,58.0810432434082,0.0,,5.0
7,['2'],2,TMTstop-A_1_1linestimulus4.png,TMTstop-A_1_1greenlinestimulus4.png,TMTstop-A_1_1redlinestimulus4.png,TMT_A,1,7,1.0,58.206363677978516,58.206363677978516,0.0,,1.0,1.0,0.0,1,2,0.057222000003093854,0.17342240001016762,58.206363677978516,58.206363677978516,0.0,,6.0
8,['1'],1,TMTstop-A_1_1linestimulus5.png,TMTstop-A_1_1greenlinestimulus5.png,TMTstop-A_1_1redlinestimulus5.png,TMT_A,1,8,1.0,58.470035552978516,58.470035552978516,0.0,,1.0,1.0,0.0,3,1,0.03893310000421479,0.22031760000390932,58.470035552978516,58.470035552978516,0.0,,7.0
9,['2'],2,TMTstop-A_1_1linestimulus6.png,TMTstop-A_1_1greenlinestimulus6.png,TMTstop-A_1_1redlinestimulus6.png,TMT_A,1,9,1.0,58.79618835449219,58.79618835449219,0.0,,1.0,1.0,0.0,2,-0.027469699998619035,58.79618835449219,58.79618835449219,0.0,,8.0
10,['1'],1,TMTstop-A_1_1linestimulus7.png,TMTstop-A_1_1greenlinestimulus7.png,TMTstop-A_1_1redlinestimulus7.png,TMT_A,1,10,1.0,58.87950134277344,58.87950134277344,0.0,,1.0,1.0,0.0,3,1,0.003124399998341687,0.1907063999969978,58.87950134277344,58.87950134277344,0.0,,9.0
11,['2'],2,TMTstop-A_1_1linestimulus8.png,TMTstop-A_1_1greenlinestimulus8.png,TMTstop-A_1_1redlinestimulus8.png,TMT_A,1,11,1.0,59.178184509277344,59.178184509277344,0.0,,1.0,1.0,0.0,2,-0.034725000004982576,59.178184509277344,59.178184509277344,0.0,,10.0
12,['3'],3,TMTstop-A_1_1linestimulus9.png,TMTstop-A_1_1greenlinestimulus9.png,TMTstop-A_1_1redlinestimulus9.png,TMT_A,1,12,1.0,59.2546272277832,59.2546272277832,0.0,,1.0,1.0,0.0,3,0.028586399988853373,59.2546272277832,59.2546272277832,0.0,,11.0
13,['2'],2,TMTstop-A_1_1linestimulus10.png,TMTstop-A_1_1greenlinestimulus10.png,TMTstop-A_1_1redlinestimulus10.png,TMT_A,1,13,1.0,59.36564636230469,59.36564636230469,0.0,,1.0,1.0,0.0,1,2,0.1141974000056507,0.16688370000338182,59.36564636230469,59.36564636230469,0.0,,12.0
14,['3'],3,TMTstop-A_1_1linestimulus11.png,TMTstop-A_1_1greenlinestimulus11.png,TMTstop-A_1_1redlinestimulus11.png,TMT_A,1,14,1.0,59.60881805419922,59.60881805419922,0.0,,1.0,1.0,0.0,3,0.055311299991444685,59.60881805419922,59.60881805419922,0.0,,13.0
15,['1'],1,TMTstop-A_1_1linestimulus12.png,TMTstop-A_1_1greenlinestimulus12.png,TMTstop-A_1_1redlinestimulus12.png,TMT_A,1,15,1.0,59.733585357666016,59.733585357666016,0.0,,1.0,1.0,0.0,1,0.11828320000495296,59.733585357666016,59.733585357666016,0.0,,14.0
16,['3'],3,TMTstop-A_1_1linestimulus13.png,TMTstop-A_1_1greenlinestimulus13.png,TMTstop-A_1_1redlinestimulus13.png,TMT_A,1,16,1.0,59.92808151245117,59.92808151245117,0.0,,1.0,1.0,0.0,2,3,-0.01798419999249745,0.12211359999491833,59.92808151245117,59.92808151245117,0.0,,15.0
17,['2'],2,TMTstop-A_1_1linestimulus14.png,TMTstop-A_1_1greenlinestimulus14.png,TMTstop-A_1_1redlinestimulus14.png,TMT_A,1,17,1.0,60.12964630126953,60.12964630126953,0.0,,1.0,1.0,0.0,1,2,0.055393399990862235,0.1555476999928942,60.12964630126953,60.12964630126953,0.0,,16.0
18,['3'],3,TMTstop-A_1_1linestimulus15.png,TMTstop-A_1_1greenlinestimulus15.png,TMTstop-A_1_1redlinestimulus15.png,TMT_A,1,18,1.0,60.379600524902344,60.379600524902344,0.0,,1.0,1.0,0.0,3,0.027249399994616397,60.379600524902344,60.379600524902344,0.0,,17.0
19,['1'],1,TMTstop-A_1_1linestimulus16.png,TMTstop-A_1_1greenlinestimulus16.png,TMTstop-A_1_1redlinestimulus16.png,TMT_A,1,19,1.0,60.48378372192383,60.48378372192383,0.0,,1.0,1.0,0.0,1,0.11988120000751223,60.48378372192383,60.48378372192383,0.0,,18.0
20,['3'],3,TMTstop-A_1_1linestimulus17.png,TMTstop-A_1_1greenlinestimulus17.png,TMTstop-A_1_1redlinestimulus17.png,TMT_A,1,20,1.0,60.68549346923828,60.68549346923828,0.0,,1.0,1.0,0.0,2,3,-0.027979600010439754,0.10551529999065679,60.68549346923828,60.68549346923828,0.0,,19.0
21,['1'],1,TMTstop-A_1_1linestimulus18.png,TMTstop-A_1_1greenlinestimulus18.png,TMTstop-A_1_1redlinestimulus18.png,TMT_A,1,21,1.0,60.88685989379883,60.88685989379883,0.0,,1.0,1.0,0.0,1,0.08621719999064226,60.88685989379883,60.88685989379883,0.0,,20.0
22,['3'],3,TMTstop-A_1_1linestimulus19.png,TMTstop-A_1_1greenlinestimulus19.png,TMTstop-A_1_1redlinestimulus19.png,TMT_A,1,22,1.0,61.06034851074219,61.06034851074219,0.0,,1.0,1.0,0.0,2,3,-0.025253599989810027,0.07572520000394434,61.06034851074219,61.06034851074219,0.0,,21.0
23,['1'],1,TMTstop-A_1_1linestimulus20.png,TMTstop-A_1_1greenlinestimulus20.png,TMTstop-A_1_1redlinestimulus20.png,TMT_A,1,23,1.0,61.22006607055664,61.22006607055664,0.0,,1.0,1.0,0.0,1,0.0848507999908179,61.22006607055664,61.22006607055664,0.0,,22.0
24,['2'],2,TMTstop-A_1_1linestimulus21.png,TMTstop-A_1_1greenlinestimulus21.png,TMTstop-A_1_1redlinestimulus21.png,TMT_A,1,24,1.0,61.39371871948242,61.39371871948242,0.0,,1.0,1.0,0.0,2,-0.02760149999812711,61.39371871948242,61.39371871948242,0.0,,23.0
25,['3'],3,TMTstop-A_1_1linestimulus22.png,TMTstop-A_1_1greenlinestimulus22.png,TMTstop-A_1_1redlinestimulus22.png,TMT_A,1,25,1.0,61.47003173828125,61.47003173828125,0.0,,1.0,1.0,0.0,3,0.023755999995046295,61.47003173828125,61.47003173828125,0.0,,24.0
None,None,None,TMTstop-A_1_1linestimulus23.png,TMTstop-A_1_1greenlinestimulus23.png,TMTstop-A_1_1redlinestimulus23.png,TMT_A,1,Feedback_last,1.0,61.574562072753906,61.574562072753906,0.0,,0.0,0.0,0.0,1,2,3,0.07355529999767896,0.1479644999926677,0.2628621999901952,61.574562072753906,61.574562072753906,0.0,,25.0

extraInfo
participant,
session,001
date,2022_Mar_30_1015
expName,TMT_fmri
psychopyVersion,2021.2.3
frameRate,143.5661545785615
﻿NumberLetter,corrAns,Correct,StimFile,Correct_StimFile,False_StimFile,Version,Block,TrialNumber_session,n,Stim.started_mean,Stim.started_raw,Stim.started_std,Stim.stopped_raw,key_resp_2.corr_mean,key_resp_2.corr_raw,key_resp_2.corr_std,key_resp_2.keys_raw,key_resp_2.rt_raw,key_resp_2.started_mean,key_resp_2.started_raw,key_resp_2.started_std,key_resp_2.stopped_raw,order
1,['3'],3,TMTstop-A_1_2.png,TMTstop-A_1_2.png,TMTstop-A_1_2.png,TMT_A,2,26,1.0,65.70549774169922,65.70549774169922,0.0,,1.0,1.0,0.0,2,3,0.817187799999374,1.0392405000020517,65.70549774169922,65.70549774169922,0.0,,0.0
2,['2'],2,TMTstop-A_1_2.png,TMTstop-A_1_2firstgreen.png,TMTstop-A_1_2firstred.png,TMT_A,2,27,1.0,66.83779907226562,66.83779907226562,0.0,,1.0,1.0,0.0,1,2,0.09896289999596775,0.21179889999621082,66.83779907226562,66.83779907226562,0.0,,1.0
3,['3'],3,TMTstop-A_1_2linestimulus0.png,TMTstop-A_1_2greenlinestimulus0.png,TMTstop-A_1_2redlinestimulus0.png,TMT_A,2,28,1.0,67.1294174194336,67.1294174194336,0.0,,1.0,1.0,0.0,3,0.03560399998968933,67.1294174194336,67.1294174194336,0.0,,2.0
4,['1'],1,TMTstop-A_1_2linestimulus1.png,TMTstop-A_1_2greenlinestimulus1.png,TMTstop-A_1_2redlinestimulus1.png,TMT_A,2,29,1.0,67.24057006835938,67.24057006835938,0.0,,1.0,1.0,0.0,1,0.08419129998947028,67.24057006835938,67.24057006835938,0.0,,3.0
5,['2'],2,TMTstop-A_1_2linestimulus2.png,TMTstop-A_1_2greenlinestimulus2.png,TMTstop-A_1_2redlinestimulus2.png,TMT_A,2,30,1.0,67.40047454833984,67.40047454833984,0.0,,1.0,1.0,0.0,2,0.021814000006997958,67.40047454833984,67.40047454833984,0.0,,4.0
6,['3'],3,TMTstop-A_1_2linestimulus3.png,TMTstop-A_1_2greenlinestimulus3.png,TMTstop-A_1_2redlinestimulus3.png,TMT_A,2,31,1.0,67.49761962890625,67.49761962890625,0.0,,1.0,1.0,0.0,3,0.055201800001668744,67.49761962890625,67.49761962890625,0.0,,5.0
7,['2'],2,TMTstop-A_1_2linestimulus4.png,TMTstop-A_1_2greenlinestimulus4.png,TMTstop-A_1_2redlinestimulus4.png,TMT_A,2,32,1.0,67.62943267822266,67.62943267822266,0.0,,1.0,1.0,0.0,1,2,0.07023380001191981,0.18010790001426358,67.62943267822266,67.62943267822266,0.0,,6.0
8,['1'],1,TMTstop-A_1_2linestimulus5.png,TMTstop-A_1_2greenlinestimulus5.png,TMTstop-A_1_2redlinestimulus5.png,TMT_A,2,33,1.0,67.89324951171875,67.89324951171875,0.0,,1.0,1.0,0.0,3,1,-0.0030669999978272244,0.7859071000129916,67.89324951171875,67.89324951171875,0.0,,7.0
9,['2'],2,TMTstop-A_1_2linestimulus6.png,TMTstop-A_1_2greenlinestimulus6.png,TMTstop-A_1_2redlinestimulus6.png,TMT_A,2,34,1.0,68.75448608398438,68.75448608398438,0.0,,1.0,1.0,0.0,2,0.1035247999971034,68.75448608398438,68.75448608398438,0.0,,8.0
10,['3'],3,TMTstop-A_1_2linestimulus7.png,TMTstop-A_1_2greenlinestimulus7.png,TMTstop-A_1_2redlinestimulus7.png,TMT_A,2,35,1.0,68.9281005859375,68.9281005859375,0.0,,1.0,1.0,0.0,3,-0.037264699989464134,68.9281005859375,68.9281005859375,0.0,,9.0
11,['1'],1,TMTstop-A_1_2linestimulus8.png,TMTstop-A_1_2greenlinestimulus8.png,TMTstop-A_1_2redlinestimulus8.png,TMT_A,2,36,1.0,68.99760437011719,68.99760437011719,0.0,,1.0,1.0,0.0,1,0.060593299989704974,68.99760437011719,68.99760437011719,0.0,,10.0
12,['2'],2,TMTstop-A_1_2linestimulus9.png,TMTstop-A_1_2greenlinestimulus9.png,TMTstop-A_1_2redlinestimulus9.png,TMT_A,2,37,1.0,69.13651275634766,69.13651275634766,0.0,,1.0,1.0,0.0,2,0.009278099998482503,69.13651275634766,69.13651275634766,0.0,,11.0
13,['3'],3,TMTstop-A_1_2linestimulus10.png,TMTstop-A_1_2greenlinestimulus10.png,TMTstop-A_1_2redlinestimulus10.png,TMT_A,2,38,1.0,69.21955108642578,69.21955108642578,0.0,,1.0,1.0,0.0,3,0.02739480001037009,69.21955108642578,69.21955108642578,0.0,,12.0
14,['1'],1,TMTstop-A_1_2linestimulus11.png,TMTstop-A_1_2greenlinestimulus11.png,TMTstop-A_1_2redlinestimulus11.png,TMT_A,2,39,1.0,69.3166732788086,69.3166732788086,0.0,,1.0,1.0,0.0,1,0.1017411000066204,69.3166732788086,69.3166732788086,0.0,,13.0
15,['3'],3,TMTstop-A_1_2linestimulus12.png,TMTstop-A_1_2greenlinestimulus12.png,TMTstop-A_1_2redlinestimulus12.png,TMT_A,2,40,1.0,69.49767303466797,69.49767303466797,0.0,,1.0,1.0,0.0,2,3,-0.019348199988598935,0.10330390000308398,69.49767303466797,69.49767303466797,0.0,,14.0
16,['1'],1,TMTstop-A_1_2linestimulus13.png,TMTstop-A_1_2greenlinestimulus13.png,TMTstop-A_1_2redlinestimulus13.png,TMT_A,2,41,1.0,69.69192504882812,69.69192504882812,0.0,,1.0,1.0,0.0,1,0.08297620000666939,69.69192504882812,69.69192504882812,0.0,,15.0
17,['2'],2,TMTstop-A_1_2linestimulus14.png,TMTstop-A_1_2greenlinestimulus14.png,TMTstop-A_1_2redlinestimulus14.png,TMT_A,2,42,1.0,69.84475708007812,69.84475708007812,0.0,,1.0,1.0,0.0,2,0.008541899995179847,69.84475708007812,69.84475708007812,0.0,,16.0
18,['1'],1,TMTstop-A_1_2linestimulus15.png,TMTstop-A_1_2greenlinestimulus15.png,TMTstop-A_1_2redlinestimulus15.png,TMT_A,2,43,1.0,69.92805480957031,69.92805480957031,0.0,,1.0,1.0,0.0,3,1,0.06752979999873787,0.16985370000475086,69.92805480957031,69.92805480957031,0.0,,17.0
19,['3'],3,TMTstop-A_1_2linestimulus16.png,TMTstop-A_1_2greenlinestimulus16.png,TMTstop-A_1_2redlinestimulus16.png,TMT_A,2,44,1.0,70.19193267822266,70.19193267822266,0.0,,1.0,1.0,0.0,2,3,0.006645300003583543,0.13481760000286158,70.19193267822266,70.19193267822266,0.0,,18.0
20,['1'],1,TMTstop-A_1_2linestimulus17.png,TMTstop-A_1_2greenlinestimulus17.png,TMTstop-A_1_2redlinestimulus17.png,TMT_A,2,45,1.0,70.4002685546875,70.4002685546875,0.0,,0.0,0.0,0.0,,'--',70.4002685546875,70.4002685546875,0.0,,19.0
21,['2'],2,TMTstop-A_1_2linestimulus18.png,TMTstop-A_1_2greenlinestimulus18.png,TMTstop-A_1_2redlinestimulus18.png,TMT_A,2,46,0.0,,,,'--',,,,'--','--',,,,'--',
22,['1'],1,TMTstop-A_1_2linestimulus19.png,TMTstop-A_1_2greenlinestimulus19.png,TMTstop-A_1_2redlinestimulus19.png,TMT_A,2,47,0.0,,,,'--',,,,'--','--',,,,'--',
23,['2'],2,TMTstop-A_1_2linestimulus20.png,TMTstop-A_1_2greenlinestimulus20.png,TMTstop-A_1_2redlinestimulus20.png,TMT_A,2,48,0.0,,,,'--',,,,'--','--',,,,'--',
24,['1'],1,TMTstop-A_1_2linestimulus21.png,TMTstop-A_1_2greenlinestimulus21.png,TMTstop-A_1_2redlinestimulus21.png,TMT_A,2,49,0.0,,,,'--',,,,'--','--',,,,'--',
25,['2'],2,TMTstop-A_1_2linestimulus22.png,TMTstop-A_1_2greenlinestimulus22.png,TMTstop-A_1_2redlinestimulus22.png,TMT_A,2,50,0.0,,,,'--',,,,'--','--',,,,'--',
None,None,None,TMTstop-A_1_2linestimulus23.png,TMTstop-A_1_2greenlinestimulus23.png,TMTstop-A_1_2redlinestimulus23.png,TMT_A,2,Feedback_last,0.0,,,,'--',,,,'--','--',,,,'--',

extraInfo
participant,
session,001
date,2022_Mar_30_1015
expName,TMT_fmri
psychopyVersion,2021.2.3
frameRate,143.5661545785615
