Block_file,Condition_rows,NumberLetter,corrAns,StimFile,Correct_StimFile,False_StimFile,DurationTrial,Correct,restartpractice.thisRepN,restartpractice.thisTrialN,restartpractice.thisN,restartpractice.thisIndex,trials_practice.thisRepN,trials_practice.thisTrialN,trials_practice.thisN,trials_practice.thisIndex,Blocks_loop.thisRepN,Blocks_loop.thisTrialN,Blocks_loop.thisN,Blocks_loop.thisIndex,trials.thisRepN,trials.thisTrialN,trials.thisN,trials.thisIndex,Attempts,First_attempt,Stim.started,Stim.stopped,key_resp_2.keys,key_resp_2.corr,key_resp_2.rt,key_resp_2.started,key_resp_2.stopped,participant,session,date,expName,psychopyVersion,frameRate,
TMTstop-A_1_1.xlsx,0:26,1,['2'],TMTstop-A_1_1.png,TMTstop-A_1_1.png,TMTstop-A_1_1.png,10,,,,,,,,,,0,0,0,0,0,0,0,0,2,1,21.46970249991864,None,"['1', '2']",1,"[0.5111689998302609, 0.6550000000279397]",21.46970249991864,None,,001,2022_Feb_02_1433,TMTAstop-A,2021.2.3,143.2779704596672,
TMTstop-A_1_1.xlsx,0:26,2,['1'],TMTstop-A_1_1.png,TMTstop-A_1_1firstgreen.png,TMTstop-A_1_1firstred.png,10,,,,,,,,,,0,0,0,0,0,1,1,1,2,1,22.21145429997705,None,"['3', '1']",1,"[0.017654000082984567, 0.20129360002465546]",22.21145429997705,None,,001,2022_Feb_02_1433,TMTAstop-A,2021.2.3,143.2779704596672,
TMTstop-A_1_1.xlsx,0:26,3,['2'],TMTstop-A_1_1linestimulus0.png,TMTstop-A_1_1greenlinestimulus0.png,TMTstop-A_1_1redlinestimulus0.png,10,,,,,,,,,,0,0,0,0,0,2,2,2,1,1,22.504457799950615,None,['2'],1,[0.003773299977183342],22.504457799950615,None,,001,2022_Feb_02_1433,TMTAstop-A,2021.2.3,143.2779704596672,
TMTstop-A_1_1.xlsx,0:26,4,['3'],TMTstop-A_1_1linestimulus1.png,TMTstop-A_1_1greenlinestimulus1.png,TMTstop-A_1_1redlinestimulus1.png,10,,,,,,,,,,0,0,0,0,0,3,3,3,1,1,22.586542000062764,None,['3'],1,[0.053430499974638224],22.586542000062764,None,,001,2022_Feb_02_1433,TMTAstop-A,2021.2.3,143.2779704596672,
TMTstop-A_1_1.xlsx,0:26,5,['2'],TMTstop-A_1_1linestimulus2.png,TMTstop-A_1_1greenlinestimulus2.png,TMTstop-A_1_1redlinestimulus2.png,10,,,,,,,,,,0,0,0,0,0,4,4,4,2,1,22.719147299882025,None,"['1', '2']",1,"[0.07483660010620952, 0.15371700003743172]",22.719147299882025,None,,001,2022_Feb_02_1433,TMTAstop-A,2021.2.3,143.2779704596672,
TMTstop-A_1_1.xlsx,0:26,6,['3'],TMTstop-A_1_1linestimulus3.png,TMTstop-A_1_1greenlinestimulus3.png,TMTstop-A_1_1redlinestimulus3.png,10,,,,,,,,,,0,0,0,0,0,5,5,5,1,1,22.948484000051394,None,['3'],1,[-0.006903900066390634],22.948484000051394,None,,001,2022_Feb_02_1433,TMTAstop-A,2021.2.3,143.2779704596672,
TMTstop-A_1_1.xlsx,0:26,7,['2'],TMTstop-A_1_1linestimulus4.png,TMTstop-A_1_1greenlinestimulus4.png,TMTstop-A_1_1redlinestimulus4.png,10,,,,,,,,,,0,0,0,0,0,6,6,6,2,1,23.024510100018233,None,"['1', '2']",1,"[0.09630280011333525, 0.16722419997677207]",23.024510100018233,None,,001,2022_Feb_02_1433,TMTAstop-A,2021.2.3,143.2779704596672,
TMTstop-A_1_1.xlsx,0:26,8,['1'],TMTstop-A_1_1linestimulus5.png,TMTstop-A_1_1greenlinestimulus5.png,TMTstop-A_1_1redlinestimulus5.png,10,,,,,,,,,,0,0,0,0,0,7,7,7,2,1,23.281395100057125,None,"['3', '1']",1,"[-0.0012556998990476131, 0.1821932999882847]",23.281395100057125,None,,001,2022_Feb_02_1433,TMTAstop-A,2021.2.3,143.2779704596672,
TMTstop-A_1_1.xlsx,0:26,9,['2'],TMTstop-A_1_1linestimulus6.png,TMTstop-A_1_1greenlinestimulus6.png,TMTstop-A_1_1redlinestimulus6.png,10,,,,,,,,,,0,0,0,0,0,8,8,8,1,1,23.559242599876598,None,['2'],1,[-0.027899200096726418],23.559242599876598,None,,001,2022_Feb_02_1433,TMTAstop-A,2021.2.3,143.2779704596672,
TMTstop-A_1_1.xlsx,0:26,10,['1'],TMTstop-A_1_1linestimulus7.png,TMTstop-A_1_1greenlinestimulus7.png,TMTstop-A_1_1redlinestimulus7.png,10,,,,,,,,,,0,0,0,0,0,9,9,9,2,1,23.635368099901825,None,"['3', '1']",1,"[0.04231040016748011, 0.5295086000114679]",23.635368099901825,None,,001,2022_Feb_02_1433,TMTAstop-A,2021.2.3,143.2779704596672,
TMTstop-A_1_1.xlsx,0:26,11,['2'],TMTstop-A_1_1linestimulus8.png,TMTstop-A_1_1greenlinestimulus8.png,TMTstop-A_1_1redlinestimulus8.png,10,,,,,,,,,,0,0,0,0,0,10,10,10,1,1,24.25380750000477,None,['2'],1,[0.02819500002078712],24.25380750000477,None,,001,2022_Feb_02_1433,TMTAstop-A,2021.2.3,143.2779704596672,
TMTstop-A_1_1.xlsx,0:26,12,['3'],TMTstop-A_1_1linestimulus9.png,TMTstop-A_1_1greenlinestimulus9.png,TMTstop-A_1_1redlinestimulus9.png,10,,,,,,,,,,0,0,0,0,0,11,11,11,1,1,24.36586680007167,None,['3'],1,[0.019778599962592125],24.36586680007167,None,,001,2022_Feb_02_1433,TMTAstop-A,2021.2.3,143.2779704596672,
TMTstop-A_1_1.xlsx,0:26,13,['2'],TMTstop-A_1_1linestimulus10.png,TMTstop-A_1_1greenlinestimulus10.png,TMTstop-A_1_1redlinestimulus10.png,1,,,,,,,,,,0,0,0,0,0,12,12,12,2,1,24.468766700010747,None,"['1', '2']",1,"[0.1285880000796169, 0.24345369986258447]",24.468766700010747,None,,001,2022_Feb_02_1433,TMTAstop-A,2021.2.3,143.2779704596672,
TMTstop-A_1_1.xlsx,0:26,14,['3'],TMTstop-A_1_1linestimulus11.png,TMTstop-A_1_1greenlinestimulus11.png,TMTstop-A_1_1redlinestimulus11.png,None,,,,,,,,,,0,0,0,0,0,13,13,13,1,1,24.809480499941856,None,['3'],1,[-0.007208000170066953],24.809480499941856,None,,001,2022_Feb_02_1433,TMTAstop-A,2021.2.3,143.2779704596672,
TMTstop-A_1_1.xlsx,0:26,15,['1'],TMTstop-A_1_1linestimulus12.png,TMTstop-A_1_1greenlinestimulus12.png,TMTstop-A_1_1redlinestimulus12.png,None,,,,,,,,,,0,0,0,0,0,14,14,14,1,1,24.8785214999225,None,['1'],1,[0.11567969992756844],24.8785214999225,None,,001,2022_Feb_02_1433,TMTAstop-A,2021.2.3,143.2779704596672,
TMTstop-A_1_1.xlsx,0:26,16,['3'],TMTstop-A_1_1linestimulus13.png,TMTstop-A_1_1greenlinestimulus13.png,TMTstop-A_1_1redlinestimulus13.png,None,,,,,,,,,,0,0,0,0,0,15,15,15,2,1,25.073072799947113,None,"['2', '3']",1,"[0.00908049987629056, 0.12655649986118078]",25.073072799947113,None,,001,2022_Feb_02_1433,TMTAstop-A,2021.2.3,143.2779704596672,
TMTstop-A_1_1.xlsx,0:26,17,['2'],TMTstop-A_1_1linestimulus14.png,TMTstop-A_1_1greenlinestimulus14.png,TMTstop-A_1_1redlinestimulus14.png,None,,,,,,,,,,0,0,0,0,0,16,16,16,2,1,25.28854939993471,None,"['1', '2']",1,"[0.08648499986156821, 0.20485339988954365]",25.28854939993471,None,,001,2022_Feb_02_1433,TMTAstop-A,2021.2.3,143.2779704596672,
TMTstop-A_1_1.xlsx,0:26,18,['3'],TMTstop-A_1_1linestimulus15.png,TMTstop-A_1_1greenlinestimulus15.png,TMTstop-A_1_1redlinestimulus15.png,None,,,,,,,,,,0,0,0,0,0,17,17,17,1,1,25.587724899873137,None,['3'],1,[0.019690999994054437],25.587724899873137,None,,001,2022_Feb_02_1433,TMTAstop-A,2021.2.3,143.2779704596672,
TMTstop-A_1_1.xlsx,0:26,19,['1'],TMTstop-A_1_1linestimulus16.png,TMTstop-A_1_1greenlinestimulus16.png,TMTstop-A_1_1redlinestimulus16.png,None,,,,,,,,,,0,0,0,0,0,18,18,18,1,1,25.690707199973986,None,['1'],1,[0.08120310003869236],25.690707199973986,None,,001,2022_Feb_02_1433,TMTAstop-A,2021.2.3,143.2779704596672,
TMTstop-A_1_1.xlsx,0:26,20,['3'],TMTstop-A_1_1linestimulus17.png,TMTstop-A_1_1greenlinestimulus17.png,TMTstop-A_1_1redlinestimulus17.png,None,,,,,,,,,,0,0,0,0,0,19,19,19,2,1,25.85052359988913,None,"['2', '3']",1,"[0.008764100028201938, 0.117985799908638]",25.85052359988913,None,,001,2022_Feb_02_1433,TMTAstop-A,2021.2.3,143.2779704596672,
TMTstop-A_1_1.xlsx,0:26,21,['1'],TMTstop-A_1_1linestimulus18.png,TMTstop-A_1_1greenlinestimulus18.png,TMTstop-A_1_1redlinestimulus18.png,None,,,,,,,,,,0,0,0,0,0,20,20,20,1,1,26.066137599991634,None,['1'],1,[0.05271199997514486],26.066137599991634,None,,001,2022_Feb_02_1433,TMTAstop-A,2021.2.3,143.2779704596672,
TMTstop-A_1_1.xlsx,0:26,22,['3'],TMTstop-A_1_1linestimulus19.png,TMTstop-A_1_1greenlinestimulus19.png,TMTstop-A_1_1redlinestimulus19.png,None,,,,,,,,,,0,0,0,0,0,21,21,21,2,1,26.20540999993682,None,"['2', '3']",1,"[0.012719699880108237, 0.13869789987802505]",26.20540999993682,None,,001,2022_Feb_02_1433,TMTAstop-A,2021.2.3,143.2779704596672,
TMTstop-A_1_1.xlsx,0:26,23,['1'],TMTstop-A_1_1linestimulus20.png,TMTstop-A_1_1greenlinestimulus20.png,TMTstop-A_1_1redlinestimulus20.png,None,,,,,,,,,,0,0,0,0,0,22,22,22,1,1,26.440966400085017,None,['1'],1,[0.24355349992401898],26.440966400085017,None,,001,2022_Feb_02_1433,TMTAstop-A,2021.2.3,143.2779704596672,
TMTstop-A_1_1.xlsx,0:26,24,['2'],TMTstop-A_1_1linestimulus21.png,TMTstop-A_1_1greenlinestimulus21.png,TMTstop-A_1_1redlinestimulus21.png,None,,,,,,,,,,0,0,0,0,0,23,23,23,1,1,26.76705679995939,None,['2'],1,[0.014638299820944667],26.76705679995939,None,,001,2022_Feb_02_1433,TMTAstop-A,2021.2.3,143.2779704596672,
TMTstop-A_1_1.xlsx,0:26,25,['3'],TMTstop-A_1_1linestimulus22.png,TMTstop-A_1_1greenlinestimulus22.png,TMTstop-A_1_1redlinestimulus22.png,None,,,,,,,,,,0,0,0,0,0,24,24,24,1,1,26.865123399998993,None,['3'],1,[0.011582300066947937],26.865123399998993,None,,001,2022_Feb_02_1433,TMTAstop-A,2021.2.3,143.2779704596672,
TMTstop-A_1_1.xlsx,0:26,None,None,TMTstop-A_1_1linestimulus23.png,TMTstop-A_1_1greenlinestimulus23.png,TMTstop-A_1_1redlinestimulus23.png,None,,,,,,,,,,0,0,0,0,0,25,25,25,0,1,26.954585100058466,None,None,1,,26.954585100058466,None,,001,2022_Feb_02_1433,TMTAstop-A,2021.2.3,143.2779704596672,
TMTstop-A_1_1.xlsx,0:26,,,,,,,,,,,,,,,,0,0,0,0,,,,,,,,,,,,,,,001,2022_Feb_02_1433,TMTAstop-A,2021.2.3,143.2779704596672,
TMTstop-A_1_2.xlsx,26:52,1,['3'],TMTstop-A_1_2.png,TMTstop-A_1_2.png,TMTstop-A_1_2.png,10,3,,,,,,,,,0,1,1,1,0,0,0,0,2,1,31.03306999988854,None,"['2', '3']",1,"[0.7732720000203699, 1.1138321999460459]",31.03306999988854,None,,001,2022_Feb_02_1433,TMTAstop-A,2021.2.3,143.2779704596672,
TMTstop-A_1_2.xlsx,26:52,2,['2'],TMTstop-A_1_2.png,TMTstop-A_1_2firstgreen.png,TMTstop-A_1_2firstred.png,10,2,,,,,,,,,0,1,1,1,0,1,1,1,2,1,32.24856620002538,None,"['1', '2']",1,"[0.2622937997803092, 0.4220071998424828]",32.24856620002538,None,,001,2022_Feb_02_1433,TMTAstop-A,2021.2.3,143.2779704596672,
TMTstop-A_1_2.xlsx,26:52,3,['3'],TMTstop-A_1_2linestimulus0.png,TMTstop-A_1_2greenlinestimulus0.png,TMTstop-A_1_2redlinestimulus0.png,10,3,,,,,,,,,0,1,1,1,0,2,2,2,2,1,32.73995069996454,None,"['2', '3']",1,"[6.041653299937025, 6.696524899918586]",32.73995069996454,None,,001,2022_Feb_02_1433,TMTAstop-A,2021.2.3,143.2779704596672,
TMTstop-A_1_2.xlsx,26:52,4,['1'],TMTstop-A_1_2linestimulus1.png,TMTstop-A_1_2greenlinestimulus1.png,TMTstop-A_1_2redlinestimulus1.png,10,1,,,,,,,,,0,1,1,1,0,3,3,3,1,1,39.52120169997215,None,['2'],0,[0.9182642998639494],39.52120169997215,None,,001,2022_Feb_02_1433,TMTAstop-A,2021.2.3,143.2779704596672,
TMTstop-A_1_2.xlsx,26:52,,,,,,,,,,,,,,,,0,1,1,1,,,,,,,,,,,,,,,001,2022_Feb_02_1433,TMTAstop-A,2021.2.3,143.2779704596672,
TMTstop-A_1_3.xlsx,52:78,1,['2'],TMTstop-A_1_3.png,TMTstop-A_1_3.png,TMTstop-A_1_3.png,10,2,,,,,,,,,0,2,2,2,0,0,0,0,3,1,44.14166329987347,None,"['1', '1', '2']",1,"[-2.807729799998924, 0.47076270007528365, 0.6151596000418067]",44.14166329987347,None,,001,2022_Feb_02_1433,TMTAstop-A,2021.2.3,143.2779704596672,
TMTstop-A_1_3.xlsx,52:78,2,['1'],TMTstop-A_1_3.png,TMTstop-A_1_3firstgreen.png,TMTstop-A_1_3firstred.png,10,1,,,,,,,,,0,2,2,2,0,1,1,1,2,1,44.864629100076854,None,"['3', '1']",1,"[0.008621999993920326, 0.2006576000712812]",44.864629100076854,None,,001,2022_Feb_02_1433,TMTAstop-A,2021.2.3,143.2779704596672,
TMTstop-A_1_3.xlsx,52:78,3,['3'],TMTstop-A_1_3linestimulus0.png,TMTstop-A_1_3greenlinestimulus0.png,TMTstop-A_1_3redlinestimulus0.png,10,3,,,,,,,,,0,2,2,2,0,2,2,2,2,1,45.15603359998204,None,"['2', '3']",1,"[0.0023753000423312187, 0.10310419998131692]",45.15603359998204,None,,001,2022_Feb_02_1433,TMTAstop-A,2021.2.3,143.2779704596672,
TMTstop-A_1_3.xlsx,52:78,4,['2'],TMTstop-A_1_3linestimulus1.png,TMTstop-A_1_3greenlinestimulus1.png,TMTstop-A_1_3redlinestimulus1.png,10,2,,,,,,,,,0,2,2,2,0,3,3,3,2,1,45.36392610007897,None,"['1', '2']",1,"[0.06475690007209778, 0.14044789993204176]",45.36392610007897,None,,001,2022_Feb_02_1433,TMTAstop-A,2021.2.3,143.2779704596672,
TMTstop-A_1_3.xlsx,52:78,5,['3'],TMTstop-A_1_3linestimulus2.png,TMTstop-A_1_3greenlinestimulus2.png,TMTstop-A_1_3redlinestimulus2.png,10,3,,,,,,,,,0,2,2,2,0,4,4,4,1,1,45.58688299986534,None,['3'],1,[0.028889399953186512],45.58688299986534,None,,001,2022_Feb_02_1433,TMTAstop-A,2021.2.3,143.2779704596672,
TMTstop-A_1_3.xlsx,52:78,6,['2'],TMTstop-A_1_3linestimulus3.png,TMTstop-A_1_3greenlinestimulus3.png,TMTstop-A_1_3redlinestimulus3.png,10,2,,,,,,,,,0,2,2,2,0,5,5,5,2,1,45.690304700052366,None,"['1', '2']",1,"[0.08167680003680289, 0.15422709984704852]",45.690304700052366,None,,001,2022_Feb_02_1433,TMTAstop-A,2021.2.3,143.2779704596672,
TMTstop-A_1_3.xlsx,52:78,7,['1'],TMTstop-A_1_3linestimulus4.png,TMTstop-A_1_3greenlinestimulus4.png,TMTstop-A_1_3redlinestimulus4.png,10,1,,,,,,,,,0,2,2,2,0,6,6,6,2,1,45.91939459997229,None,"['3', '1']",1,"[0.02492949995212257, 0.20049630012363195]",45.91939459997229,None,,001,2022_Feb_02_1433,TMTAstop-A,2021.2.3,143.2779704596672,
TMTstop-A_1_3.xlsx,52:78,8,['2'],TMTstop-A_1_3linestimulus5.png,TMTstop-A_1_3greenlinestimulus5.png,TMTstop-A_1_3redlinestimulus5.png,10,2,,,,,,,,,0,2,2,2,0,7,7,7,1,1,46.19090629997663,None,['2'],1,[0.0061882000882178545],46.19090629997663,None,,001,2022_Feb_02_1433,TMTAstop-A,2021.2.3,143.2779704596672,
TMTstop-A_1_3.xlsx,52:78,9,['3'],TMTstop-A_1_3linestimulus6.png,TMTstop-A_1_3greenlinestimulus6.png,TMTstop-A_1_3redlinestimulus6.png,10,3,,,,,,,,,0,2,2,2,0,8,8,8,1,1,46.273740200093016,None,['3'],1,[0.028543300228193402],46.273740200093016,None,,001,2022_Feb_02_1433,TMTAstop-A,2021.2.3,143.2779704596672,
TMTstop-A_1_3.xlsx,52:78,10,['2'],TMTstop-A_1_3linestimulus7.png,TMTstop-A_1_3greenlinestimulus7.png,TMTstop-A_1_3redlinestimulus7.png,10,2,,,,,,,,,0,2,2,2,0,9,9,9,2,1,46.38469349988736,None,"['1', '2']",1,"[0.09650960005819798, 0.18446700018830597]",46.38469349988736,None,,001,2022_Feb_02_1433,TMTAstop-A,2021.2.3,143.2779704596672,
TMTstop-A_1_3.xlsx,52:78,11,['3'],TMTstop-A_1_3linestimulus8.png,TMTstop-A_1_3greenlinestimulus8.png,TMTstop-A_1_3redlinestimulus8.png,10,3,,,,,,,,,0,2,2,2,0,10,10,10,1,1,46.67670539999381,None,['3'],1,[-0.037569599924609065],46.67670539999381,None,,001,2022_Feb_02_1433,TMTAstop-A,2021.2.3,143.2779704596672,
TMTstop-A_1_3.xlsx,52:78,12,['2'],TMTstop-A_1_3linestimulus9.png,TMTstop-A_1_3greenlinestimulus9.png,TMTstop-A_1_3redlinestimulus9.png,10,2,,,,,,,,,0,2,2,2,0,11,11,11,2,1,46.75990150007419,None,"['1', '2']",1,"[0.04625979997217655, 0.17226819996722043]",46.75990150007419,None,,001,2022_Feb_02_1433,TMTAstop-A,2021.2.3,143.2779704596672,
TMTstop-A_1_3.xlsx,52:78,13,['1'],TMTstop-A_1_3linestimulus10.png,TMTstop-A_1_3greenlinestimulus10.png,TMTstop-A_1_3redlinestimulus10.png,1,1,,,,,,,,,0,2,2,2,0,12,12,12,2,1,47.0031633998733,None,"['3', '1']",1,"[-0.004901600070297718, 0.1808937001042068]",47.0031633998733,None,,001,2022_Feb_02_1433,TMTAstop-A,2021.2.3,143.2779704596672,
TMTstop-A_1_3.xlsx,52:78,14,['2'],TMTstop-A_1_3linestimulus11.png,TMTstop-A_1_3greenlinestimulus11.png,TMTstop-A_1_3redlinestimulus11.png,None,2,,,,,,,,,0,2,2,2,0,13,13,13,1,1,47.281807200051844,None,['2'],1,[-0.028624099912121892],47.281807200051844,None,,001,2022_Feb_02_1433,TMTAstop-A,2021.2.3,143.2779704596672,
TMTstop-A_1_3.xlsx,52:78,15,['1'],TMTstop-A_1_3linestimulus12.png,TMTstop-A_1_3greenlinestimulus12.png,TMTstop-A_1_3redlinestimulus12.png,None,1,,,,,,,,,0,2,2,2,0,14,14,14,2,1,47.35704479995184,None,"['3', '1']",1,"[0.014853199943900108, 0.174923500046134]",47.35704479995184,None,,001,2022_Feb_02_1433,TMTAstop-A,2021.2.3,143.2779704596672,
TMTstop-A_1_3.xlsx,52:78,16,['2'],TMTstop-A_1_3linestimulus13.png,TMTstop-A_1_3greenlinestimulus13.png,TMTstop-A_1_3redlinestimulus13.png,None,2,,,,,,,,,0,2,2,2,0,15,15,15,1,1,47.6226244000718,None,['2'],1,[-0.008399999933317304],47.6226244000718,None,,001,2022_Feb_02_1433,TMTAstop-A,2021.2.3,143.2779704596672,
TMTstop-A_1_3.xlsx,52:78,17,['3'],TMTstop-A_1_3linestimulus14.png,TMTstop-A_1_3greenlinestimulus14.png,TMTstop-A_1_3redlinestimulus14.png,None,3,,,,,,,,,0,2,2,2,0,16,16,16,1,1,47.6979223000817,None,['3'],1,[0.030334699898958206],47.6979223000817,None,,001,2022_Feb_02_1433,TMTAstop-A,2021.2.3,143.2779704596672,
TMTstop-A_1_3.xlsx,52:78,18,['2'],TMTstop-A_1_3linestimulus15.png,TMTstop-A_1_3greenlinestimulus15.png,TMTstop-A_1_3redlinestimulus15.png,None,2,,,,,,,,,0,2,2,2,0,17,17,17,2,1,47.80886680004187,None,"['1', '2']",1,"[0.058140400098636746, 0.134234800003469]",47.80886680004187,None,,001,2022_Feb_02_1433,TMTAstop-A,2021.2.3,143.2779704596672,
TMTstop-A_1_3.xlsx,52:78,19,['1'],TMTstop-A_1_3linestimulus16.png,TMTstop-A_1_3greenlinestimulus16.png,TMTstop-A_1_3redlinestimulus16.png,None,1,,,,,,,,,0,2,2,2,0,18,18,18,2,1,48.02361929998733,None,"['3', '1']",1,"[0.02672680001705885, 0.15305900014936924]",48.02361929998733,None,,001,2022_Feb_02_1433,TMTAstop-A,2021.2.3,143.2779704596672,
TMTstop-A_1_3.xlsx,52:78,20,['2'],TMTstop-A_1_3linestimulus17.png,TMTstop-A_1_3greenlinestimulus17.png,TMTstop-A_1_3redlinestimulus17.png,None,2,,,,,,,,,0,2,2,2,0,19,19,19,1,1,48.2462142999284,None,['2'],1,[0.04190440010279417],48.2462142999284,None,,001,2022_Feb_02_1433,TMTAstop-A,2021.2.3,143.2779704596672,
TMTstop-A_1_3.xlsx,52:78,21,['3'],TMTstop-A_1_3linestimulus18.png,TMTstop-A_1_3greenlinestimulus18.png,TMTstop-A_1_3redlinestimulus18.png,None,3,,,,,,,,,0,2,2,2,0,20,20,20,1,1,48.36376059986651,None,['3'],1,[0.009236699901521206],48.36376059986651,None,,001,2022_Feb_02_1433,TMTAstop-A,2021.2.3,143.2779704596672,
TMTstop-A_1_3.xlsx,52:78,22,['1'],TMTstop-A_1_3linestimulus19.png,TMTstop-A_1_3greenlinestimulus19.png,TMTstop-A_1_3redlinestimulus19.png,None,1,,,,,,,,,0,2,2,2,0,21,21,21,1,1,48.44761150004342,None,['1'],1,[0.07758920011110604],48.44761150004342,None,,001,2022_Feb_02_1433,TMTAstop-A,2021.2.3,143.2779704596672,
TMTstop-A_1_3.xlsx,52:78,23,['3'],TMTstop-A_1_3linestimulus20.png,TMTstop-A_1_3greenlinestimulus20.png,TMTstop-A_1_3redlinestimulus20.png,None,3,,,,,,,,,0,2,2,2,0,22,22,22,2,1,48.607164199929684,None,"['2', '3']",1,"[0.0097936000674963, 0.11505579994991422]",48.607164199929684,None,,001,2022_Feb_02_1433,TMTAstop-A,2021.2.3,143.2779704596672,
TMTstop-A_1_3.xlsx,52:78,24,['1'],TMTstop-A_1_3linestimulus21.png,TMTstop-A_1_3greenlinestimulus21.png,TMTstop-A_1_3redlinestimulus21.png,None,1,,,,,,,,,0,2,2,2,0,23,23,23,1,1,48.82395950006321,None,['1'],1,[0.044726100051775575],48.82395950006321,None,,001,2022_Feb_02_1433,TMTAstop-A,2021.2.3,143.2779704596672,
TMTstop-A_1_3.xlsx,52:78,25,['3'],TMTstop-A_1_3linestimulus22.png,TMTstop-A_1_3greenlinestimulus22.png,TMTstop-A_1_3redlinestimulus22.png,None,3,,,,,,,,,0,2,2,2,0,24,24,24,2,1,48.94719969993457,None,"['2', '3']",1,"[0.017230800120159984, 0.11702560004778206]",48.94719969993457,None,,001,2022_Feb_02_1433,TMTAstop-A,2021.2.3,143.2779704596672,
TMTstop-A_1_3.xlsx,52:78,None,None,TMTstop-A_1_3linestimulus23.png,TMTstop-A_1_3greenlinestimulus23.png,TMTstop-A_1_3redlinestimulus23.png,None,None,,,,,,,,,0,2,2,2,0,25,25,25,3,1,49.16497000004165,None,"['1', '2', '3']",0,"[0.04034580010920763, 0.12611020007170737, 0.23730859998613596]",49.16497000004165,None,,001,2022_Feb_02_1433,TMTAstop-A,2021.2.3,143.2779704596672,
TMTstop-A_1_3.xlsx,52:78,,,,,,,,,,,,,,,,0,2,2,2,,,,,,,,,,,,,,,001,2022_Feb_02_1433,TMTAstop-A,2021.2.3,143.2779704596672,
,,,,,,,,,,,,,,,,,,,,,,,,,0,1,,,,,,,,,,,,,,
