NumberLetter,corrAns,Correct,StimFile,Correct_StimFile,False_StimFile,Version,Block,TrialNumber_session,n,Stim.started_mean,Stim.started_raw,Stim.started_std,Stim.stopped_raw,key_resp_2.corr_mean,key_resp_2.corr_raw,key_resp_2.corr_std,key_resp_2.keys_raw,key_resp_2.rt_raw,key_resp_2.started_mean,key_resp_2.started_raw,key_resp_2.started_std,key_resp_2.stopped_raw,order
1,['2'],2,TMTstop-control_1_1.png,TMTstop-control_1_1.png,TMTstop-control_1_1.png,TMT_Control,1,1,1.0,10.338056564331055,10.338056564331055,0.0,,1.0,1.0,0.0,1,2,0.7564323999977205,1.0890872000018135,10.338056564331055,10.338056564331055,0.0,,0.0
2,['1'],1,TMTstop-control_1_1.png,TMTstop-control_1_1firstgreen.png,TMTstop-control_1_1firstred.png,TMT_Control,1,2,1.0,11.504767417907715,11.504767417907715,0.0,,1.0,1.0,0.0,3,2,1,0.2409073000017088,0.25911730001098476,0.46937820001039654,11.504767417907715,11.504767417907715,0.0,,1.0
3,['2'],2,TMTstop-control_1_1linestimulus0.png,TMTstop-control_1_1greenlinestimulus0.png,TMTstop-control_1_1redlinestimulus0.png,TMT_Control,1,3,1.0,12.074259757995605,12.074259757995605,0.0,,1.0,1.0,0.0,2,0.07030430001032073,12.074259757995605,12.074259757995605,0.0,,2.0
4,['3'],3,TMTstop-control_1_1linestimulus1.png,TMTstop-control_1_1greenlinestimulus1.png,TMTstop-control_1_1redlinestimulus1.png,TMT_Control,1,4,1.0,12.227190017700195,12.227190017700195,0.0,,1.0,1.0,0.0,3,0.02107339999929536,12.227190017700195,12.227190017700195,0.0,,3.0
5,['2'],2,TMTstop-control_1_1linestimulus2.png,TMTstop-control_1_1greenlinestimulus2.png,TMTstop-control_1_1redlinestimulus2.png,TMT_Control,1,5,1.0,12.32421588897705,12.32421588897705,0.0,,1.0,1.0,0.0,1,3,2,-0.03976659999170806,0.09931460001098458,0.13516279999748804,12.32421588897705,12.32421588897705,0.0,,4.0
6,['1'],1,TMTstop-control_1_1linestimulus3.png,TMTstop-control_1_1greenlinestimulus3.png,TMTstop-control_1_1redlinestimulus3.png,TMT_Control,1,6,1.0,12.56032657623291,12.56032657623291,0.0,,1.0,1.0,0.0,1,0.04462309999507852,12.56032657623291,12.56032657623291,0.0,,5.0
7,['3'],3,TMTstop-control_1_1linestimulus4.png,TMTstop-control_1_1greenlinestimulus4.png,TMTstop-control_1_1redlinestimulus4.png,TMT_Control,1,7,1.0,12.685344696044922,12.685344696044922,0.0,,1.0,1.0,0.0,3,0.059175199989113025,12.685344696044922,12.685344696044922,0.0,,6.0
8,['2'],2,TMTstop-control_1_1linestimulus4.png,TMTstop-control_1_1greenlinestimulus5.png,TMTstop-control_1_1redlinestimulus5.png,TMT_Control,1,8,1.0,12.82421875,12.82421875,0.0,,1.0,1.0,0.0,2,-0.04971490000025369,12.82421875,12.82421875,0.0,,7.0
9,['3'],3,TMTstop-control_1_1linestimulus6.png,TMTstop-control_1_1greenlinestimulus6.png,TMTstop-control_1_1redlinestimulus6.png,TMT_Control,1,9,1.0,12.893465995788574,12.893465995788574,0.0,,1.0,1.0,0.0,1,1,3,0.019578999999794178,1.9004921000014292,2.0198838999931468,12.893465995788574,12.893465995788574,0.0,,8.0
10,['2'],2,TMTstop-control_1_1linestimulus7.png,TMTstop-control_1_1greenlinestimulus7.png,TMTstop-control_1_1redlinestimulus7.png,TMT_Control,1,10,1.0,14.984145164489746,14.984145164489746,0.0,,1.0,1.0,0.0,2,-0.05033430000185035,14.984145164489746,14.984145164489746,0.0,,9.0
11,['3'],3,TMTstop-control_1_1linestimulus8.png,TMTstop-control_1_1greenlinestimulus8.png,TMTstop-control_1_1redlinestimulus8.png,TMT_Control,1,11,1.0,15.05334186553955,15.05334186553955,0.0,,1.0,1.0,0.0,1,3,2,1,3,0.03444030000537168,0.12663900000916328,0.1501398000109475,0.26326150000386406,0.37338350000209175,15.05334186553955,15.05334186553955,0.0,,10.0
12,['1'],1,TMTstop-control_1_1linestimulus9.png,TMTstop-control_1_1greenlinestimulus9.png,TMTstop-control_1_1redlinestimulus9.png,TMT_Control,1,12,1.0,15.498126983642578,15.498126983642578,0.0,,1.0,1.0,0.0,2,1,-0.056120300010661595,0.06119919999036938,15.498126983642578,15.498126983642578,0.0,,11.0
13,['3'],3,TMTstop-control_1_1linestimulus10.png,TMTstop-control_1_1greenlinestimulus10.png,TMTstop-control_1_1redlinestimulus10.png,TMT_Control,1,13,1.0,15.650614738464355,15.650614738464355,0.0,,1.0,1.0,0.0,3,0.03193660000397358,15.650614738464355,15.650614738464355,0.0,,12.0
14,['1'],1,TMTstop-control_1_1linestimulus11.png,TMTstop-control_1_1greenlinestimulus11.png,TMTstop-control_1_1redlinestimulus11.png,TMT_Control,1,14,1.0,15.796188354492188,15.796188354492188,0.0,,1.0,1.0,0.0,2,1,-0.09966750000603497,0.00443960000120569,15.796188354492188,15.796188354492188,0.0,,13.0
15,['3'],3,TMTstop-control_1_1linestimulus12.png,TMTstop-control_1_1greenlinestimulus12.png,TMTstop-control_1_1redlinestimulus12.png,TMT_Control,1,15,1.0,15.907379150390625,15.907379150390625,0.0,,1.0,1.0,0.0,3,0.02781179999874439,15.907379150390625,15.907379150390625,0.0,,14.0
16,['1'],1,TMTstop-control_1_1linestimulus13.png,TMTstop-control_1_1greenlinestimulus13.png,TMTstop-control_1_1redlinestimulus13.png,TMT_Control,1,16,1.0,16.004791259765625,16.004791259765625,0.0,,1.0,1.0,0.0,2,1,-0.0484230000001844,0.07003490001079626,16.004791259765625,16.004791259765625,0.0,,15.0
17,['2'],2,TMTstop-control_1_1linestimulus14.png,TMTstop-control_1_1greenlinestimulus14.png,TMTstop-control_1_1redlinestimulus14.png,TMT_Control,1,17,1.0,16.157474517822266,16.157474517822266,0.0,,1.0,1.0,0.0,3,2,0.03720579999207985,0.05489369999850169,16.157474517822266,16.157474517822266,0.0,,16.0
18,['1'],1,TMTstop-control_1_1linestimulus15.png,TMTstop-control_1_1greenlinestimulus15.png,TMTstop-control_1_1redlinestimulus15.png,TMT_Control,1,18,1.0,16.31688690185547,16.31688690185547,0.0,,1.0,1.0,0.0,1,0.009294600007706322,16.31688690185547,16.31688690185547,0.0,,17.0
19,['3'],3,TMTstop-control_1_1linestimulus16.png,TMTstop-control_1_1greenlinestimulus16.png,TMTstop-control_1_1redlinestimulus16.png,TMT_Control,1,19,1.0,16.407459259033203,16.407459259033203,0.0,,1.0,1.0,0.0,3,0.038608400005614385,16.407459259033203,16.407459259033203,0.0,,18.0
20,['1'],1,TMTstop-control_1_1linestimulus17.png,TMTstop-control_1_1greenlinestimulus17.png,TMTstop-control_1_1redlinestimulus17.png,TMT_Control,1,20,1.0,16.525480270385742,16.525480270385742,0.0,,1.0,1.0,0.0,2,1,-0.04703719999815803,0.0984774000098696,16.525480270385742,16.525480270385742,0.0,,19.0
21,['3'],3,TMTstop-control_1_1linestimulus18.png,TMTstop-control_1_1greenlinestimulus18.png,TMTstop-control_1_1redlinestimulus18.png,TMT_Control,1,21,1.0,16.71991539001465,16.71991539001465,0.0,,1.0,1.0,0.0,3,0.015170400001807138,16.71991539001465,16.71991539001465,0.0,,20.0
22,['1'],1,TMTstop-control_1_1linestimulus19.png,TMTstop-control_1_1greenlinestimulus19.png,TMTstop-control_1_1redlinestimulus19.png,TMT_Control,1,22,1.0,16.817167282104492,16.817167282104492,0.0,,1.0,1.0,0.0,2,1,-0.005636200003209524,0.10455979999096598,16.817167282104492,16.817167282104492,0.0,,21.0
23,['3'],3,TMTstop-control_1_1linestimulus20.png,TMTstop-control_1_1greenlinestimulus20.png,TMTstop-control_1_1redlinestimulus20.png,TMT_Control,1,23,1.0,17.01175880432129,17.01175880432129,0.0,,1.0,1.0,0.0,3,0.03765529999509454,17.01175880432129,17.01175880432129,0.0,,22.0
24,['1'],1,TMTstop-control_1_1linestimulus21.png,TMTstop-control_1_1greenlinestimulus21.png,TMTstop-control_1_1redlinestimulus21.png,TMT_Control,1,24,1.0,17.12976837158203,17.12976837158203,0.0,,1.0,1.0,0.0,2,1,-0.06220020000182558,0.09489219999522902,17.12976837158203,17.12976837158203,0.0,,23.0
25,['3'],3,TMTstop-control_1_1linestimulus22.png,TMTstop-control_1_1greenlinestimulus22.png,TMTstop-control_1_1redlinestimulus22.png,TMT_Control,1,25,1.0,17.331565856933594,17.331565856933594,0.0,,1.0,1.0,0.0,3,0.027002100003301166,17.331565856933594,17.331565856933594,0.0,,24.0
None,None,None,TMTstop-control_1_1linestimulus23.png,TMTstop-control_1_1greenlinestimulus23.png,TMTstop-control_1_1redlinestimulus23.png,TMT_Control,1,Feedback_last,1.0,17.4354190826416,17.4354190826416,0.0,,0.0,0.0,0.0,2,1,-0.06454110000049695,0.09001870000793133,17.4354190826416,17.4354190826416,0.0,,25.0

extraInfo
participant,
session,001
date,2022_Mar_30_1023
expName,TMT_fmri
psychopyVersion,2021.2.3
frameRate,146.8107565281561
﻿NumberLetter,corrAns,Correct,StimFile,Correct_StimFile,False_StimFile,Version,Block,TrialNumber_session,n,Stim.started_mean,Stim.started_raw,Stim.started_std,Stim.stopped_raw,key_resp_2.corr_mean,key_resp_2.corr_raw,key_resp_2.corr_std,key_resp_2.keys_raw,key_resp_2.rt_raw,key_resp_2.started_mean,key_resp_2.started_raw,key_resp_2.started_std,key_resp_2.stopped_raw,order
1,['1'],1,TMTstop-control_1_2.png,TMTstop-control_1_2.png,TMTstop-control_1_2.png,TMT_Control,2,26,1.0,21.545801162719727,21.545801162719727,0.0,,1.0,1.0,0.0,2,3,1,0.36853330000303686,0.5889229000022169,0.7489640999992844,21.545801162719727,21.545801162719727,0.0,,0.0
2,['3'],3,TMTstop-control_1_2.png,TMTstop-control_1_2firstgreen.png,TMTstop-control_1_2firstred.png,TMT_Control,2,27,1.0,22.372652053833008,22.372652053833008,0.0,,1.0,1.0,0.0,2,1,3,-0.002272500001708977,0.10292469999694731,0.4164937000023201,22.372652053833008,22.372652053833008,0.0,,1.0
3,['2'],2,TMTstop-control_1_2linestimulus0.png,TMTstop-control_1_2greenlinestimulus0.png,TMTstop-control_1_2redlinestimulus0.png,TMT_Control,2,28,1.0,22.858699798583984,22.858699798583984,0.0,,1.0,1.0,0.0,2,0.09420910000335425,22.858699798583984,22.858699798583984,0.0,,2.0
4,['3'],3,TMTstop-control_1_2linestimulus1.png,TMTstop-control_1_2greenlinestimulus1.png,TMTstop-control_1_2redlinestimulus1.png,TMT_Control,2,29,1.0,23.0252742767334,23.0252742767334,0.0,,0.0,0.0,0.0,,'--',23.0252742767334,23.0252742767334,0.0,,3.0
5,['1'],1,TMTstop-control_1_2linestimulus2.png,TMTstop-control_1_2greenlinestimulus2.png,TMTstop-control_1_2redlinestimulus2.png,TMT_Control,2,30,0.0,,,,'--',,,,'--','--',,,,'--',
6,['3'],3,TMTstop-control_1_2linestimulus3.png,TMTstop-control_1_2greenlinestimulus3.png,TMTstop-control_1_2redlinestimulus3.png,TMT_Control,2,31,0.0,,,,'--',,,,'--','--',,,,'--',
7,['2'],2,TMTstop-control_1_2linestimulus4.png,TMTstop-control_1_2greenlinestimulus4.png,TMTstop-control_1_2redlinestimulus4.png,TMT_Control,2,32,0.0,,,,'--',,,,'--','--',,,,'--',
8,['1'],1,TMTstop-control_1_2linestimulus4.png,TMTstop-control_1_2greenlinestimulus5.png,TMTstop-control_1_2redlinestimulus5.png,TMT_Control,2,33,0.0,,,,'--',,,,'--','--',,,,'--',
9,['2'],2,TMTstop-control_1_2linestimulus6.png,TMTstop-control_1_2greenlinestimulus6.png,TMTstop-control_1_2redlinestimulus6.png,TMT_Control,2,34,0.0,,,,'--',,,,'--','--',,,,'--',
10,['3'],3,TMTstop-control_1_2linestimulus7.png,TMTstop-control_1_2greenlinestimulus7.png,TMTstop-control_1_2redlinestimulus7.png,TMT_Control,2,35,0.0,,,,'--',,,,'--','--',,,,'--',
11,['1'],1,TMTstop-control_1_2linestimulus8.png,TMTstop-control_1_2greenlinestimulus8.png,TMTstop-control_1_2redlinestimulus8.png,TMT_Control,2,36,0.0,,,,'--',,,,'--','--',,,,'--',
12,['2'],2,TMTstop-control_1_2linestimulus9.png,TMTstop-control_1_2greenlinestimulus9.png,TMTstop-control_1_2redlinestimulus9.png,TMT_Control,2,37,0.0,,,,'--',,,,'--','--',,,,'--',
13,['3'],3,TMTstop-control_1_2linestimulus10.png,TMTstop-control_1_2greenlinestimulus10.png,TMTstop-control_1_2redlinestimulus10.png,TMT_Control,2,38,0.0,,,,'--',,,,'--','--',,,,'--',
14,['1'],1,TMTstop-control_1_2linestimulus11.png,TMTstop-control_1_2greenlinestimulus11.png,TMTstop-control_1_2redlinestimulus11.png,TMT_Control,2,39,0.0,,,,'--',,,,'--','--',,,,'--',
15,['2'],2,TMTstop-control_1_2linestimulus12.png,TMTstop-control_1_2greenlinestimulus12.png,TMTstop-control_1_2redlinestimulus12.png,TMT_Control,2,40,0.0,,,,'--',,,,'--','--',,,,'--',
16,['1'],1,TMTstop-control_1_2linestimulus13.png,TMTstop-control_1_2greenlinestimulus13.png,TMTstop-control_1_2redlinestimulus13.png,TMT_Control,2,41,0.0,,,,'--',,,,'--','--',,,,'--',
17,['2'],2,TMTstop-control_1_2linestimulus14.png,TMTstop-control_1_2greenlinestimulus14.png,TMTstop-control_1_2redlinestimulus14.png,TMT_Control,2,42,0.0,,,,'--',,,,'--','--',,,,'--',
18,['1'],1,TMTstop-control_1_2linestimulus15.png,TMTstop-control_1_2greenlinestimulus15.png,TMTstop-control_1_2redlinestimulus15.png,TMT_Control,2,43,0.0,,,,'--',,,,'--','--',,,,'--',
19,['3'],3,TMTstop-control_1_2linestimulus16.png,TMTstop-control_1_2greenlinestimulus16.png,TMTstop-control_1_2redlinestimulus16.png,TMT_Control,2,44,0.0,,,,'--',,,,'--','--',,,,'--',
20,['1'],1,TMTstop-control_1_2linestimulus17.png,TMTstop-control_1_2greenlinestimulus17.png,TMTstop-control_1_2redlinestimulus17.png,TMT_Control,2,45,0.0,,,,'--',,,,'--','--',,,,'--',
21,['2'],2,TMTstop-control_1_2linestimulus18.png,TMTstop-control_1_2greenlinestimulus18.png,TMTstop-control_1_2redlinestimulus18.png,TMT_Control,2,46,0.0,,,,'--',,,,'--','--',,,,'--',
22,['1'],1,TMTstop-control_1_2linestimulus19.png,TMTstop-control_1_2greenlinestimulus19.png,TMTstop-control_1_2redlinestimulus19.png,TMT_Control,2,47,0.0,,,,'--',,,,'--','--',,,,'--',
23,['3'],3,TMTstop-control_1_2linestimulus20.png,TMTstop-control_1_2greenlinestimulus20.png,TMTstop-control_1_2redlinestimulus20.png,TMT_Control,2,48,0.0,,,,'--',,,,'--','--',,,,'--',
24,['1'],1,TMTstop-control_1_2linestimulus21.png,TMTstop-control_1_2greenlinestimulus21.png,TMTstop-control_1_2redlinestimulus21.png,TMT_Control,2,49,0.0,,,,'--',,,,'--','--',,,,'--',
25,['3'],3,TMTstop-control_1_2linestimulus22.png,TMTstop-control_1_2greenlinestimulus22.png,TMTstop-control_1_2redlinestimulus22.png,TMT_Control,2,50,0.0,,,,'--',,,,'--','--',,,,'--',
None,None,None,TMTstop-control_1_2linestimulus23.png,TMTstop-control_1_2greenlinestimulus23.png,TMTstop-control_1_2redlinestimulus23.png,TMT_Control,2,Feedback_last,0.0,,,,'--',,,,'--','--',,,,'--',

extraInfo
participant,
session,001
date,2022_Mar_30_1023
expName,TMT_fmri
psychopyVersion,2021.2.3
frameRate,146.8107565281561
