NumberLetter,corrAns,StimFile,Correct_StimFile,False_StimFile,DurationTrial,Block_file,Condition_rows,Correct,restartpractice.thisRepN,restartpractice.thisTrialN,restartpractice.thisN,restartpractice.thisIndex,trials_practice.thisRepN,trials_practice.thisTrialN,trials_practice.thisN,trials_practice.thisIndex,Blocks_loop.thisRepN,Blocks_loop.thisTrialN,Blocks_loop.thisN,Blocks_loop.thisIndex,trials.thisRepN,trials.thisTrialN,trials.thisN,trials.thisIndex,key_resp_6.keys,key_resp_6.rt,key_resp_6.started,key_resp_6.stopped,Stim_practice.started,Stim_practice.stopped,key_resp_practice.keys,key_resp_practice.rt,key_resp_practice.started,key_resp_practice.stopped,key_resp_5.keys,key_resp_5.rt,key_resp_5.started,key_resp_5.stopped,Keypress_count,Stim.started,Stim.stopped,key_resp_2.keys,key_resp_2.corr,key_resp_2.rt,key_resp_2.started,key_resp_2.stopped,participant,session,date,expName,psychopyVersion,frameRate,
,,,,,,,,,,,,,,,,,,,,,,,,,2,0.4568431000225246,7.69288200000301,None,,,,,,,,,,,,,,,,,,,,001,2022_Jan_24_1444,TMTAstop-A,2021.2.3,59.9514633305028,
1,['1'],TMTstop-A_1_practice.png,TMTstop-A_1_practice.png,TMTstop-A_1_practice.png,10,,,,0,0,0,0,0,0,0,0,,,,,,,,,,,,,11.277747999993153,None,1,1.0298452000133693,11.277747999993153,None,,,,,,,,,,,,,,001,2022_Jan_24_1444,TMTAstop-A,2021.2.3,59.9514633305028,
2,['2'],TMTstop-A_1_practice.png,TMTstop-A_1_practicefirstgreen.png,TMTstop-A_1_practicefirstred.png,10,,,,0,0,0,0,0,1,1,1,,,,,,,,,,,,,12.39513979991898,None,2,0.3925904999487102,12.39513979991898,None,,,,,,,,,,,,,,001,2022_Jan_24_1444,TMTAstop-A,2021.2.3,59.9514633305028,
3,['3'],TMTstop-A_1_practicelinestimulus0.png,TMTstop-A_1_practicegreenlinestimulus0.png,TMTstop-A_1_practiceredlinestimulus0.png,10,,,,0,0,0,0,0,2,2,2,,,,,,,,,,,,,12.879151299945079,None,3,0.015342199942097068,12.879151299945079,None,,,,,,,,,,,,,,001,2022_Jan_24_1444,TMTAstop-A,2021.2.3,59.9514633305028,
4,['1'],TMTstop-A_1_practicelinestimulus1.png,TMTstop-A_1_practicegreenlinestimulus1.png,TMTstop-A_1_practiceredlinestimulus1.png,10,,,,0,0,0,0,0,3,3,3,,,,,,,,,,,,,12.979228699929081,None,1,0.06238589994609356,12.979228699929081,None,,,,,,,,,,,,,,001,2022_Jan_24_1444,TMTAstop-A,2021.2.3,59.9514633305028,
5,['2'],TMTstop-A_1_practicelinestimulus2.png,TMTstop-A_1_practicegreenlinestimulus2.png,TMTstop-A_1_practiceredlinestimulus2.png,10,,,,0,0,0,0,0,4,4,4,,,,,,,,,,,,,13.129335799952969,None,2,0.3205635999329388,13.129335799952969,None,,,,,,,,,,,,,,001,2022_Jan_24_1444,TMTAstop-A,2021.2.3,59.9514633305028,
6,['3'],TMTstop-A_1_practicelinestimulus3.png,TMTstop-A_1_practicegreenlinestimulus3.png,TMTstop-A_1_practiceredlinestimulus3.png,10,,,,0,0,0,0,0,5,5,5,,,,,,,,,,,,,13.579546599998139,None,3,0.3315380000276491,13.579546599998139,None,,,,,,,,,,,,,,001,2022_Jan_24_1444,TMTAstop-A,2021.2.3,59.9514633305028,
7,['1'],TMTstop-A_1_practicelinestimulus4.png,TMTstop-A_1_practicegreenlinestimulus4.png,TMTstop-A_1_practiceredlinestimulus4.png,10,,,,0,0,0,0,0,6,6,6,,,,,,,,,,,,,13.996461499948055,None,1,0.23590050009079278,13.996461499948055,None,,,,,,,,,,,,,,001,2022_Jan_24_1444,TMTAstop-A,2021.2.3,59.9514633305028,
8,['3'],TMTstop-A_1_practicelinestimulus5.png,TMTstop-A_1_practicegreenlinestimulus5.png,TMTstop-A_1_practiceredlinestimulus5.png,10,,,,0,0,0,0,0,7,7,7,,,,,,,,,,,,,14.31347699998878,None,3,0.08749730000272393,14.31347699998878,None,,,,,,,,,,,,,,001,2022_Jan_24_1444,TMTAstop-A,2021.2.3,59.9514633305028,
9,['2'],TMTstop-A_1_practicelinestimulus6.png,TMTstop-A_1_practicegreenlinestimulus6.png,TMTstop-A_1_practiceredlinestimulus6.png,10,,,,0,0,0,0,0,8,8,8,,,,,,,,,,,,,14.496596699929796,None,2,0.1331036000046879,14.496596699929796,None,,,,,,,,,,,,,,001,2022_Jan_24_1444,TMTAstop-A,2021.2.3,59.9514633305028,
10,['3'],TMTstop-A_1_practicelinestimulus7.png,TMTstop-A_1_practicegreenlinestimulus7.png,TMTstop-A_1_practiceredlinestimulus7.png,10,,,,0,0,0,0,0,9,9,9,,,,,,,,,,,,,14.729981599957682,None,3,0.00557519996073097,14.729981599957682,None,,,,,,,,,,,,,,001,2022_Jan_24_1444,TMTAstop-A,2021.2.3,59.9514633305028,
11,['1'],TMTstop-A_1_practicelinestimulus8.png,TMTstop-A_1_practicegreenlinestimulus8.png,TMTstop-A_1_practiceredlinestimulus8.png,10,,,,0,0,0,0,0,10,10,10,,,,,,,,,,,,,14.830596699961461,None,1,0.052548700012266636,14.830596699961461,None,,,,,,,,,,,,,,001,2022_Jan_24_1444,TMTAstop-A,2021.2.3,59.9514633305028,
12,['2'],TMTstop-A_1_practicelinestimulus9.png,TMTstop-A_1_practicegreenlinestimulus9.png,TMTstop-A_1_practiceredlinestimulus9.png,10,,,,0,0,0,0,0,11,11,11,,,,,,,,,,,,,14.980368199991062,None,2,0.30138359998818487,14.980368199991062,None,,,,,,,,,,,,,,001,2022_Jan_24_1444,TMTAstop-A,2021.2.3,59.9514633305028,
None,None,TMTstop-A_1_practicelinestimulus10.png,TMTstop-A_1_practicegreenlinestimulus10.png,TMTstop-A_1_practiceredlinestimulus10.png,None,,,,0,0,0,0,0,12,12,12,,,,,,,,,,,,,15.363723099930212,None,1,0.4884115000022575,15.363723099930212,None,,,,,,,,,,,,,,001,2022_Jan_24_1444,TMTAstop-A,2021.2.3,59.9514633305028,
,,,,,,,,,0,0,0,0,,,,,,,,,,,,,,,,,,,,,,,2,0.5543002999620512,16.444530799984932,None,,,,,,,,,,001,2022_Jan_24_1444,TMTAstop-A,2021.2.3,59.9514633305028,
1,['2'],TMTstop-A_1_1.png,TMTstop-A_1_1.png,TMTstop-A_1_1.png,10,TMTstop-A_1_1.xlsx,0:26,,,,,,,,,,0,0,0,0,0,0,0,0,,,,,,,,,,,,,,,13,20.148516800021753,None,"['1', '2', '3', '1', '2']",1,"[0.4767872999655083, 0.6445963999722153, 0.6821477999910712, 0.9452088000252843, 1.0565318999579176]",20.148516800021753,None,,001,2022_Jan_24_1444,TMTAstop-A,2021.2.3,59.9514633305028,
2,['1'],TMTstop-A_1_1.png,TMTstop-A_1_1firstgreen.png,TMTstop-A_1_1firstred.png,10,TMTstop-A_1_1.xlsx,0:26,,,,,,,,,,0,0,0,0,0,1,1,1,,,,,,,,,,,,,,,18,21.31640329991933,None,"['3', '1']",1,"[0.2761789000360295, 0.48041930003091693]",21.31640329991933,None,,001,2022_Jan_24_1444,TMTAstop-A,2021.2.3,59.9514633305028,
3,['2'],TMTstop-A_1_1linestimulus0.png,TMTstop-A_1_1greenlinestimulus0.png,TMTstop-A_1_1redlinestimulus0.png,10,TMTstop-A_1_1.xlsx,0:26,,,,,,,,,,0,0,0,0,0,2,2,2,,,,,,,,,,,,,,,19,21.883306699921377,None,['2'],1,[-0.0060807999689131975],21.883306699921377,None,,001,2022_Jan_24_1444,TMTAstop-A,2021.2.3,59.9514633305028,
4,['3'],TMTstop-A_1_1linestimulus1.png,TMTstop-A_1_1greenlinestimulus1.png,TMTstop-A_1_1redlinestimulus1.png,10,TMTstop-A_1_1.xlsx,0:26,,,,,,,,,,0,0,0,0,0,3,3,3,,,,,,,,,,,,,,,20,21.96665610000491,None,['3'],1,[0.020796400029212236],21.96665610000491,None,,001,2022_Jan_24_1444,TMTAstop-A,2021.2.3,59.9514633305028,
5,['2'],TMTstop-A_1_1linestimulus2.png,TMTstop-A_1_1greenlinestimulus2.png,TMTstop-A_1_1redlinestimulus2.png,10,TMTstop-A_1_1.xlsx,0:26,,,,,,,,,,0,0,0,0,0,4,4,4,,,,,,,,,,,,,,,22,22.08349739992991,None,"['1', '2']",1,"[0.08688999991863966, 0.1453785999910906]",22.08349739992991,None,,001,2022_Jan_24_1444,TMTAstop-A,2021.2.3,59.9514633305028,
6,['3'],TMTstop-A_1_1linestimulus3.png,TMTstop-A_1_1greenlinestimulus3.png,TMTstop-A_1_1redlinestimulus3.png,10,TMTstop-A_1_1.xlsx,0:26,,,,,,,,,,0,0,0,0,0,5,5,5,,,,,,,,,,,,,,,23,22.317478599958122,None,['3'],1,[0.026653300039470196],22.317478599958122,None,,001,2022_Jan_24_1444,TMTAstop-A,2021.2.3,59.9514633305028,
7,['2'],TMTstop-A_1_1linestimulus4.png,TMTstop-A_1_1greenlinestimulus4.png,TMTstop-A_1_1redlinestimulus4.png,10,TMTstop-A_1_1.xlsx,0:26,,,,,,,,,,0,0,0,0,0,6,6,6,,,,,,,,,,,,,,,27,22.4337807999691,None,"['1', '2']",1,"[0.051073300070129335, 0.15476030006539077]",22.4337807999691,None,,001,2022_Jan_24_1444,TMTAstop-A,2021.2.3,59.9514633305028,
8,['1'],TMTstop-A_1_1linestimulus5.png,TMTstop-A_1_1greenlinestimulus5.png,TMTstop-A_1_1redlinestimulus5.png,10,TMTstop-A_1_1.xlsx,0:26,,,,,,,,,,0,0,0,0,0,7,7,7,,,,,,,,,,,,,,,31,22.71715789998416,None,"['3', '1']",1,"[-0.04429799993522465, 0.13559730001725256]",22.71715789998416,None,,001,2022_Jan_24_1444,TMTAstop-A,2021.2.3,59.9514633305028,
9,['2'],TMTstop-A_1_1linestimulus6.png,TMTstop-A_1_1greenlinestimulus6.png,TMTstop-A_1_1redlinestimulus6.png,10,TMTstop-A_1_1.xlsx,0:26,,,,,,,,,,0,0,0,0,0,8,8,8,,,,,,,,,,,,,,,32,22.95066349999979,None,['2'],1,[-0.019821199937723577],22.95066349999979,None,,001,2022_Jan_24_1444,TMTAstop-A,2021.2.3,59.9514633305028,
10,['1'],TMTstop-A_1_1linestimulus7.png,TMTstop-A_1_1greenlinestimulus7.png,TMTstop-A_1_1redlinestimulus7.png,10,TMTstop-A_1_1.xlsx,0:26,,,,,,,,,,0,0,0,0,0,9,9,9,,,,,,,,,,,,,,,36,23.033984999987297,None,"['3', '1']",1,"[0.0015215000603348017, 0.15352210006676614]",23.033984999987297,None,,001,2022_Jan_24_1444,TMTAstop-A,2021.2.3,59.9514633305028,
11,['2'],TMTstop-A_1_1linestimulus8.png,TMTstop-A_1_1greenlinestimulus8.png,TMTstop-A_1_1redlinestimulus8.png,10,TMTstop-A_1_1.xlsx,0:26,,,,,,,,,,0,0,0,0,0,10,10,10,,,,,,,,,,,,,,,37,23.283872099942528,None,['2'],1,[-0.04734109994024038],23.283872099942528,None,,001,2022_Jan_24_1444,TMTAstop-A,2021.2.3,59.9514633305028,
12,['3'],TMTstop-A_1_1linestimulus9.png,TMTstop-A_1_1greenlinestimulus9.png,TMTstop-A_1_1redlinestimulus9.png,10,TMTstop-A_1_1.xlsx,0:26,,,,,,,,,,0,0,0,0,0,11,11,11,,,,,,,,,,,,,,,38,23.367423599935137,None,['3'],1,[0.005303999991156161],23.367423599935137,None,,001,2022_Jan_24_1444,TMTAstop-A,2021.2.3,59.9514633305028,
13,['2'],TMTstop-A_1_1linestimulus10.png,TMTstop-A_1_1greenlinestimulus10.png,TMTstop-A_1_1redlinestimulus10.png,1,TMTstop-A_1_1.xlsx,0:26,,,,,,,,,,0,0,0,0,0,12,12,12,,,,,,,,,,,,,,,41,23.46759359992575,None,"['1', '2']",1,"[0.03886820003390312, 0.1343004999216646]",23.46759359992575,None,,001,2022_Jan_24_1444,TMTAstop-A,2021.2.3,59.9514633305028,
14,['3'],TMTstop-A_1_1linestimulus11.png,TMTstop-A_1_1greenlinestimulus11.png,TMTstop-A_1_1redlinestimulus11.png,None,TMTstop-A_1_1.xlsx,0:26,,,,,,,,,,0,0,0,0,0,13,13,13,,,,,,,,,,,,,,,42,23.700755700003356,None,['3'],1,[0.00018269999418407679],23.700755700003356,None,,001,2022_Jan_24_1444,TMTAstop-A,2021.2.3,59.9514633305028,
15,['1'],TMTstop-A_1_1linestimulus12.png,TMTstop-A_1_1greenlinestimulus12.png,TMTstop-A_1_1redlinestimulus12.png,None,TMTstop-A_1_1.xlsx,0:26,,,,,,,,,,0,0,0,0,0,14,14,14,,,,,,,,,,,,,,,43,23.7841471999418,None,['1'],1,[0.06637009989935905],23.7841471999418,None,,001,2022_Jan_24_1444,TMTAstop-A,2021.2.3,59.9514633305028,
16,['3'],TMTstop-A_1_1linestimulus13.png,TMTstop-A_1_1greenlinestimulus13.png,TMTstop-A_1_1redlinestimulus13.png,None,TMTstop-A_1_1.xlsx,0:26,,,,,,,,,,0,0,0,0,0,15,15,15,,,,,,,,,,,,,,,46,23.934466899954714,None,"['2', '3']",1,"[-0.007990899961441755, 0.09388319996651262]",23.934466899954714,None,,001,2022_Jan_24_1444,TMTAstop-A,2021.2.3,59.9514633305028,
17,['2'],TMTstop-A_1_1linestimulus14.png,TMTstop-A_1_1greenlinestimulus14.png,TMTstop-A_1_1redlinestimulus14.png,None,TMTstop-A_1_1.xlsx,0:26,,,,,,,,,,0,0,0,0,0,16,16,16,,,,,,,,,,,,,,,50,24.117888299981132,None,"['1', '2']",1,"[0.0882778000086546, 0.22474970004986972]",24.117888299981132,None,,001,2022_Jan_24_1444,TMTAstop-A,2021.2.3,59.9514633305028,
18,['3'],TMTstop-A_1_1linestimulus15.png,TMTstop-A_1_1greenlinestimulus15.png,TMTstop-A_1_1redlinestimulus15.png,None,TMTstop-A_1_1.xlsx,0:26,,,,,,,,,,0,0,0,0,0,17,17,17,,,,,,,,,,,,,,,51,24.451191099942662,None,['3'],1,[-0.053796300082467496],24.451191099942662,None,,001,2022_Jan_24_1444,TMTAstop-A,2021.2.3,59.9514633305028,
19,['1'],TMTstop-A_1_1linestimulus16.png,TMTstop-A_1_1greenlinestimulus16.png,TMTstop-A_1_1redlinestimulus16.png,None,TMTstop-A_1_1.xlsx,0:26,,,,,,,,,,0,0,0,0,0,18,18,18,,,,,,,,,,,,,,,52,24.534679999924265,None,['1'],1,[0.02813569991849363],24.534679999924265,None,,001,2022_Jan_24_1444,TMTAstop-A,2021.2.3,59.9514633305028,
20,['3'],TMTstop-A_1_1linestimulus17.png,TMTstop-A_1_1greenlinestimulus17.png,TMTstop-A_1_1redlinestimulus17.png,None,TMTstop-A_1_1.xlsx,0:26,,,,,,,,,,0,0,0,0,0,19,19,19,,,,,,,,,,,,,,,55,24.65158760000486,None,"['2', '3']",1,"[-0.05248289997689426, 0.09962210000958294]",24.65158760000486,None,,001,2022_Jan_24_1444,TMTAstop-A,2021.2.3,59.9514633305028,
21,['1'],TMTstop-A_1_1linestimulus18.png,TMTstop-A_1_1greenlinestimulus18.png,TMTstop-A_1_1redlinestimulus18.png,None,TMTstop-A_1_1.xlsx,0:26,,,,,,,,,,0,0,0,0,0,20,20,20,,,,,,,,,,,,,,,56,24.834663499961607,None,['1'],1,[0.0732947998913005],24.834663499961607,None,,001,2022_Jan_24_1444,TMTAstop-A,2021.2.3,59.9514633305028,
22,['3'],TMTstop-A_1_1linestimulus19.png,TMTstop-A_1_1greenlinestimulus19.png,TMTstop-A_1_1redlinestimulus19.png,None,TMTstop-A_1_1.xlsx,0:26,,,,,,,,,,0,0,0,0,0,21,21,21,,,,,,,,,,,,,,,70,25.001357299974188,None,"['2', '1', '2', '3']",1,"[-0.026827999972738326, 0.45537980005610734, 0.5340401000576094, 0.641804900020361]",25.001357299974188,None,,001,2022_Jan_24_1444,TMTAstop-A,2021.2.3,59.9514633305028,
23,['1'],TMTstop-A_1_1linestimulus20.png,TMTstop-A_1_1greenlinestimulus20.png,TMTstop-A_1_1redlinestimulus20.png,None,TMTstop-A_1_1.xlsx,0:26,,,,,,,,,,0,0,0,0,0,22,22,22,,,,,,,,,,,,,,,71,25.735285999951884,None,['1'],1,[0.058203900000080466],25.735285999951884,None,,001,2022_Jan_24_1444,TMTAstop-A,2021.2.3,59.9514633305028,
24,['2'],TMTstop-A_1_1linestimulus21.png,TMTstop-A_1_1greenlinestimulus21.png,TMTstop-A_1_1redlinestimulus21.png,None,TMTstop-A_1_1.xlsx,0:26,,,,,,,,,,0,0,0,0,0,23,23,23,,,,,,,,,,,,,,,72,25.88532999996096,None,['2'],1,[-0.049581300001591444],25.88532999996096,None,,001,2022_Jan_24_1444,TMTAstop-A,2021.2.3,59.9514633305028,
25,['3'],TMTstop-A_1_1linestimulus22.png,TMTstop-A_1_1greenlinestimulus22.png,TMTstop-A_1_1redlinestimulus22.png,None,TMTstop-A_1_1.xlsx,0:26,,,,,,,,,,0,0,0,0,0,24,24,24,,,,,,,,,,,,,,,73,25.985606399946846,None,['3'],1,[-0.01253269996959716],25.985606399946846,None,,001,2022_Jan_24_1444,TMTAstop-A,2021.2.3,59.9514633305028,
None,None,TMTstop-A_1_1linestimulus23.png,TMTstop-A_1_1greenlinestimulus23.png,TMTstop-A_1_1redlinestimulus23.png,None,TMTstop-A_1_1.xlsx,0:26,,,,,,,,,,0,0,0,0,0,25,25,25,,,,,,,,,,,,,,,,26.068550999974832,None,"['1', '2', '3']",0,"[0.07043170009274036, 0.16162690008059144, 0.2757644000230357]",26.068550999974832,None,,001,2022_Jan_24_1444,TMTAstop-A,2021.2.3,59.9514633305028,
,,,,,,TMTstop-A_1_1.xlsx,0:26,,,,,,,,,,0,0,0,0,,,,,,,,,,,,,,,,,,,,,,,,,,,,001,2022_Jan_24_1444,TMTAstop-A,2021.2.3,59.9514633305028,
1,['3'],TMTstop-A_1_2.png,TMTstop-A_1_2.png,TMTstop-A_1_2.png,10,TMTstop-A_1_2.xlsx,26:52,3,,,,,,,,,0,1,1,1,0,0,0,0,,,,,,,,,,,,,,,98,30.153812199947424,None,"['1', '2', '3']",1,"[0.45336439996026456, 0.5998812000034377, 0.6725299999816343]",30.153812199947424,None,,001,2022_Jan_24_1444,TMTAstop-A,2021.2.3,59.9514633305028,
2,['2'],TMTstop-A_1_2.png,TMTstop-A_1_2firstgreen.png,TMTstop-A_1_2firstred.png,10,TMTstop-A_1_2.xlsx,26:52,2,,,,,,,,,0,1,1,1,0,1,1,1,,,,,,,,,,,,,,,101,30.937899600015953,None,"['1', '2']",1,"[0.0874437999445945, 0.1785493999486789]",30.937899600015953,None,,001,2022_Jan_24_1444,TMTAstop-A,2021.2.3,59.9514633305028,
3,['3'],TMTstop-A_1_2linestimulus0.png,TMTstop-A_1_2greenlinestimulus0.png,TMTstop-A_1_2redlinestimulus0.png,10,TMTstop-A_1_2.xlsx,26:52,3,,,,,,,,,0,1,1,1,0,2,2,2,,,,,,,,,,,,,,,102,31.221158299944364,None,['3'],1,[-0.01861520006787032],31.221158299944364,None,,001,2022_Jan_24_1444,TMTAstop-A,2021.2.3,59.9514633305028,
4,['1'],TMTstop-A_1_2linestimulus1.png,TMTstop-A_1_2greenlinestimulus1.png,TMTstop-A_1_2redlinestimulus1.png,10,TMTstop-A_1_2.xlsx,26:52,1,,,,,,,,,0,1,1,1,0,3,3,3,,,,,,,,,,,,,,,103,31.304291800013743,None,['1'],1,[0.057704900042153895],31.304291800013743,None,,001,2022_Jan_24_1444,TMTAstop-A,2021.2.3,59.9514633305028,
5,['2'],TMTstop-A_1_2linestimulus2.png,TMTstop-A_1_2greenlinestimulus2.png,TMTstop-A_1_2redlinestimulus2.png,10,TMTstop-A_1_2.xlsx,26:52,2,,,,,,,,,0,1,1,1,0,4,4,4,,,,,,,,,,,,,,,104,31.454391599982046,None,['2'],1,[-0.013939399970695376],31.454391599982046,None,,001,2022_Jan_24_1444,TMTAstop-A,2021.2.3,59.9514633305028,
6,['3'],TMTstop-A_1_2linestimulus3.png,TMTstop-A_1_2greenlinestimulus3.png,TMTstop-A_1_2redlinestimulus3.png,10,TMTstop-A_1_2.xlsx,26:52,3,,,,,,,,,0,1,1,1,0,5,5,5,,,,,,,,,,,,,,,105,31.52162929996848,None,['3'],1,[0.0018376000225543976],31.52162929996848,None,,001,2022_Jan_24_1444,TMTAstop-A,2021.2.3,59.9514633305028,
7,['2'],TMTstop-A_1_2linestimulus4.png,TMTstop-A_1_2greenlinestimulus4.png,TMTstop-A_1_2redlinestimulus4.png,10,TMTstop-A_1_2.xlsx,26:52,2,,,,,,,,,0,1,1,1,0,6,6,6,,,,,,,,,,,,,,,108,31.621114399982616,None,"['1', '2']",1,"[0.056549300090409815, 0.14786250004544854]",31.621114399982616,None,,001,2022_Jan_24_1444,TMTAstop-A,2021.2.3,59.9514633305028,
8,['1'],TMTstop-A_1_2linestimulus5.png,TMTstop-A_1_2greenlinestimulus5.png,TMTstop-A_1_2redlinestimulus5.png,10,TMTstop-A_1_2.xlsx,26:52,1,,,,,,,,,0,1,1,1,0,7,7,7,,,,,,,,,,,,,,,112,31.87142350000795,None,"['3', '1']",1,"[-0.020239399978891015, 0.12681170005816966]",31.87142350000795,None,,001,2022_Jan_24_1444,TMTAstop-A,2021.2.3,59.9514633305028,
9,['2'],TMTstop-A_1_2linestimulus6.png,TMTstop-A_1_2greenlinestimulus6.png,TMTstop-A_1_2redlinestimulus6.png,10,TMTstop-A_1_2.xlsx,26:52,2,,,,,,,,,0,1,1,1,0,8,8,8,,,,,,,,,,,,,,,113,32.10475169995334,None,['2'],1,[0.00548789999447763],32.10475169995334,None,,001,2022_Jan_24_1444,TMTAstop-A,2021.2.3,59.9514633305028,
10,['3'],TMTstop-A_1_2linestimulus7.png,TMTstop-A_1_2greenlinestimulus7.png,TMTstop-A_1_2redlinestimulus7.png,10,TMTstop-A_1_2.xlsx,26:52,3,,,,,,,,,0,1,1,1,0,9,9,9,,,,,,,,,,,,,,,114,32.204771299962886,None,['3'],1,[-0.029892299906350672],32.204771299962886,None,,001,2022_Jan_24_1444,TMTAstop-A,2021.2.3,59.9514633305028,
11,['1'],TMTstop-A_1_2linestimulus8.png,TMTstop-A_1_2greenlinestimulus8.png,TMTstop-A_1_2redlinestimulus8.png,10,TMTstop-A_1_2.xlsx,26:52,1,,,,,,,,,0,1,1,1,0,10,10,10,,,,,,,,,,,,,,,115,32.288133100024424,None,['1'],1,[0.025561199989169836],32.288133100024424,None,,001,2022_Jan_24_1444,TMTAstop-A,2021.2.3,59.9514633305028,
12,['2'],TMTstop-A_1_2linestimulus9.png,TMTstop-A_1_2greenlinestimulus9.png,TMTstop-A_1_2redlinestimulus9.png,10,TMTstop-A_1_2.xlsx,26:52,2,,,,,,,,,0,1,1,1,0,11,11,11,,,,,,,,,,,,,,,116,32.40535090002231,None,['2'],1,[0.0002517999382689595],32.40535090002231,None,,001,2022_Jan_24_1444,TMTAstop-A,2021.2.3,59.9514633305028,
13,['3'],TMTstop-A_1_2linestimulus10.png,TMTstop-A_1_2greenlinestimulus10.png,TMTstop-A_1_2redlinestimulus10.png,1,TMTstop-A_1_2.xlsx,26:52,3,,,,,,,,,0,1,1,1,0,12,12,12,,,,,,,,,,,,,,,117,32.488399599911645,None,['3'],1,[-0.005790199968032539],32.488399599911645,None,,001,2022_Jan_24_1444,TMTAstop-A,2021.2.3,59.9514633305028,
14,['1'],TMTstop-A_1_2linestimulus11.png,TMTstop-A_1_2greenlinestimulus11.png,TMTstop-A_1_2redlinestimulus11.png,None,TMTstop-A_1_2.xlsx,26:52,1,,,,,,,,,0,1,1,1,0,13,13,13,,,,,,,,,,,,,,,118,32.5716839999659,None,['1'],1,[0.06788860005326569],32.5716839999659,None,,001,2022_Jan_24_1444,TMTAstop-A,2021.2.3,59.9514633305028,
15,['3'],TMTstop-A_1_2linestimulus12.png,TMTstop-A_1_2greenlinestimulus12.png,TMTstop-A_1_2redlinestimulus12.png,None,TMTstop-A_1_2.xlsx,26:52,3,,,,,,,,,0,1,1,1,0,14,14,14,,,,,,,,,,,,,,,121,32.72160829999484,None,"['2', '3']",1,"[0.04660890006925911, 0.11415150004904717]",32.72160829999484,None,,001,2022_Jan_24_1444,TMTAstop-A,2021.2.3,59.9514633305028,
16,['1'],TMTstop-A_1_2linestimulus13.png,TMTstop-A_1_2greenlinestimulus13.png,TMTstop-A_1_2redlinestimulus13.png,None,TMTstop-A_1_2.xlsx,26:52,1,,,,,,,,,0,1,1,1,0,15,15,15,,,,,,,,,,,,,,,122,32.955209699925035,None,['1'],1,[0.03138669999316335],32.955209699925035,None,,001,2022_Jan_24_1444,TMTAstop-A,2021.2.3,59.9514633305028,
17,['2'],TMTstop-A_1_2linestimulus14.png,TMTstop-A_1_2greenlinestimulus14.png,TMTstop-A_1_2redlinestimulus14.png,None,TMTstop-A_1_2.xlsx,26:52,2,,,,,,,,,0,1,1,1,0,16,16,16,,,,,,,,,,,,,,,123,33.07179550000001,None,['2'],1,[0.031274800072424114],33.07179550000001,None,,001,2022_Jan_24_1444,TMTAstop-A,2021.2.3,59.9514633305028,
18,['1'],TMTstop-A_1_2linestimulus15.png,TMTstop-A_1_2greenlinestimulus15.png,TMTstop-A_1_2redlinestimulus15.png,None,TMTstop-A_1_2.xlsx,26:52,1,,,,,,,,,0,1,1,1,0,17,17,17,,,,,,,,,,,,,,,128,33.189689100021496,None,"['3', '1']",1,"[0.026397099951282144, 0.18824689998291433]",33.189689100021496,None,,001,2022_Jan_24_1444,TMTAstop-A,2021.2.3,59.9514633305028,
19,['3'],TMTstop-A_1_2linestimulus16.png,TMTstop-A_1_2greenlinestimulus16.png,TMTstop-A_1_2redlinestimulus16.png,None,TMTstop-A_1_2.xlsx,26:52,3,,,,,,,,,0,1,1,1,0,18,18,18,,,,,,,,,,,,,,,131,33.50550299999304,None,"['2', '3']",1,"[-0.046449100016616285, 0.063481800025329]",33.50550299999304,None,,001,2022_Jan_24_1444,TMTAstop-A,2021.2.3,59.9514633305028,
20,['1'],TMTstop-A_1_2linestimulus17.png,TMTstop-A_1_2greenlinestimulus17.png,TMTstop-A_1_2redlinestimulus17.png,None,TMTstop-A_1_2.xlsx,26:52,1,,,,,,,,,0,1,1,1,0,19,19,19,,,,,,,,,,,,,,,132,33.688755100010894,None,['1'],1,[0.03510950005147606],33.688755100010894,None,,001,2022_Jan_24_1444,TMTAstop-A,2021.2.3,59.9514633305028,
21,['2'],TMTstop-A_1_2linestimulus18.png,TMTstop-A_1_2greenlinestimulus18.png,TMTstop-A_1_2redlinestimulus18.png,None,TMTstop-A_1_2.xlsx,26:52,2,,,,,,,,,0,1,1,1,0,20,20,20,,,,,,,,,,,,,,,133,33.80554759991355,None,['2'],1,[-0.008773299981839955],33.80554759991355,None,,001,2022_Jan_24_1444,TMTAstop-A,2021.2.3,59.9514633305028,
22,['1'],TMTstop-A_1_2linestimulus19.png,TMTstop-A_1_2greenlinestimulus19.png,TMTstop-A_1_2redlinestimulus19.png,None,TMTstop-A_1_2.xlsx,26:52,1,,,,,,,,,0,1,1,1,0,21,21,21,,,,,,,,,,,,,,,137,33.88938279997092,None,"['3', '1']",1,"[0.012287399964407086, 0.160022999974899]",33.88938279997092,None,,001,2022_Jan_24_1444,TMTAstop-A,2021.2.3,59.9514633305028,
23,['2'],TMTstop-A_1_2linestimulus20.png,TMTstop-A_1_2greenlinestimulus20.png,TMTstop-A_1_2redlinestimulus20.png,None,TMTstop-A_1_2.xlsx,26:52,2,,,,,,,,,0,1,1,1,0,22,22,22,,,,,,,,,,,,,,,138,34.15581249992829,None,['2'],1,[-0.03767130000051111],34.15581249992829,None,,001,2022_Jan_24_1444,TMTAstop-A,2021.2.3,59.9514633305028,
24,['1'],TMTstop-A_1_2linestimulus21.png,TMTstop-A_1_2greenlinestimulus21.png,TMTstop-A_1_2redlinestimulus21.png,None,TMTstop-A_1_2.xlsx,26:52,1,,,,,,,,,0,1,1,1,0,23,23,23,,,,,,,,,,,,,,,142,34.239352499949746,None,"['3', '1']",1,"[-0.003760899999178946, 0.14250800001900643]",34.239352499949746,None,,001,2022_Jan_24_1444,TMTAstop-A,2021.2.3,59.9514633305028,
25,['2'],TMTstop-A_1_2linestimulus22.png,TMTstop-A_1_2greenlinestimulus22.png,TMTstop-A_1_2redlinestimulus22.png,None,TMTstop-A_1_2.xlsx,26:52,2,,,,,,,,,0,1,1,1,0,24,24,24,,,,,,,,,,,,,,,143,34.473011999973096,None,['2'],1,[-0.027703700005076826],34.473011999973096,None,,001,2022_Jan_24_1444,TMTAstop-A,2021.2.3,59.9514633305028,
None,None,TMTstop-A_1_2linestimulus23.png,TMTstop-A_1_2greenlinestimulus23.png,TMTstop-A_1_2redlinestimulus23.png,None,TMTstop-A_1_2.xlsx,26:52,None,,,,,,,,,0,1,1,1,0,25,25,25,,,,,,,,,,,,,,,,34.555917499936186,None,"['3', '1', '2']",0,"[0.038720199954696, 0.20981429994571954, 0.30714519997127354]",34.555917499936186,None,,001,2022_Jan_24_1444,TMTAstop-A,2021.2.3,59.9514633305028,
,,,,,,TMTstop-A_1_2.xlsx,26:52,,,,,,,,,,0,1,1,1,,,,,,,,,,,,,,,,,,,,,,,,,,,,001,2022_Jan_24_1444,TMTAstop-A,2021.2.3,59.9514633305028,
1,['2'],TMTstop-A_1_3.png,TMTstop-A_1_3.png,TMTstop-A_1_3.png,10,TMTstop-A_1_3.xlsx,52:78,2,,,,,,,,,0,2,2,2,0,0,0,0,,,,,,,,,,,,,,,167,38.64111650001723,None,"['1', '2']",1,"[0.5544245999772102, 0.6822479999391362]",38.64111650001723,None,,001,2022_Jan_24_1444,TMTAstop-A,2021.2.3,59.9514633305028,
2,['1'],TMTstop-A_1_3.png,TMTstop-A_1_3firstgreen.png,TMTstop-A_1_3firstred.png,10,TMTstop-A_1_3.xlsx,52:78,1,,,,,,,,,0,2,2,2,0,1,1,1,,,,,,,,,,,,,,,171,39.44129639992025,None,"['3', '1']",1,"[-0.0246671000495553, 0.14017060003243387]",39.44129639992025,None,,001,2022_Jan_24_1444,TMTAstop-A,2021.2.3,59.9514633305028,
3,['3'],TMTstop-A_1_3linestimulus0.png,TMTstop-A_1_3greenlinestimulus0.png,TMTstop-A_1_3redlinestimulus0.png,10,TMTstop-A_1_3.xlsx,52:78,3,,,,,,,,,0,2,2,2,0,2,2,2,,,,,,,,,,,,,,,174,39.675864699995145,None,"['2', '3']",1,"[-0.012602100032381713, 0.07928219996392727]",39.675864699995145,None,,001,2022_Jan_24_1444,TMTAstop-A,2021.2.3,59.9514633305028,
4,['2'],TMTstop-A_1_3linestimulus1.png,TMTstop-A_1_3greenlinestimulus1.png,TMTstop-A_1_3redlinestimulus1.png,10,TMTstop-A_1_3.xlsx,52:78,2,,,,,,,,,0,2,2,2,0,3,3,3,,,,,,,,,,,,,,,177,39.858293899917044,None,"['1', '2']",1,"[0.040802499977871776, 0.11283380002714694]",39.858293899917044,None,,001,2022_Jan_24_1444,TMTAstop-A,2021.2.3,59.9514633305028,
5,['3'],TMTstop-A_1_3linestimulus2.png,TMTstop-A_1_3greenlinestimulus2.png,TMTstop-A_1_3redlinestimulus2.png,10,TMTstop-A_1_3.xlsx,52:78,3,,,,,,,,,0,2,2,2,0,4,4,4,,,,,,,,,,,,,,,178,40.09196949994657,None,['3'],1,[-0.011566899949684739],40.09196949994657,None,,001,2022_Jan_24_1444,TMTAstop-A,2021.2.3,59.9514633305028,
6,['2'],TMTstop-A_1_3linestimulus3.png,TMTstop-A_1_3greenlinestimulus3.png,TMTstop-A_1_3redlinestimulus3.png,10,TMTstop-A_1_3.xlsx,52:78,2,,,,,,,,,0,2,2,2,0,5,5,5,,,,,,,,,,,,,,,181,40.17521329992451,None,"['1', '2']",1,"[0.03341789997648448, 0.11903489998076111]",40.17521329992451,None,,001,2022_Jan_24_1444,TMTAstop-A,2021.2.3,59.9514633305028,
7,['1'],TMTstop-A_1_3linestimulus4.png,TMTstop-A_1_3greenlinestimulus4.png,TMTstop-A_1_3redlinestimulus4.png,10,TMTstop-A_1_3.xlsx,52:78,1,,,,,,,,,0,2,2,2,0,6,6,6,,,,,,,,,,,,,,,185,40.39174599992111,None,"['3', '1']",1,"[-0.002493700012564659, 0.12258720002137125]",40.39174599992111,None,,001,2022_Jan_24_1444,TMTAstop-A,2021.2.3,59.9514633305028,
8,['2'],TMTstop-A_1_3linestimulus5.png,TMTstop-A_1_3greenlinestimulus5.png,TMTstop-A_1_3redlinestimulus5.png,10,TMTstop-A_1_3.xlsx,52:78,2,,,,,,,,,0,2,2,2,0,7,7,7,,,,,,,,,,,,,,,186,40.62546889996156,None,['2'],1,[-0.07043789990711957],40.62546889996156,None,,001,2022_Jan_24_1444,TMTAstop-A,2021.2.3,59.9514633305028,
