NumberLetter,corrAns,StimFile,Correct_StimFile,False_StimFile,DurationTrial,restartpractice.thisRepN,restartpractice.thisTrialN,restartpractice.thisN,restartpractice.thisIndex,trials_practice.thisRepN,trials_practice.thisTrialN,trials_practice.thisN,trials_practice.thisIndex,trials.thisRepN,trials.thisTrialN,trials.thisN,trials.thisIndex,Instruct.started,Instruct.stopped,image_2.started,image_2.stopped,key_resp_6.keys,key_resp_6.rt,key_resp_6.started,key_resp_6.stopped,polygon.started,polygon.stopped,Stim_practice.started,Stim_practice.stopped,key_resp_practice.keys,key_resp_practice.rt,key_resp_practice.started,key_resp_practice.stopped,text_5.started,text_5.stopped,key_resp_5.keys,key_resp_5.rt,key_resp_5.started,key_resp_5.stopped,Stim.started,Stim.stopped,key_resp_2.keys,key_resp_2.corr,key_resp_2.rt,key_resp_2.started,key_resp_2.stopped,participant,session,date,expName,psychopyVersion,frameRate,
,,,,,,,,,,,,,,,,,,6.515306199900806,None,7.015098699834198,None,2,0.05246980022639036,7.015098699834198,None,,,,,,,,,,,,,,,,,,,,,,,001,2022_Jan_12_1638,TMTAstop-A,2021.2.3,144.1077926712815,
1,['1'],TMTstop-A_1_practice.png,TMTstop-A_1_practice.png,TMTstop-A_1_practice.png,10,0,0,0,0,0,0,0,0,,,,,,,,,,,,,7.085961799835786,None,10.134277499979362,None,1,0.36743069998919964,10.134277499979362,None,,,,,,,,,,,,,,,001,2022_Jan_12_1638,TMTAstop-A,2021.2.3,144.1077926712815,
2,['2'],TMTstop-A_1_practice.png,TMTstop-A_1_practicefirstgreen.png,TMTstop-A_1_practicefirstred.png,10,0,0,0,0,0,1,1,1,,,,,,,,,,,,,,,10.599676099838689,None,2,0.05185940000228584,10.599676099838689,None,,,,,,,,,,,,,,,001,2022_Jan_12_1638,TMTAstop-A,2021.2.3,144.1077926712815,
3,['3'],TMTstop-A_1_practicelinestimulus0.png,TMTstop-A_1_practicegreenlinestimulus0.png,TMTstop-A_1_practiceredlinestimulus0.png,10,0,0,0,0,0,2,2,2,,,,,,,,,,,,,,,10.724957400001585,None,3,0.3308399999514222,10.724957400001585,None,,,,,,,,,,,,,,,001,2022_Jan_12_1638,TMTAstop-A,2021.2.3,144.1077926712815,
4,['1'],TMTstop-A_1_practicelinestimulus1.png,TMTstop-A_1_practicegreenlinestimulus1.png,TMTstop-A_1_practiceredlinestimulus1.png,10,0,0,0,0,0,3,3,3,,,,,,,,,,,,,,,11.15022029983811,None,1,0.04593720007687807,11.15022029983811,None,,,,,,,,,,,,,,,001,2022_Jan_12_1638,TMTAstop-A,2021.2.3,144.1077926712815,
5,['2'],TMTstop-A_1_practicelinestimulus2.png,TMTstop-A_1_practicegreenlinestimulus2.png,TMTstop-A_1_practiceredlinestimulus2.png,10,0,0,0,0,0,4,4,4,,,,,,,,,,,,,,,11.27391539979726,None,2,0.2894096001982689,11.27391539979726,None,,,,,,,,,,,,,,,001,2022_Jan_12_1638,TMTAstop-A,2021.2.3,144.1077926712815,
6,['3'],TMTstop-A_1_practicelinestimulus3.png,TMTstop-A_1_practicegreenlinestimulus3.png,TMTstop-A_1_practiceredlinestimulus3.png,10,0,0,0,0,0,5,5,5,,,,,,,,,,,,,,,11.64918589987792,None,3,0.34938609995879233,11.64918589987792,None,,,,,,,,,,,,,,,001,2022_Jan_12_1638,TMTAstop-A,2021.2.3,144.1077926712815,
7,['1'],TMTstop-A_1_practicelinestimulus4.png,TMTstop-A_1_practicegreenlinestimulus4.png,TMTstop-A_1_practiceredlinestimulus4.png,10,0,0,0,0,0,6,6,6,,,,,,,,,,,,,,,12.107198199955747,None,1,0.04968349984847009,12.107198199955747,None,,,,,,,,,,,,,,,001,2022_Jan_12_1638,TMTAstop-A,2021.2.3,144.1077926712815,
8,['3'],TMTstop-A_1_practicelinestimulus5.png,TMTstop-A_1_practicegreenlinestimulus5.png,TMTstop-A_1_practiceredlinestimulus5.png,10,0,0,0,0,0,7,7,7,,,,,,,,,,,,,,,12.224998999852687,None,3,0.1405633999966085,12.224998999852687,None,,,,,,,,,,,,,,,001,2022_Jan_12_1638,TMTAstop-A,2021.2.3,144.1077926712815,
9,['2'],TMTstop-A_1_practicelinestimulus6.png,TMTstop-A_1_practicegreenlinestimulus6.png,TMTstop-A_1_practiceredlinestimulus6.png,10,0,0,0,0,0,8,8,8,,,,,,,,,,,,,,,12.442091399803758,None,2,0.12030810001306236,12.442091399803758,None,,,,,,,,,,,,,,,001,2022_Jan_12_1638,TMTAstop-A,2021.2.3,144.1077926712815,
10,['3'],TMTstop-A_1_practicelinestimulus7.png,TMTstop-A_1_practicegreenlinestimulus7.png,TMTstop-A_1_practiceredlinestimulus7.png,10,0,0,0,0,0,9,9,9,,,,,,,,,,,,,,,12.662459099898115,None,3,0.020716199884191155,12.662459099898115,None,,,,,,,,,,,,,,,001,2022_Jan_12_1638,TMTAstop-A,2021.2.3,144.1077926712815,
11,['1'],TMTstop-A_1_practicelinestimulus8.png,TMTstop-A_1_practicegreenlinestimulus8.png,TMTstop-A_1_practiceredlinestimulus8.png,10,0,0,0,0,0,10,10,10,,,,,,,,,,,,,,,12.76145839993842,None,1,0.048430200200527906,12.76145839993842,None,,,,,,,,,,,,,,,001,2022_Jan_12_1638,TMTAstop-A,2021.2.3,144.1077926712815,
12,['2'],TMTstop-A_1_practicelinestimulus9.png,TMTstop-A_1_practicegreenlinestimulus9.png,TMTstop-A_1_practiceredlinestimulus9.png,10,0,0,0,0,0,11,11,11,,,,,,,,,,,,,,,12.884744399925694,None,2,0.015872699907049537,12.884744399925694,None,,,,,,,,,,,,,,,001,2022_Jan_12_1638,TMTAstop-A,2021.2.3,144.1077926712815,
None,None,TMTstop-A_1_practicelinestimulus10.png,TMTstop-A_1_practicegreenlinestimulus10.png,TMTstop-A_1_practiceredlinestimulus10.png,None,0,0,0,0,0,12,12,12,,,,,,,,,,,,,,,12.981888599926606,None,3,0.02888539992272854,12.981888599926606,None,,,,,,,,,,,,,,,001,2022_Jan_12_1638,TMTAstop-A,2021.2.3,144.1077926712815,
,,,,,,0,0,0,0,,,,,,,,,,,,,,,,,,,,,,,,,14.083754999795929,None,x,1.7596781000029296,14.083754999795929,None,,,,,,,,,001,2022_Jan_12_1638,TMTAstop-A,2021.2.3,144.1077926712815,
1,['1'],TMTstop-A_1_practice.png,TMTstop-A_1_practice.png,TMTstop-A_1_practice.png,10,1,0,1,0,0,0,0,0,,,,,,,,,,,,,,,15.898168499814346,None,1,1.2842498000245541,15.898168499814346,None,,,,,,,,,,,,,,,001,2022_Jan_12_1638,TMTAstop-A,2021.2.3,144.1077926712815,
2,['2'],TMTstop-A_1_practice.png,TMTstop-A_1_practicefirstgreen.png,TMTstop-A_1_practicefirstred.png,10,1,0,1,0,0,1,1,1,,,,,,,,,,,,,,,17.253599099814892,None,2,0.17783170007169247,17.253599099814892,None,,,,,,,,,,,,,,,001,2022_Jan_12_1638,TMTAstop-A,2021.2.3,144.1077926712815,
3,['3'],TMTstop-A_1_practicelinestimulus0.png,TMTstop-A_1_practicegreenlinestimulus0.png,TMTstop-A_1_practiceredlinestimulus0.png,10,1,0,1,0,0,2,2,2,,,,,,,,,,,,,,,17.51640629977919,None,3,0.566343299811706,17.51640629977919,None,,,,,,,,,,,,,,,001,2022_Jan_12_1638,TMTAstop-A,2021.2.3,144.1077926712815,
4,['1'],TMTstop-A_1_practicelinestimulus1.png,TMTstop-A_1_practicegreenlinestimulus1.png,TMTstop-A_1_practiceredlinestimulus1.png,10,1,0,1,0,0,3,3,3,,,,,,,,,,,,,,,18.162594199879095,None,1,0.10778390010818839,18.162594199879095,None,,,,,,,,,,,,,,,001,2022_Jan_12_1638,TMTAstop-A,2021.2.3,144.1077926712815,
5,['2'],TMTstop-A_1_practicelinestimulus2.png,TMTstop-A_1_practicegreenlinestimulus2.png,TMTstop-A_1_practiceredlinestimulus2.png,10,1,0,1,0,0,4,4,4,,,,,,,,,,,,,,,18.343088899971917,None,2,0.00633669993840158,18.343088899971917,None,,,,,,,,,,,,,,,001,2022_Jan_12_1638,TMTAstop-A,2021.2.3,144.1077926712815,
6,['3'],TMTstop-A_1_practicelinestimulus3.png,TMTstop-A_1_practicegreenlinestimulus3.png,TMTstop-A_1_practiceredlinestimulus3.png,10,1,0,1,0,0,5,5,5,,,,,,,,,,,,,,,18.426152399973944,None,3,0.023841700050979853,18.426152399973944,None,,,,,,,,,,,,,,,001,2022_Jan_12_1638,TMTAstop-A,2021.2.3,144.1077926712815,
7,['1'],TMTstop-A_1_practicelinestimulus4.png,TMTstop-A_1_practicegreenlinestimulus4.png,TMTstop-A_1_practiceredlinestimulus4.png,10,1,0,1,0,0,6,6,6,,,,,,,,,,,,,,,18.530601699836552,None,1,0.0679880001116544,18.530601699836552,None,,,,,,,,,,,,,,,001,2022_Jan_12_1638,TMTAstop-A,2021.2.3,144.1077926712815,
8,['3'],TMTstop-A_1_practicelinestimulus5.png,TMTstop-A_1_practicegreenlinestimulus5.png,TMTstop-A_1_practiceredlinestimulus5.png,10,1,0,1,0,0,7,7,7,,,,,,,,,,,,,,,18.670064899837598,None,3,0.10854779998771846,18.670064899837598,None,,,,,,,,,,,,,,,001,2022_Jan_12_1638,TMTAstop-A,2021.2.3,144.1077926712815,
9,['2'],TMTstop-A_1_practicelinestimulus6.png,TMTstop-A_1_practicegreenlinestimulus6.png,TMTstop-A_1_practiceredlinestimulus6.png,10,1,0,1,0,0,8,8,8,,,,,,,,,,,,,,,18.849984799977392,None,2,1.1349003999494016,18.849984799977392,None,,,,,,,,,,,,,,,001,2022_Jan_12_1638,TMTAstop-A,2021.2.3,144.1077926712815,
10,['3'],TMTstop-A_1_practicelinestimulus7.png,TMTstop-A_1_practicegreenlinestimulus7.png,TMTstop-A_1_practiceredlinestimulus7.png,10,1,0,1,0,0,9,9,9,,,,,,,,,,,,,,,20.072084999876097,None,3,0.10939290001988411,20.072084999876097,None,,,,,,,,,,,,,,,001,2022_Jan_12_1638,TMTAstop-A,2021.2.3,144.1077926712815,
11,['1'],TMTstop-A_1_practicelinestimulus8.png,TMTstop-A_1_practicegreenlinestimulus8.png,TMTstop-A_1_practiceredlinestimulus8.png,10,1,0,1,0,0,10,10,10,,,,,,,,,,,,,,,20.252809999976307,None,1,0.33164280001074076,20.252809999976307,None,,,,,,,,,,,,,,,001,2022_Jan_12_1638,TMTAstop-A,2021.2.3,144.1077926712815,
12,['2'],TMTstop-A_1_practicelinestimulus9.png,TMTstop-A_1_practicegreenlinestimulus9.png,TMTstop-A_1_practiceredlinestimulus9.png,10,1,0,1,0,0,11,11,11,,,,,,,,,,,,,,,20.65531719988212,None,2,0.1474744000006467,20.65531719988212,None,,,,,,,,,,,,,,,001,2022_Jan_12_1638,TMTAstop-A,2021.2.3,144.1077926712815,
None,None,TMTstop-A_1_practicelinestimulus10.png,TMTstop-A_1_practicegreenlinestimulus10.png,TMTstop-A_1_practiceredlinestimulus10.png,None,1,0,1,0,0,12,12,12,,,,,,,,,,,,,,,20.877629599999636,None,3,0.06341749988496304,20.877629599999636,None,,,,,,,,,,,,,,,001,2022_Jan_12_1638,TMTAstop-A,2021.2.3,144.1077926712815,
,,,,,,1,0,1,0,,,,,,,,,,,,,,,,,,,,,,,,,21.97286369977519,None,2,1.8269126999657601,21.97286369977519,None,,,,,,,,,001,2022_Jan_12_1638,TMTAstop-A,2021.2.3,144.1077926712815,
1,['2'],TMTstop-A_1_1.png,TMTstop-A_1_1.png,TMTstop-A_1_1.png,10,,,,,,,,,0,0,0,0,,,,,,,,,23.895674199797213,None,,,,,,,,,,,,,26.85635679983534,None,"['1', '2']",1,"[0.377672899980098, 0.5144813999067992]",26.85635679983534,None,,001,2022_Jan_12_1638,TMTAstop-A,2021.2.3,144.1077926712815,
2,['1'],TMTstop-A_1_1.png,TMTstop-A_1_1firstgreen.png,TMTstop-A_1_1firstred.png,10,,,,,,,,,0,1,1,1,,,,,,,,,,,,,,,,,,,,,,,27.48903159983456,None,"['3', '1']",1,"[-0.031695100013166666, 0.14814390009269118]",27.48903159983456,None,,001,2022_Jan_12_1638,TMTAstop-A,2021.2.3,144.1077926712815,
3,['2'],TMTstop-A_1_1linestimulus0.png,TMTstop-A_1_1greenlinestimulus0.png,TMTstop-A_1_1redlinestimulus0.png,10,,,,,,,,,0,2,2,2,,,,,,,,,,,,,,,,,,,,,,,27.72488179989159,None,['2'],1,[-0.03758700005710125],27.72488179989159,None,,001,2022_Jan_12_1638,TMTAstop-A,2021.2.3,144.1077926712815,
4,['3'],TMTstop-A_1_1linestimulus1.png,TMTstop-A_1_1greenlinestimulus1.png,TMTstop-A_1_1redlinestimulus1.png,10,,,,,,,,,0,3,3,3,,,,,,,,,,,,,,,,,,,,,,,27.808072099927813,None,['3'],1,[-0.024742400040850043],27.808072099927813,None,,001,2022_Jan_12_1638,TMTAstop-A,2021.2.3,144.1077926712815,
5,['2'],TMTstop-A_1_1linestimulus2.png,TMTstop-A_1_1greenlinestimulus2.png,TMTstop-A_1_1redlinestimulus2.png,10,,,,,,,,,0,4,4,4,,,,,,,,,,,,,,,,,,,,,,,27.885040199849755,None,"['1', '2']",1,"[0.05927910003811121, 0.1044435000512749]",27.885040199849755,None,,001,2022_Jan_12_1638,TMTAstop-A,2021.2.3,144.1077926712815,
6,['3'],TMTstop-A_1_1linestimulus3.png,TMTstop-A_1_1greenlinestimulus3.png,TMTstop-A_1_1redlinestimulus3.png,10,,,,,,,,,0,5,5,5,,,,,,,,,,,,,,,,,,,,,,,28.065735999960452,None,['3'],1,[0.07840819982811809],28.065735999960452,None,,001,2022_Jan_12_1638,TMTAstop-A,2021.2.3,144.1077926712815,
7,['2'],TMTstop-A_1_1linestimulus4.png,TMTstop-A_1_1greenlinestimulus4.png,TMTstop-A_1_1redlinestimulus4.png,10,,,,,,,,,0,6,6,6,,,,,,,,,,,,,,,,,,,,,,,28.22530149994418,None,"['1', '2']",1,"[0.06675950018689036, 0.13286280003376305]",28.22530149994418,None,,001,2022_Jan_12_1638,TMTAstop-A,2021.2.3,144.1077926712815,
8,['1'],TMTstop-A_1_1linestimulus5.png,TMTstop-A_1_1greenlinestimulus5.png,TMTstop-A_1_1redlinestimulus5.png,10,,,,,,,,,0,7,7,7,,,,,,,,,,,,,,,,,,,,,,,28.461003799922764,None,"['3', '1']",1,"[0.014042899943888187, 0.1496144998818636]",28.461003799922764,None,,001,2022_Jan_12_1638,TMTAstop-A,2021.2.3,144.1077926712815,
9,['2'],TMTstop-A_1_1linestimulus6.png,TMTstop-A_1_1greenlinestimulus6.png,TMTstop-A_1_1redlinestimulus6.png,10,,,,,,,,,0,8,8,8,,,,,,,,,,,,,,,,,,,,,,,28.711066799936816,None,['2'],1,[-0.046563199954107404],28.711066799936816,None,,001,2022_Jan_12_1638,TMTAstop-A,2021.2.3,144.1077926712815,
10,['1'],TMTstop-A_1_1linestimulus7.png,TMTstop-A_1_1greenlinestimulus7.png,TMTstop-A_1_1redlinestimulus7.png,10,,,,,,,,,0,9,9,9,,,,,,,,,,,,,,,,,,,,,,,28.787117299856618,None,"['3', '1']",1,"[-0.02138260006904602, 0.1267199998255819]",28.787117299856618,None,,001,2022_Jan_12_1638,TMTAstop-A,2021.2.3,144.1077926712815,
11,['2'],TMTstop-A_1_1linestimulus8.png,TMTstop-A_1_1greenlinestimulus8.png,TMTstop-A_1_1redlinestimulus8.png,10,,,,,,,,,0,10,10,10,,,,,,,,,,,,,,,,,,,,,,,29.05952679994516,None,['2'],1,[-0.08919790014624596],29.05952679994516,None,,001,2022_Jan_12_1638,TMTAstop-A,2021.2.3,144.1077926712815,
12,['3'],TMTstop-A_1_1linestimulus9.png,TMTstop-A_1_1greenlinestimulus9.png,TMTstop-A_1_1redlinestimulus9.png,10,,,,,,,,,0,11,11,11,,,,,,,,,,,,,,,,,,,,,,,29.134655399946496,None,['3'],1,[-0.06274209986440837],29.134655399946496,None,,001,2022_Jan_12_1638,TMTAstop-A,2021.2.3,144.1077926712815,
13,['2'],TMTstop-A_1_1linestimulus10.png,TMTstop-A_1_1greenlinestimulus10.png,TMTstop-A_1_1redlinestimulus10.png,1,,,,,,,,,0,12,12,12,,,,,,,,,,,,,,,,,,,,,,,29.210710499901325,None,"['1', '2']",1,"[0.013407600112259388, 0.10789950005710125]",29.210710499901325,None,,001,2022_Jan_12_1638,TMTAstop-A,2021.2.3,144.1077926712815,
14,['3'],TMTstop-A_1_1linestimulus11.png,TMTstop-A_1_1greenlinestimulus11.png,TMTstop-A_1_1redlinestimulus11.png,None,,,,,,,,,0,13,13,13,,,,,,,,,,,,,,,,,,,,,,,29.419458699878305,None,['3'],1,[-0.031643500085920095],29.419458699878305,None,,001,2022_Jan_12_1638,TMTAstop-A,2021.2.3,144.1077926712815,
15,['1'],TMTstop-A_1_1linestimulus12.png,TMTstop-A_1_1greenlinestimulus12.png,TMTstop-A_1_1redlinestimulus12.png,None,,,,,,,,,0,14,14,14,,,,,,,,,,,,,,,,,,,,,,,29.495846999809146,None,['1'],1,[0.02054099994711578],29.495846999809146,None,,001,2022_Jan_12_1638,TMTAstop-A,2021.2.3,144.1077926712815,
16,['3'],TMTstop-A_1_1linestimulus13.png,TMTstop-A_1_1greenlinestimulus13.png,TMTstop-A_1_1redlinestimulus13.png,None,,,,,,,,,0,15,15,15,,,,,,,,,,,,,,,,,,,,,,,29.599819799885154,None,"['2', '3']",1,"[-0.022570000030100346, 0.2352928000036627]",29.599819799885154,None,,001,2022_Jan_12_1638,TMTAstop-A,2021.2.3,144.1077926712815,
17,['2'],TMTstop-A_1_1linestimulus14.png,TMTstop-A_1_1greenlinestimulus14.png,TMTstop-A_1_1redlinestimulus14.png,None,,,,,,,,,0,16,16,16,,,,,,,,,,,,,,,,,,,,,,,29.926296199904755,None,"['1', '2']",1,"[0.038002800196409225, 0.13309690007008612]",29.926296199904755,None,,001,2022_Jan_12_1638,TMTAstop-A,2021.2.3,144.1077926712815,
18,['3'],TMTstop-A_1_1linestimulus15.png,TMTstop-A_1_1greenlinestimulus15.png,TMTstop-A_1_1redlinestimulus15.png,None,,,,,,,,,0,17,17,17,,,,,,,,,,,,,,,,,,,,,,,30.162032599793747,None,['3'],1,[0.012455900199711323],30.162032599793747,None,,001,2022_Jan_12_1638,TMTAstop-A,2021.2.3,144.1077926712815,
19,['1'],TMTstop-A_1_1linestimulus16.png,TMTstop-A_1_1greenlinestimulus16.png,TMTstop-A_1_1redlinestimulus16.png,None,,,,,,,,,0,18,18,18,,,,,,,,,,,,,,,,,,,,,,,30.246070900000632,None,['1'],1,[0.07543289987370372],30.246070900000632,None,,001,2022_Jan_12_1638,TMTAstop-A,2021.2.3,144.1077926712815,
20,['3'],TMTstop-A_1_1linestimulus17.png,TMTstop-A_1_1greenlinestimulus17.png,TMTstop-A_1_1redlinestimulus17.png,None,,,,,,,,,0,19,19,19,,,,,,,,,,,,,,,,,,,,,,,30.4051994998008,None,"['2', '3']",1,"[-0.025490100029855967, 0.08971420000307262]",30.4051994998008,None,,001,2022_Jan_12_1638,TMTAstop-A,2021.2.3,144.1077926712815,
21,['1'],TMTstop-A_1_1linestimulus18.png,TMTstop-A_1_1greenlinestimulus18.png,TMTstop-A_1_1redlinestimulus18.png,None,,,,,,,,,0,20,20,20,,,,,,,,,,,,,,,,,,,,,,,30.606672199908644,None,['1'],1,[0.029809500090777874],30.606672199908644,None,,001,2022_Jan_12_1638,TMTAstop-A,2021.2.3,144.1077926712815,
22,['3'],TMTstop-A_1_1linestimulus19.png,TMTstop-A_1_1greenlinestimulus19.png,TMTstop-A_1_1redlinestimulus19.png,None,,,,,,,,,0,21,21,21,,,,,,,,,,,,,,,,,,,,,,,30.717897599795833,None,"['2', '3']",1,"[-0.027212999993935227, 0.0972961001098156]",30.717897599795833,None,,001,2022_Jan_12_1638,TMTAstop-A,2021.2.3,144.1077926712815,
23,['1'],TMTstop-A_1_1linestimulus20.png,TMTstop-A_1_1greenlinestimulus20.png,TMTstop-A_1_1redlinestimulus20.png,None,,,,,,,,,0,22,22,22,,,,,,,,,,,,,,,,,,,,,,,30.919145199935883,None,['1'],1,[0.0328426999039948],30.919145199935883,None,,001,2022_Jan_12_1638,TMTAstop-A,2021.2.3,144.1077926712815,
24,['2'],TMTstop-A_1_1linestimulus21.png,TMTstop-A_1_1greenlinestimulus21.png,TMTstop-A_1_1redlinestimulus21.png,None,,,,,,,,,0,23,23,23,,,,,,,,,,,,,,,,,,,,,,,31.03721829992719,None,['2'],1,[-0.010450099827721715],31.03721829992719,None,,001,2022_Jan_12_1638,TMTAstop-A,2021.2.3,144.1077926712815,
25,['3'],TMTstop-A_1_1linestimulus22.png,TMTstop-A_1_1greenlinestimulus22.png,TMTstop-A_1_1redlinestimulus22.png,None,,,,,,,,,0,24,24,24,,,,,,,,,,,,,,,,,,,,,,,31.113961499882862,None,['3'],1,[0.6261227000504732],31.113961499882862,None,,001,2022_Jan_12_1638,TMTAstop-A,2021.2.3,144.1077926712815,
None,None,TMTstop-A_1_1linestimulus23.png,TMTstop-A_1_1greenlinestimulus23.png,TMTstop-A_1_1redlinestimulus23.png,None,,,,,,,,,0,25,25,25,,,,,,,,,,,,,,,,,,,,,,,31.814989999867976,None,None,1,,31.814989999867976,None,,001,2022_Jan_12_1638,TMTAstop-A,2021.2.3,144.1077926712815,
1,['2'],TMTstop-A_1_1.png,TMTstop-A_1_1.png,TMTstop-A_1_1.png,10,,,,,,,,,1,0,26,0,,,,,,,,,,,,,,,,,,,,,,,32.87728899996728,None,"['3', '1', '2']",1,"[0.5502392998896539, 0.6860767998732626, 0.7892330999020487]",32.87728899996728,None,,001,2022_Jan_12_1638,TMTAstop-A,2021.2.3,144.1077926712815,
2,['1'],TMTstop-A_1_1.png,TMTstop-A_1_1firstgreen.png,TMTstop-A_1_1firstred.png,10,,,,,,,,,1,1,27,1,,,,,,,,,,,,,,,,,,,,,,,33.766107599949464,None,"['3', '1']",1,"[0.023266799980774522, 0.1764295999892056]",33.766107599949464,None,,001,2022_Jan_12_1638,TMTAstop-A,2021.2.3,144.1077926712815,
3,['2'],TMTstop-A_1_1linestimulus0.png,TMTstop-A_1_1greenlinestimulus0.png,TMTstop-A_1_1redlinestimulus0.png,10,,,,,,,,,1,2,28,2,,,,,,,,,,,,,,,,,,,,,,,34.023209099890664,None,['2'],1,[-0.04162240005098283],34.023209099890664,None,,001,2022_Jan_12_1638,TMTAstop-A,2021.2.3,144.1077926712815,
4,['3'],TMTstop-A_1_1linestimulus1.png,TMTstop-A_1_1greenlinestimulus1.png,TMTstop-A_1_1redlinestimulus1.png,10,,,,,,,,,1,3,29,3,,,,,,,,,,,,,,,,,,,,,,,34.092590999789536,None,['3'],1,[0.02713089995086193],34.092590999789536,None,,001,2022_Jan_12_1638,TMTAstop-A,2021.2.3,144.1077926712815,
5,['2'],TMTstop-A_1_1linestimulus2.png,TMTstop-A_1_1greenlinestimulus2.png,TMTstop-A_1_1redlinestimulus2.png,10,,,,,,,,,1,4,30,4,,,,,,,,,,,,,,,,,,,,,,,34.190059499815106,None,"['1', '2']",1,"[0.0848511999938637, 0.12625149986706674]",34.190059499815106,None,,001,2022_Jan_12_1638,TMTAstop-A,2021.2.3,144.1077926712815,
6,['3'],TMTstop-A_1_1linestimulus3.png,TMTstop-A_1_1greenlinestimulus3.png,TMTstop-A_1_1redlinestimulus3.png,10,,,,,,,,,1,5,31,5,,,,,,,,,,,,,,,,,,,,,,,34.39147699996829,None,['3'],1,[0.062020699959248304],34.39147699996829,None,,001,2022_Jan_12_1638,TMTAstop-A,2021.2.3,144.1077926712815,
7,['2'],TMTstop-A_1_1linestimulus4.png,TMTstop-A_1_1greenlinestimulus4.png,TMTstop-A_1_1redlinestimulus4.png,10,,,,,,,,,1,6,32,6,,,,,,,,,,,,,,,,,,,,,,,34.53032469982281,None,"['1', '2']",1,"[0.13219040003605187, 0.145946100121364]",34.53032469982281,None,,001,2022_Jan_12_1638,TMTAstop-A,2021.2.3,144.1077926712815,
8,['1'],TMTstop-A_1_1linestimulus5.png,TMTstop-A_1_1greenlinestimulus5.png,TMTstop-A_1_1redlinestimulus5.png,10,,,,,,,,,1,7,33,7,,,,,,,,,,,,,,,,,,,,,,,34.780197399901226,None,"['3', '1']",1,"[0.032862799940630794, 0.21628910000436008]",34.780197399901226,None,,001,2022_Jan_12_1638,TMTAstop-A,2021.2.3,144.1077926712815,
9,['2'],TMTstop-A_1_1linestimulus6.png,TMTstop-A_1_1greenlinestimulus6.png,TMTstop-A_1_1redlinestimulus6.png,10,,,,,,,,,1,8,34,8,,,,,,,,,,,,,,,,,,,,,,,35.09977119998075,None,['2'],1,[-0.02343040006235242],35.09977119998075,None,,001,2022_Jan_12_1638,TMTAstop-A,2021.2.3,144.1077926712815,
10,['1'],TMTstop-A_1_1linestimulus7.png,TMTstop-A_1_1greenlinestimulus7.png,TMTstop-A_1_1redlinestimulus7.png,10,,,,,,,,,1,9,35,9,,,,,,,,,,,,,,,,,,,,,,,35.16988359997049,None,"['3', '3', '3', '1']",1,"[-0.021341799991205335, 0.27870249981060624, 0.4811662998981774, 0.63382270000875]",35.16988359997049,None,,001,2022_Jan_12_1638,TMTAstop-A,2021.2.3,144.1077926712815,
11,['2'],TMTstop-A_1_1linestimulus8.png,TMTstop-A_1_1greenlinestimulus8.png,TMTstop-A_1_1redlinestimulus8.png,10,,,,,,,,,1,10,36,10,,,,,,,,,,,,,,,,,,,,,,,35.91901669977233,None,"['1', '1', '2']",1,"[0.15128679992631078, 0.3941095001064241, 0.5689022999722511]",35.91901669977233,None,,001,2022_Jan_12_1638,TMTAstop-A,2021.2.3,144.1077926712815,
12,['3'],TMTstop-A_1_1linestimulus9.png,TMTstop-A_1_1greenlinestimulus9.png,TMTstop-A_1_1redlinestimulus9.png,10,,,,,,,,,1,11,37,11,,,,,,,,,,,,,,,,,,,,,,,36.57272719987668,None,"['2', '2', '2', '3']",1,"[0.15768889989703894, 0.3404792998917401, 0.5523129000794142, 0.7880903000477701]",36.57272719987668,None,,001,2022_Jan_12_1638,TMTAstop-A,2021.2.3,144.1077926712815,
13,['2'],TMTstop-A_1_1linestimulus10.png,TMTstop-A_1_1greenlinestimulus10.png,TMTstop-A_1_1redlinestimulus10.png,1,,,,,,,,,1,12,38,12,,,,,,,,,,,,,,,,,,,,,,,37.4604926998727,None,"['1', '2']",1,"[0.10212030005641282, 0.1788876000791788]",37.4604926998727,None,,001,2022_Jan_12_1638,TMTAstop-A,2021.2.3,144.1077926712815,
14,['3'],TMTstop-A_1_1linestimulus11.png,TMTstop-A_1_1greenlinestimulus11.png,TMTstop-A_1_1redlinestimulus11.png,None,,,,,,,,,1,13,39,13,,,,,,,,,,,,,,,,,,,,,,,37.72451079986058,None,['3'],1,[0.03427970013581216],37.72451079986058,None,,001,2022_Jan_12_1638,TMTAstop-A,2021.2.3,144.1077926712815,
15,['1'],TMTstop-A_1_1linestimulus12.png,TMTstop-A_1_1greenlinestimulus12.png,TMTstop-A_1_1redlinestimulus12.png,None,,,,,,,,,1,14,40,14,,,,,,,,,,,,,,,,,,,,,,,37.843358899932355,None,['1'],1,[0.06667379988357425],37.843358899932355,None,,001,2022_Jan_12_1638,TMTAstop-A,2021.2.3,144.1077926712815,
16,['3'],TMTstop-A_1_1linestimulus13.png,TMTstop-A_1_1greenlinestimulus13.png,TMTstop-A_1_1redlinestimulus13.png,None,,,,,,,,,1,15,41,15,,,,,,,,,,,,,,,,,,,,,,,37.98864989983849,None,"['2', '3']",1,"[-0.014190600020810962, 0.07080890005454421]",37.98864989983849,None,,001,2022_Jan_12_1638,TMTAstop-A,2021.2.3,144.1077926712815,
17,['2'],TMTstop-A_1_1linestimulus14.png,TMTstop-A_1_1greenlinestimulus14.png,TMTstop-A_1_1redlinestimulus14.png,None,,,,,,,,,1,16,42,16,,,,,,,,,,,,,,,,,,,,,,,38.141667399788275,None,"['1', '2']",1,"[0.07834509992972016, 0.18875920004211366]",38.141667399788275,None,,001,2022_Jan_12_1638,TMTAstop-A,2021.2.3,144.1077926712815,
18,['3'],TMTstop-A_1_1linestimulus15.png,TMTstop-A_1_1greenlinestimulus15.png,TMTstop-A_1_1redlinestimulus15.png,None,,,,,,,,,1,17,43,17,,,,,,,,,,,,,,,,,,,,,,,38.41874539991841,None,['3'],1,[-0.014646699884906411],38.41874539991841,None,,001,2022_Jan_12_1638,TMTAstop-A,2021.2.3,144.1077926712815,
19,['1'],TMTstop-A_1_1linestimulus16.png,TMTstop-A_1_1greenlinestimulus16.png,TMTstop-A_1_1redlinestimulus16.png,None,,,,,,,,,1,18,44,18,,,,,,,,,,,,,,,,,,,,,,,38.49538029986434,None,['1'],1,[0.06024559983052313],38.49538029986434,None,,001,2022_Jan_12_1638,TMTAstop-A,2021.2.3,144.1077926712815,
20,['3'],TMTstop-A_1_1linestimulus17.png,TMTstop-A_1_1greenlinestimulus17.png,TMTstop-A_1_1redlinestimulus17.png,None,,,,,,,,,1,19,45,19,,,,,,,,,,,,,,,,,,,,,,,38.63445519981906,None,"['2', '3']",1,"[0.025958499871194363, 0.10555119998753071]",38.63445519981906,None,,001,2022_Jan_12_1638,TMTAstop-A,2021.2.3,144.1077926712815,
21,['1'],TMTstop-A_1_1linestimulus18.png,TMTstop-A_1_1greenlinestimulus18.png,TMTstop-A_1_1redlinestimulus18.png,None,,,,,,,,,1,20,46,20,,,,,,,,,,,,,,,,,,,,,,,38.82180209993385,None,['1'],1,[0.0910511000547558],38.82180209993385,None,,001,2022_Jan_12_1638,TMTAstop-A,2021.2.3,144.1077926712815,
22,['3'],TMTstop-A_1_1linestimulus19.png,TMTstop-A_1_1greenlinestimulus19.png,TMTstop-A_1_1redlinestimulus19.png,None,,,,,,,,,1,21,47,21,,,,,,,,,,,,,,,,,,,,,,,38.988537499913946,None,"['2', '3']",1,"[-0.018573599867522717, 0.09286270011216402]",38.988537499913946,None,,001,2022_Jan_12_1638,TMTAstop-A,2021.2.3,144.1077926712815,
23,['1'],TMTstop-A_1_1linestimulus20.png,TMTstop-A_1_1greenlinestimulus20.png,TMTstop-A_1_1redlinestimulus20.png,None,,,,,,,,,1,22,48,22,,,,,,,,,,,,,,,,,,,,,,,39.19124549999833,None,['1'],1,[0.03137089987285435],39.19124549999833,None,,001,2022_Jan_12_1638,TMTAstop-A,2021.2.3,144.1077926712815,
24,['2'],TMTstop-A_1_1linestimulus21.png,TMTstop-A_1_1greenlinestimulus21.png,TMTstop-A_1_1redlinestimulus21.png,None,,,,,,,,,1,23,49,23,,,,,,,,,,,,,,,,,,,,,,,39.30125049990602,None,['2'],1,[0.021912800148129463],39.30125049990602,None,,001,2022_Jan_12_1638,TMTAstop-A,2021.2.3,144.1077926712815,
25,['3'],TMTstop-A_1_1linestimulus22.png,TMTstop-A_1_1greenlinestimulus22.png,TMTstop-A_1_1redlinestimulus22.png,None,,,,,,,,,1,24,50,24,,,,,,,,,,,,,,,,,,,,,,,39.398290399927646,None,['3'],1,[0.6450660000555217],39.398290399927646,None,,001,2022_Jan_12_1638,TMTAstop-A,2021.2.3,144.1077926712815,
