Block_file,Condition_rows,NumberLetter,corrAns,Correct,StimFile,Correct_StimFile,False_StimFile,Version,Block,TrialNumber_session,Blocks_TMTControl.thisRepN,Blocks_TMTControl.thisTrialN,Blocks_TMTControl.thisN,Blocks_TMTControl.thisIndex,trials_TMTControl.thisRepN,trials_TMTControl.thisTrialN,trials_TMTControl.thisN,trials_TMTControl.thisIndex,Attempts,First_attempt,Stim.started,Stim.stopped,key_resp_2.keys,key_resp_2.corr,key_resp_2.rt,key_resp_2.started,key_resp_2.stopped,participant,session,date,expName,psychopyVersion,frameRate,
TMTstop-Control_1_1.xlsx,0:26,1,['2'],2,TMTstop-control_1_1.png,TMTstop-control_1_1.png,TMTstop-control_1_1.png,TMT_Control,1,1,0,0,0,0,0,0,0,0,2,0,10.468032100005075,None,"['1', '2']",1,"[0.33638909994624555, 0.44880220014601946]",10.468032100005075,None,,001,2022_Feb_02_1744,TMT_fmri,2021.2.3,144.00444707894678,
TMTstop-Control_1_1.xlsx,0:26,2,['1'],1,TMTstop-control_1_1.png,TMTstop-control_1_1firstgreen.png,TMTstop-control_1_1firstred.png,TMT_Control,1,2,0,0,0,0,0,1,1,1,2,0,11.002196099841967,None,"['3', '1']",1,"[-0.025774799985811114, 0.15024590003304183]",11.002196099841967,None,,001,2022_Feb_02_1744,TMT_fmri,2021.2.3,144.00444707894678,
TMTstop-Control_1_1.xlsx,0:26,3,['2'],2,TMTstop-control_1_1linestimulus0.png,TMTstop-control_1_1greenlinestimulus0.png,TMTstop-control_1_1redlinestimulus0.png,TMT_Control,1,3,0,0,0,0,0,2,2,2,1,1,11.237787199905142,None,['2'],1,[-0.035011200001463294],11.237787199905142,None,,001,2022_Feb_02_1744,TMT_fmri,2021.2.3,144.00444707894678,
TMTstop-Control_1_1.xlsx,0:26,4,['3'],3,TMTstop-control_1_1linestimulus1.png,TMTstop-control_1_1greenlinestimulus1.png,TMTstop-control_1_1redlinestimulus1.png,TMT_Control,1,4,0,0,0,0,0,3,3,3,1,1,11.307590099982917,None,['3'],1,[-0.016400699969381094],11.307590099982917,None,,001,2022_Feb_02_1744,TMT_fmri,2021.2.3,144.00444707894678,
TMTstop-Control_1_1.xlsx,0:26,5,['2'],2,TMTstop-control_1_1linestimulus2.png,TMTstop-control_1_1greenlinestimulus2.png,TMTstop-control_1_1redlinestimulus2.png,TMT_Control,1,5,0,0,0,0,0,4,4,4,2,0,11.383921700064093,None,"['1', '2']",1,"[0.07318929978646338, 0.09172779996879399]",11.383921700064093,None,,001,2022_Feb_02_1744,TMT_fmri,2021.2.3,144.00444707894678,
TMTstop-Control_1_1.xlsx,0:26,6,['1'],1,TMTstop-control_1_1linestimulus3.png,TMTstop-control_1_1greenlinestimulus3.png,TMTstop-control_1_1redlinestimulus3.png,TMT_Control,1,6,0,0,0,0,0,5,5,5,2,0,11.571852599969134,None,"['3', '1']",1,"[0.0034103000070899725, 0.16962160007096827]",11.571852599969134,None,,001,2022_Feb_02_1744,TMT_fmri,2021.2.3,144.00444707894678,
TMTstop-Control_1_1.xlsx,0:26,7,['3'],3,TMTstop-control_1_1linestimulus4.png,TMTstop-control_1_1greenlinestimulus4.png,TMTstop-control_1_1redlinestimulus4.png,TMT_Control,1,7,0,0,0,0,0,6,6,6,2,0,11.828299100045115,None,"['2', '3']",1,"[-0.046778300078585744, 0.049653299851343036]",11.828299100045115,None,,001,2022_Feb_02_1744,TMT_fmri,2021.2.3,144.00444707894678,
TMTstop-Control_1_1.xlsx,0:26,8,['2'],2,TMTstop-control_1_1linestimulus4.png,TMTstop-control_1_1greenlinestimulus5.png,TMTstop-control_1_1redlinestimulus5.png,TMT_Control,1,8,0,0,0,0,0,7,7,7,2,0,11.980823499849066,None,"['1', '2']",1,"[0.056488700211048126, 0.08109840005636215]",11.980823499849066,None,,001,2022_Feb_02_1744,TMT_fmri,2021.2.3,144.00444707894678,
TMTstop-Control_1_1.xlsx,0:26,9,['3'],3,TMTstop-control_1_1linestimulus6.png,TMTstop-control_1_1greenlinestimulus6.png,TMTstop-control_1_1redlinestimulus6.png,TMT_Control,1,9,0,0,0,0,0,8,8,8,1,1,12.156017999863252,None,['3'],1,[0.015385099919512868],12.156017999863252,None,,001,2022_Feb_02_1744,TMT_fmri,2021.2.3,144.00444707894678,
TMTstop-Control_1_1.xlsx,0:26,10,['2'],2,TMTstop-control_1_1linestimulus7.png,TMTstop-control_1_1greenlinestimulus7.png,TMTstop-control_1_1redlinestimulus7.png,TMT_Control,1,10,0,0,0,0,0,9,9,9,5,0,12.251671999925748,None,"['1', '2', '3', '1', '2']",1,"[0.061146199936047196, 0.20948940003290772, 0.2158272999804467, 0.3521527999546379, 0.3799926999490708]",12.251671999925748,None,,001,2022_Feb_02_1744,TMT_fmri,2021.2.3,144.00444707894678,
TMTstop-Control_1_1.xlsx,0:26,11,['3'],3,TMTstop-control_1_1linestimulus8.png,TMTstop-control_1_1greenlinestimulus8.png,TMTstop-control_1_1redlinestimulus8.png,TMT_Control,1,11,0,0,0,0,0,10,10,10,1,1,12.716945699881762,None,['3'],1,[0.03583840001374483],12.716945699881762,None,,001,2022_Feb_02_1744,TMT_fmri,2021.2.3,144.00444707894678,
TMTstop-Control_1_1.xlsx,0:26,12,['1'],1,TMTstop-control_1_1linestimulus9.png,TMTstop-control_1_1greenlinestimulus9.png,TMTstop-control_1_1redlinestimulus9.png,TMT_Control,1,12,0,0,0,0,0,11,11,11,1,1,12.828243899857625,None,['1'],1,[0.07690700003877282],12.828243899857625,None,,001,2022_Feb_02_1744,TMT_fmri,2021.2.3,144.00444707894678,
TMTstop-Control_1_1.xlsx,0:26,13,['3'],3,TMTstop-control_1_1linestimulus10.png,TMTstop-control_1_1greenlinestimulus10.png,TMTstop-control_1_1redlinestimulus10.png,TMT_Control,1,13,0,0,0,0,0,12,12,12,2,0,12.987622699933127,None,"['2', '3']",1,"[0.036483699921518564, 0.07011570013128221]",12.987622699933127,None,,001,2022_Feb_02_1744,TMT_fmri,2021.2.3,144.00444707894678,
TMTstop-Control_1_1.xlsx,0:26,14,['1'],1,TMTstop-control_1_1linestimulus11.png,TMTstop-control_1_1greenlinestimulus11.png,TMTstop-control_1_1redlinestimulus11.png,TMT_Control,1,14,0,0,0,0,0,13,13,13,1,1,13.140638999873772,None,['1'],1,[0.06340810004621744],13.140638999873772,None,,001,2022_Feb_02_1744,TMT_fmri,2021.2.3,144.00444707894678,
TMTstop-Control_1_1.xlsx,0:26,15,['3'],3,TMTstop-control_1_1linestimulus12.png,TMTstop-control_1_1greenlinestimulus12.png,TMTstop-control_1_1redlinestimulus12.png,TMT_Control,1,15,0,0,0,0,0,14,14,14,1,1,13.279331600060686,None,['3'],1,[0.09015830000862479],13.279331600060686,None,,001,2022_Feb_02_1744,TMT_fmri,2021.2.3,144.00444707894678,
TMTstop-Control_1_1.xlsx,0:26,16,['1'],1,TMTstop-control_1_1linestimulus13.png,TMTstop-control_1_1greenlinestimulus13.png,TMTstop-control_1_1redlinestimulus13.png,TMT_Control,1,16,0,0,0,0,0,15,15,15,1,1,13.446672599995509,None,['1'],1,[0.05521659995429218],13.446672599995509,None,,001,2022_Feb_02_1744,TMT_fmri,2021.2.3,144.00444707894678,
TMTstop-Control_1_1.xlsx,0:26,17,['2'],2,TMTstop-control_1_1linestimulus14.png,TMTstop-control_1_1greenlinestimulus14.png,TMTstop-control_1_1redlinestimulus14.png,TMT_Control,1,17,0,0,0,0,0,16,16,16,1,1,13.585279299877584,None,['2'],1,[-0.015913800103589892],13.585279299877584,None,,001,2022_Feb_02_1744,TMT_fmri,2021.2.3,144.00444707894678,
TMTstop-Control_1_1.xlsx,0:26,18,['1'],1,TMTstop-control_1_1linestimulus15.png,TMTstop-control_1_1greenlinestimulus15.png,TMTstop-control_1_1redlinestimulus15.png,TMT_Control,1,18,0,0,0,0,0,17,17,17,2,0,13.662121099885553,None,"['3', '1']",1,"[0.017398699885234237, 0.18474079994484782]",13.662121099885553,None,,001,2022_Feb_02_1744,TMT_fmri,2021.2.3,144.00444707894678,
TMTstop-Control_1_1.xlsx,0:26,19,['3'],3,TMTstop-control_1_1linestimulus16.png,TMTstop-control_1_1greenlinestimulus16.png,TMTstop-control_1_1redlinestimulus16.png,TMT_Control,1,19,0,0,0,0,0,18,18,18,2,0,13.932162699988112,None,"['2', '3']",1,"[-0.048716999823227525, 0.04169810004532337]",13.932162699988112,None,,001,2022_Feb_02_1744,TMT_fmri,2021.2.3,144.00444707894678,
TMTstop-Control_1_1.xlsx,0:26,20,['1'],1,TMTstop-control_1_1linestimulus17.png,TMTstop-control_1_1greenlinestimulus17.png,TMTstop-control_1_1redlinestimulus17.png,TMT_Control,1,20,0,0,0,0,0,19,19,19,1,1,14.043676499975845,None,['1'],1,[0.08151670009829104],14.043676499975845,None,,001,2022_Feb_02_1744,TMT_fmri,2021.2.3,144.00444707894678,
TMTstop-Control_1_1.xlsx,0:26,21,['3'],3,TMTstop-control_1_1linestimulus18.png,TMTstop-control_1_1greenlinestimulus18.png,TMTstop-control_1_1redlinestimulus18.png,TMT_Control,1,21,0,0,0,0,0,20,20,20,2,0,14.203309000004083,None,"['2', '3']",1,"[-0.024626899976283312, 0.08333279984071851]",14.203309000004083,None,,001,2022_Feb_02_1744,TMT_fmri,2021.2.3,144.00444707894678,
TMTstop-Control_1_1.xlsx,0:26,22,['1'],1,TMTstop-control_1_1linestimulus19.png,TMTstop-control_1_1greenlinestimulus19.png,TMTstop-control_1_1redlinestimulus19.png,TMT_Control,1,22,0,0,0,0,0,21,21,21,1,1,14.397782600019127,None,['1'],1,[0.024583599995821714],14.397782600019127,None,,001,2022_Feb_02_1744,TMT_fmri,2021.2.3,144.00444707894678,
TMTstop-Control_1_1.xlsx,0:26,23,['3'],3,TMTstop-control_1_1linestimulus20.png,TMTstop-control_1_1greenlinestimulus20.png,TMTstop-control_1_1redlinestimulus20.png,TMT_Control,1,23,0,0,0,0,0,22,22,22,2,0,14.494645499857143,None,"['2', '3']",1,"[-0.030415999935939908, 0.07377550005912781]",14.494645499857143,None,,001,2022_Feb_02_1744,TMT_fmri,2021.2.3,144.00444707894678,
TMTstop-Control_1_1.xlsx,0:26,24,['1'],1,TMTstop-control_1_1linestimulus21.png,TMTstop-control_1_1greenlinestimulus21.png,TMTstop-control_1_1redlinestimulus21.png,TMT_Control,1,24,0,0,0,0,0,23,23,23,1,1,14.654231499880552,None,['1'],1,[0.05926680006086826],14.654231499880552,None,,001,2022_Feb_02_1744,TMT_fmri,2021.2.3,144.00444707894678,
TMTstop-Control_1_1.xlsx,0:26,25,['3'],3,TMTstop-control_1_1linestimulus22.png,TMTstop-control_1_1greenlinestimulus22.png,TMTstop-control_1_1redlinestimulus22.png,TMT_Control,1,25,0,0,0,0,0,24,24,24,2,0,14.786236499901861,None,"['2', '3']",1,"[-0.0055593999568372965, 0.09561989991925657]",14.786236499901861,None,,001,2022_Feb_02_1744,TMT_fmri,2021.2.3,144.00444707894678,
TMTstop-Control_1_1.xlsx,0:26,None,None,None,TMTstop-control_1_1linestimulus23.png,TMTstop-control_1_1greenlinestimulus23.png,TMTstop-control_1_1redlinestimulus23.png,TMT_Control,1,Feedback_last,0,0,0,0,0,25,25,25,2,0,14.981088300002739,None,"['1', '2']",0,"[0.046826599864289165, 0.08731990004889667]",14.981088300002739,None,,001,2022_Feb_02_1744,TMT_fmri,2021.2.3,144.00444707894678,
TMTstop-Control_1_2.xlsx,26:52,1,['1'],1,TMTstop-control_1_2.png,TMTstop-control_1_2.png,TMTstop-control_1_2.png,TMT_Control,2,26,0,1,1,1,0,0,0,0,1,1,19.11205319990404,None,['1'],1,[0.5020492000039667],19.11205319990404,None,,001,2022_Feb_02_1744,TMT_fmri,2021.2.3,144.00444707894678,
TMTstop-Control_1_2.xlsx,26:52,2,['3'],3,TMTstop-control_1_2.png,TMTstop-control_1_2firstgreen.png,TMTstop-control_1_2firstred.png,TMT_Control,2,27,0,1,1,1,0,1,1,1,2,0,19.695778399938717,None,"['2', '3']",1,"[-0.0028505001682788134, 0.08823139988817275]",19.695778399938717,None,,001,2022_Feb_02_1744,TMT_fmri,2021.2.3,144.00444707894678,
TMTstop-Control_1_2.xlsx,26:52,3,['2'],2,TMTstop-control_1_2linestimulus0.png,TMTstop-control_1_2greenlinestimulus0.png,TMTstop-control_1_2redlinestimulus0.png,TMT_Control,2,28,0,1,1,1,0,2,2,2,2,0,19.89794009993784,None,"['1', '2']",1,"[0.01941619999706745, 0.07909029978327453]",19.89794009993784,None,,001,2022_Feb_02_1744,TMT_fmri,2021.2.3,144.00444707894678,
TMTstop-Control_1_2.xlsx,26:52,4,['3'],3,TMTstop-control_1_2linestimulus1.png,TMTstop-control_1_2greenlinestimulus1.png,TMTstop-control_1_2redlinestimulus1.png,TMT_Control,2,29,0,1,1,1,0,3,3,3,1,1,20.08459319989197,None,['3'],1,[-0.007375000044703484],20.08459319989197,None,,001,2022_Feb_02_1744,TMT_fmri,2021.2.3,144.00444707894678,
TMTstop-Control_1_2.xlsx,26:52,5,['1'],1,TMTstop-control_1_2linestimulus2.png,TMTstop-control_1_2greenlinestimulus2.png,TMTstop-control_1_2redlinestimulus2.png,TMT_Control,2,30,0,1,1,1,0,4,4,4,1,1,20.161060099955648,None,['1'],1,[0.036790600046515465],20.161060099955648,None,,001,2022_Feb_02_1744,TMT_fmri,2021.2.3,144.00444707894678,
TMTstop-Control_1_2.xlsx,26:52,6,['3'],3,TMTstop-control_1_2linestimulus3.png,TMTstop-control_1_2greenlinestimulus3.png,TMTstop-control_1_2redlinestimulus3.png,TMT_Control,2,31,0,1,1,1,0,5,5,5,2,0,20.27951020002365,None,"['2', '3']",1,"[-0.027022100053727627, 0.08291599992662668]",20.27951020002365,None,,001,2022_Feb_02_1744,TMT_fmri,2021.2.3,144.00444707894678,
,,,,,,,,,,,,,,,,,,,0,0,,,,,,,,,,,,,,
