NumberLetter,corrAns,Correct,StimFile,Correct_StimFile,False_StimFile,DurationTrial,trials_TMTControl.thisRepN,trials_TMTControl.thisTrialN,trials_TMTControl.thisN,trials_TMTControl.thisIndex,trials_TMTA.thisRepN,trials_TMTA.thisTrialN,trials_TMTA.thisN,trials_TMTA.thisIndex,trials_TMTB.thisRepN,trials_TMTB.thisTrialN,trials_TMTB.thisN,trials_TMTB.thisIndex,Attempts,First_attempt,Stim.started,Stim.stopped,key_resp_2.keys,key_resp_2.corr,key_resp_2.rt,key_resp_2.started,key_resp_2.stopped,participant,session,date,expName,psychopyVersion,frameRate,
1,['2'],2,TMTstop-control_1_p.png,TMTstop-control_1_p.png,TMTstop-control_1_p.png,10,0,0,0,0,,,,,,,,,2,0,13.227280500002962,None,"['1', '2']",1,"[1.268356100001256, 1.6518589999977848]",13.227280500002962,None,,001,2022_Nov_17_1326,TMT_practice,2021.2.3,144.22543011688293,
2,['1'],1,TMTstop-control_1_p.png,TMTstop-control_1_pfirstgreen.png,TMTstop-control_1_pfirstred.png,10,0,1,1,1,,,,,,,,,3,0,14.960300099999586,None,"['3', '2', '1']",1,"[0.4253647000005003, 1.1999479000005522, 1.4578169000014896]",14.960300099999586,None,,001,2022_Nov_17_1326,TMT_practice,2021.2.3,144.22543011688293,
3,['3'],3,TMTstop-control_1_plinestimulus0.png,TMTstop-control_1_pgreenlinestimulus0.png,TMTstop-control_1_predlinestimulus0.png,10,0,2,2,2,,,,,,,,,2,0,16.50118900000234,None,"['2', '3']",1,"[0.021340300001611467, 0.13382080000155838]",16.50118900000234,None,,001,2022_Nov_17_1326,TMT_practice,2021.2.3,144.22543011688293,
4,['1'],1,TMTstop-control_1_plinestimulus1.png,TMTstop-control_1_pgreenlinestimulus1.png,TMTstop-control_1_predlinestimulus1.png,10,0,3,3,3,,,,,,,,,1,1,16.744819300001836,None,['1'],1,[0.9650848000019323],16.744819300001836,None,,001,2022_Nov_17_1326,TMT_practice,2021.2.3,144.22543011688293,
5,['3'],3,TMTstop-control_1_plinestimulus2.png,TMTstop-control_1_pgreenlinestimulus2.png,TMTstop-control_1_predlinestimulus2.png,10,0,4,4,4,,,,,,,,,4,0,17.7841075000033,None,"['1', '1', '2', '3']",1,"[0.832368299998052, 1.357361900001706, 1.5795145000010962, 1.7225068999978248]",17.7841075000033,None,,001,2022_Nov_17_1326,TMT_practice,2021.2.3,144.22543011688293,
6,['1'],1,TMTstop-control_1_plinestimulus3.png,TMTstop-control_1_pgreenlinestimulus3.png,TMTstop-control_1_predlinestimulus3.png,10,0,5,5,5,,,,,,,,,1,1,19.592382599999837,None,['1'],1,[0.07125999999698251],19.592382599999837,None,,001,2022_Nov_17_1326,TMT_practice,2021.2.3,144.22543011688293,
7,['3'],3,TMTstop-control_1_plinestimulus4.png,TMTstop-control_1_pgreenlinestimulus4.png,TMTstop-control_1_predlinestimulus4.png,10,0,6,6,6,,,,,,,,,2,0,19.73930239999754,None,"['2', '3']",1,"[0.0032441000003018416, 0.11360850000346545]",19.73930239999754,None,,001,2022_Nov_17_1326,TMT_practice,2021.2.3,144.22543011688293,
8,['1'],1,TMTstop-control_1_plinestimulus4.png,TMTstop-control_1_pgreenlinestimulus5.png,TMTstop-control_1_predlinestimulus5.png,10,0,7,7,7,,,,,,,,,1,1,19.926336299999093,None,['1'],1,[0.04665559999557445],19.926336299999093,None,,001,2022_Nov_17_1326,TMT_practice,2021.2.3,144.22543011688293,
9,['2'],2,TMTstop-control_1_plinestimulus6.png,TMTstop-control_1_pgreenlinestimulus6.png,TMTstop-control_1_predlinestimulus6.png,10,0,8,8,8,,,,,,,,,1,1,20.044160099998408,None,['2'],1,[0.005195300000195857],20.044160099998408,None,,001,2022_Nov_17_1326,TMT_practice,2021.2.3,144.22543011688293,
10,['3'],3,TMTstop-control_1_plinestimulus7.png,TMTstop-control_1_pgreenlinestimulus7.png,TMTstop-control_1_predlinestimulus7.png,10,0,9,9,9,,,,,,,,,1,1,20.121532500001194,None,['3'],1,[0.043171200006327126],20.121532500001194,None,,001,2022_Nov_17_1326,TMT_practice,2021.2.3,144.22543011688293,
11,['2'],2,TMTstop-control_1_plinestimulus8.png,TMTstop-control_1_pgreenlinestimulus8.png,TMTstop-control_1_predlinestimulus8.png,10,0,10,10,10,,,,,,,,,3,0,20.234626199999184,None,"['1', '1', '2']",1,"[0.931617100002768, 1.7123955999995815, 1.7536607000001823]",20.234626199999184,None,,001,2022_Nov_17_1326,TMT_practice,2021.2.3,144.22543011688293,
12,['3'],3,TMTstop-control_1_plinestimulus9.png,TMTstop-control_1_pgreenlinestimulus9.png,TMTstop-control_1_predlinestimulus9.png,10,0,11,11,11,,,,,,,,,1,1,22.082918000000063,None,['3'],1,[0.043149700002686586],22.082918000000063,None,,001,2022_Nov_17_1326,TMT_practice,2021.2.3,144.22543011688293,
13,['1'],1,TMTstop-control_1_plinestimulus10.png,TMTstop-control_1_pgreenlinestimulus10.png,TMTstop-control_1_predlinestimulus10.png,1,0,12,12,12,,,,,,,,,1,1,22.206856500000868,None,['1'],1,[0.07706190000317292],22.206856500000868,None,,001,2022_Nov_17_1326,TMT_practice,2021.2.3,144.22543011688293,
14,['2'],2,TMTstop-control_1_plinestimulus11.png,TMTstop-control_1_pgreenlinestimulus11.png,TMTstop-control_1_predlinestimulus11.png,None,0,13,13,13,,,,,,,,,1,1,22.355842900004063,None,['2'],1,[0.004926300003717188],22.355842900004063,None,,001,2022_Nov_17_1326,TMT_practice,2021.2.3,144.22543011688293,
15,['3'],3,TMTstop-control_1_plinestimulus12.png,TMTstop-control_1_pgreenlinestimulus12.png,TMTstop-control_1_predlinestimulus12.png,None,0,14,14,14,,,,,,,,,1,1,22.44200070000079,None,['3'],1,[0.00730239999393234],22.44200070000079,None,,001,2022_Nov_17_1326,TMT_practice,2021.2.3,144.22543011688293,
16,['1'],1,TMTstop-control_1_plinestimulus13.png,TMTstop-control_1_pgreenlinestimulus13.png,TMTstop-control_1_predlinestimulus13.png,None,0,15,15,15,,,,,,,,,1,1,22.523995499999728,None,['1'],1,[0.07505700000183424],22.523995499999728,None,,001,2022_Nov_17_1326,TMT_practice,2021.2.3,144.22543011688293,
17,['3'],3,TMTstop-control_1_plinestimulus14.png,TMTstop-control_1_pgreenlinestimulus14.png,TMTstop-control_1_predlinestimulus14.png,None,0,16,16,16,,,,,,,,,2,0,22.676962900004582,None,"['2', '3']",1,"[-0.02195890000439249, 0.10748099999909755]",22.676962900004582,None,,001,2022_Nov_17_1326,TMT_practice,2021.2.3,144.22543011688293,
18,['1'],1,TMTstop-control_1_plinestimulus15.png,TMTstop-control_1_pgreenlinestimulus15.png,TMTstop-control_1_predlinestimulus15.png,None,0,17,17,17,,,,,,,,,1,1,22.869790400000056,None,['1'],1,[0.09175870000035502],22.869790400000056,None,,001,2022_Nov_17_1326,TMT_practice,2021.2.3,144.22543011688293,
19,['3'],3,TMTstop-control_1_plinestimulus16.png,TMTstop-control_1_pgreenlinestimulus16.png,TMTstop-control_1_predlinestimulus16.png,None,0,18,18,18,,,,,,,,,2,0,23.040463900004397,None,"['2', '3']",1,"[-0.004488900005526375, 0.10991759999888018]",23.040463900004397,None,,001,2022_Nov_17_1326,TMT_practice,2021.2.3,144.22543011688293,
20,['2'],2,TMTstop-control_1_plinestimulus17.png,TMTstop-control_1_pgreenlinestimulus17.png,TMTstop-control_1_predlinestimulus17.png,None,0,19,19,19,,,,,,,,,2,0,23.24873099999968,None,"['1', '2']",1,"[0.07198239999706857, 0.13142979999975068]",23.24873099999968,None,,001,2022_Nov_17_1326,TMT_practice,2021.2.3,144.22543011688293,
21,['1'],1,TMTstop-control_1_plinestimulus18.png,TMTstop-control_1_pgreenlinestimulus18.png,TMTstop-control_1_predlinestimulus18.png,None,0,20,20,20,,,,,,,,,2,0,23.462985700003628,None,"['3', '1']",1,"[0.03311379999649944, 0.1837695999929565]",23.462985700003628,None,,001,2022_Nov_17_1326,TMT_practice,2021.2.3,144.22543011688293,
22,['3'],3,TMTstop-control_1_plinestimulus19.png,TMTstop-control_1_pgreenlinestimulus19.png,TMTstop-control_1_predlinestimulus19.png,None,0,21,21,21,,,,,,,,,2,0,23.736619299997983,None,"['2', '3']",1,"[-0.029874100000597537, 0.07398829999874579]",23.736619299997983,None,,001,2022_Nov_17_1326,TMT_practice,2021.2.3,144.22543011688293,
23,['2'],2,TMTstop-control_1_plinestimulus20.png,TMTstop-control_1_pgreenlinestimulus20.png,TMTstop-control_1_predlinestimulus20.png,None,0,22,22,22,,,,,,,,,2,0,23.92430669999885,None,"['1', '2']",1,"[0.031169499998213723, 0.1080697999932454]",23.92430669999885,None,,001,2022_Nov_17_1326,TMT_practice,2021.2.3,144.22543011688293,
24,['1'],1,TMTstop-control_1_plinestimulus21.png,TMTstop-control_1_pgreenlinestimulus21.png,TMTstop-control_1_predlinestimulus21.png,None,0,23,23,23,,,,,,,,,2,0,24.120596300002944,None,"['3', '1']",1,"[0.007725700001174118, 0.12474410000140779]",24.120596300002944,None,,001,2022_Nov_17_1326,TMT_practice,2021.2.3,144.22543011688293,
25,['3'],3,TMTstop-control_1_plinestimulus22.png,TMTstop-control_1_pgreenlinestimulus22.png,TMTstop-control_1_predlinestimulus22.png,None,0,24,24,24,,,,,,,,,2,0,24.32814530000178,None,"['2', '3']",1,"[-0.026840500002435874, 0.08722660000057658]",24.32814530000178,None,,001,2022_Nov_17_1326,TMT_practice,2021.2.3,144.22543011688293,
None,None,None,TMTstop-control_1_plinestimulus23.png,TMTstop-control_1_pgreenlinestimulus23.png,TMTstop-control_1_predlinestimulus23.png,None,0,25,25,25,,,,,,,,,3,0,24.520433500001673,None,"['1', '2', '3']",0,"[0.0065781000012066215, 0.0711989999981597, 0.1809923999971943]",24.520433500001673,None,,001,2022_Nov_17_1326,TMT_practice,2021.2.3,144.22543011688293,
1,['3'],3,TMTstop-A_1_p.png,TMTstop-A_1_p.png,TMTstop-A_1_p.png,10,,,,,0,0,0,0,,,,,1,1,38.93056010000146,None,['3'],1,[0.05422639999596868],38.93056010000146,None,,001,2022_Nov_17_1326,TMT_practice,2021.2.3,144.22543011688293,
2,['1'],1,TMTstop-A_1_p.png,TMTstop-A_1_pfirstgreen.png,TMTstop-A_1_pfirstred.png,10,,,,,0,1,1,1,,,,,1,1,39.07441349999863,None,['1'],1,[0.07593130000168458],39.07441349999863,None,,001,2022_Nov_17_1326,TMT_practice,2021.2.3,144.22543011688293,
3,['2'],2,TMTstop-A_1_plinestimulus0.png,TMTstop-A_1_pgreenlinestimulus0.png,TMTstop-A_1_predlinestimulus0.png,10,,,,,0,2,2,2,,,,,1,1,39.234973999999056,None,['2'],1,[-0.014118599996436387],39.234973999999056,None,,001,2022_Nov_17_1326,TMT_practice,2021.2.3,144.22543011688293,
4,['1'],1,TMTstop-A_1_plinestimulus1.png,TMTstop-A_1_pgreenlinestimulus1.png,TMTstop-A_1_predlinestimulus1.png,10,,,,,0,3,3,3,,,,,2,0,39.36639860000287,None,"['3', '1']",1,"[-0.00762399999803165, 0.15502740000374615]",39.36639860000287,None,,001,2022_Nov_17_1326,TMT_practice,2021.2.3,144.22543011688293,
5,['2'],2,TMTstop-A_1_plinestimulus2.png,TMTstop-A_1_pgreenlinestimulus2.png,TMTstop-A_1_predlinestimulus2.png,10,,,,,0,4,4,4,,,,,1,1,39.59912450000411,None,['2'],1,[-0.025952399999368936],39.59912450000411,None,,001,2022_Nov_17_1326,TMT_practice,2021.2.3,144.22543011688293,
6,['1'],1,TMTstop-A_1_plinestimulus3.png,TMTstop-A_1_pgreenlinestimulus3.png,TMTstop-A_1_predlinestimulus3.png,10,,,,,0,5,5,5,,,,,2,0,39.67940190000081,None,"['3', '1']",1,"[0.008206400001654401, 0.14601499999844236]",39.67940190000081,None,,001,2022_Nov_17_1326,TMT_practice,2021.2.3,144.22543011688293,
7,['2'],2,TMTstop-A_1_plinestimulus4.png,TMTstop-A_1_pgreenlinestimulus4.png,TMTstop-A_1_predlinestimulus4.png,10,,,,,0,6,6,6,,,,,1,1,39.92444429999887,None,['2'],1,[-0.03701119999459479],39.92444429999887,None,,001,2022_Nov_17_1326,TMT_practice,2021.2.3,144.22543011688293,
8,['1'],1,TMTstop-A_1_plinestimulus5.png,TMTstop-A_1_pgreenlinestimulus5.png,TMTstop-A_1_predlinestimulus5.png,10,,,,,0,7,7,7,,,,,2,0,40.00001619999966,None,"['3', '1']",1,"[-0.010223900004348252, 0.132695699998294]",40.00001619999966,None,,001,2022_Nov_17_1326,TMT_practice,2021.2.3,144.22543011688293,
9,['2'],2,TMTstop-A_1_plinestimulus6.png,TMTstop-A_1_pgreenlinestimulus6.png,TMTstop-A_1_predlinestimulus6.png,10,,,,,0,8,8,8,,,,,1,1,40.242002600003616,None,['2'],1,[-0.059491499996511266],40.242002600003616,None,,001,2022_Nov_17_1326,TMT_practice,2021.2.3,144.22543011688293,
10,['1'],1,TMTstop-A_1_plinestimulus7.png,TMTstop-A_1_pgreenlinestimulus7.png,TMTstop-A_1_predlinestimulus7.png,10,,,,,0,9,9,9,,,,,2,0,40.313268199999584,None,"['3', '1']",1,"[-0.004383199993753806, 0.12626280000404222]",40.313268199999584,None,,001,2022_Nov_17_1326,TMT_practice,2021.2.3,144.22543011688293,
11,['2'],2,TMTstop-A_1_plinestimulus8.png,TMTstop-A_1_pgreenlinestimulus8.png,TMTstop-A_1_predlinestimulus8.png,10,,,,,0,10,10,10,,,,,1,1,40.54128440000204,None,['2'],1,[-0.056451900003594346],40.54128440000204,None,,001,2022_Nov_17_1326,TMT_practice,2021.2.3,144.22543011688293,
12,['1'],1,TMTstop-A_1_plinestimulus9.png,TMTstop-A_1_pgreenlinestimulus9.png,TMTstop-A_1_predlinestimulus9.png,10,,,,,0,11,11,11,,,,,2,0,40.611301800003275,None,"['3', '1']",1,"[-0.013546399997721892, 0.13327209999988554]",40.611301800003275,None,,001,2022_Nov_17_1326,TMT_practice,2021.2.3,144.22543011688293,
13,['2'],2,TMTstop-A_1_plinestimulus10.png,TMTstop-A_1_pgreenlinestimulus10.png,TMTstop-A_1_predlinestimulus10.png,1,,,,,0,12,12,12,,,,,1,1,40.861699000000954,None,['2'],1,[-0.07022310000320431],40.861699000000954,None,,001,2022_Nov_17_1326,TMT_practice,2021.2.3,144.22543011688293,
14,['3'],3,TMTstop-A_1_plinestimulus11.png,TMTstop-A_1_pgreenlinestimulus11.png,TMTstop-A_1_predlinestimulus11.png,None,,,,,0,13,13,13,,,,,1,1,40.96304190000228,None,['3'],1,[-0.03541670000413433],40.96304190000228,None,,001,2022_Nov_17_1326,TMT_practice,2021.2.3,144.22543011688293,
15,['1'],1,TMTstop-A_1_plinestimulus12.png,TMTstop-A_1_pgreenlinestimulus12.png,TMTstop-A_1_predlinestimulus12.png,None,,,,,0,14,14,14,,,,,1,1,41.06230040000082,None,['1'],1,[0.004949499998474494],41.06230040000082,None,,001,2022_Nov_17_1326,TMT_practice,2021.2.3,144.22543011688293,
16,['3'],3,TMTstop-A_1_plinestimulus13.png,TMTstop-A_1_pgreenlinestimulus13.png,TMTstop-A_1_predlinestimulus13.png,None,,,,,0,15,15,15,,,,,2,0,41.16487169999891,None,"['2', '3']",1,"[-0.03573550000146497, 0.09103250000043772]",41.16487169999891,None,,001,2022_Nov_17_1326,TMT_practice,2021.2.3,144.22543011688293,
17,['1'],1,TMTstop-A_1_plinestimulus14.png,TMTstop-A_1_pgreenlinestimulus14.png,TMTstop-A_1_predlinestimulus14.png,None,,,,,0,16,16,16,,,,,1,1,41.34007250000286,None,['1'],1,[0.04430389999470208],41.34007250000286,None,,001,2022_Nov_17_1326,TMT_practice,2021.2.3,144.22543011688293,
18,['2'],2,TMTstop-A_1_plinestimulus15.png,TMTstop-A_1_pgreenlinestimulus15.png,TMTstop-A_1_predlinestimulus15.png,None,,,,,0,17,17,17,,,,,1,1,41.4569491000002,None,['2'],1,[-0.018297200003871694],41.4569491000002,None,,001,2022_Nov_17_1326,TMT_practice,2021.2.3,144.22543011688293,
19,['3'],3,TMTstop-A_1_plinestimulus16.png,TMTstop-A_1_pgreenlinestimulus16.png,TMTstop-A_1_predlinestimulus16.png,None,,,,,0,18,18,18,,,,,1,1,41.5353283000004,None,['3'],1,[0.029998599995451514],41.5353283000004,None,,001,2022_Nov_17_1326,TMT_practice,2021.2.3,144.22543011688293,
20,['2'],2,TMTstop-A_1_plinestimulus17.png,TMTstop-A_1_pgreenlinestimulus17.png,TMTstop-A_1_predlinestimulus17.png,None,,,,,0,19,19,19,,,,,2,0,41.64548289999948,None,"['1', '2']",1,"[0.05079259999911301, 0.10814569999638479]",41.64548289999948,None,,001,2022_Nov_17_1326,TMT_practice,2021.2.3,144.22543011688293,
21,['3'],3,TMTstop-A_1_plinestimulus18.png,TMTstop-A_1_pgreenlinestimulus18.png,TMTstop-A_1_predlinestimulus18.png,None,,,,,0,20,20,20,,,,,1,1,41.85135989999981,None,['3'],1,[0.03224590000172611],41.85135989999981,None,,001,2022_Nov_17_1326,TMT_practice,2021.2.3,144.22543011688293,
22,['1'],1,TMTstop-A_1_plinestimulus19.png,TMTstop-A_1_pgreenlinestimulus19.png,TMTstop-A_1_predlinestimulus19.png,None,,,,,0,21,21,21,,,,,1,1,41.9590565000035,None,['1'],1,[0.043912299996009097],41.9590565000035,None,,001,2022_Nov_17_1326,TMT_practice,2021.2.3,144.22543011688293,
23,['2'],2,TMTstop-A_1_plinestimulus20.png,TMTstop-A_1_pgreenlinestimulus20.png,TMTstop-A_1_predlinestimulus20.png,None,,,,,0,22,22,22,,,,,1,1,42.07425610000064,None,['2'],1,[-0.006379999998898711],42.07425610000064,None,,001,2022_Nov_17_1326,TMT_practice,2021.2.3,144.22543011688293,
24,['3'],3,TMTstop-A_1_plinestimulus21.png,TMTstop-A_1_pgreenlinestimulus21.png,TMTstop-A_1_predlinestimulus21.png,None,,,,,0,23,23,23,,,,,1,1,42.14923980000458,None,['3'],1,[0.03662620000250172],42.14923980000458,None,,001,2022_Nov_17_1326,TMT_practice,2021.2.3,144.22543011688293,
25,['2'],2,TMTstop-A_1_plinestimulus22.png,TMTstop-A_1_pgreenlinestimulus22.png,TMTstop-A_1_predlinestimulus22.png,None,,,,,0,24,24,24,,,,,2,0,42.25960530000157,None,"['1', '2']",1,"[0.04994960000476567, 0.11137020000023767]",42.25960530000157,None,,001,2022_Nov_17_1326,TMT_practice,2021.2.3,144.22543011688293,
None,None,None,TMTstop-A_1_plinestimulus23.png,TMTstop-A_1_pgreenlinestimulus23.png,TMTstop-A_1_predlinestimulus23.png,None,,,,,0,25,25,25,,,,,0,0,42.45648210000218,None,None,1,,42.45648210000218,None,,001,2022_Nov_17_1326,TMT_practice,2021.2.3,144.22543011688293,
1,['3'],3,TMTstop-B_1_p.png,TMTstop-B_1_p.png,TMTstop-B_1_p.png,10,,,,,,,,,0,0,0,0,10,0,75.26461720000225,None,"['3', '1', '3', '2', '1', '3', '2', '1', '2', '3']",1,"[-1.2716491000028327, -1.0881105000007665, -0.8726185000050464, -0.8263130999985151, -0.7526950000028592, 33.36845789999643, 33.37598189999699, 33.58417379999446, 33.87929620000068, 34.07436130000133]",75.26461720000225,None,,001,2022_Nov_17_1326,TMT_practice,2021.2.3,144.22543011688293,
A,['1'],1,TMTstop-B_1_p.png,TMTstop-B_1_pfirstgreen.png,TMTstop-B_1_pfirstred.png,10,,,,,,,,,0,1,1,1,1,1,109.42930940000224,None,['1'],1,[0.04931460000079824],109.42930940000224,None,,001,2022_Nov_17_1326,TMT_practice,2021.2.3,144.22543011688293,
2,['2'],2,TMTstop-B_1_plinestimulus0.png,TMTstop-B_1_pgreenlinestimulus0.png,TMTstop-B_1_predlinestimulus0.png,10,,,,,,,,,0,2,2,2,2,0,109.55325340000127,None,"['3', '2']",1,"[0.043045999998867046, 0.0653426999997464]",109.55325340000127,None,,001,2022_Nov_17_1326,TMT_practice,2021.2.3,144.22543011688293,
B,['3'],3,TMTstop-B_1_plinestimulus1.png,TMTstop-B_1_pgreenlinestimulus1.png,TMTstop-B_1_predlinestimulus1.png,10,,,,,,,,,0,3,3,3,5,0,109.70384940000076,None,"['1', '3', '2', '1', '3']",1,"[0.08417800000461284, 0.2182680000041728, 0.221397799999977, 0.3642401000033715, 0.5033458000034443]",109.70384940000076,None,,001,2022_Nov_17_1326,TMT_practice,2021.2.3,144.22543011688293,
3,['1'],1,TMTstop-B_1_plinestimulus2.png,TMTstop-B_1_pgreenlinestimulus2.png,TMTstop-B_1_predlinestimulus2.png,10,,,,,,,,,0,4,4,4,2,0,110.2982570000022,None,"['2', '1']",1,"[-0.05067770000459859, 0.09157959999720333]",110.2982570000022,None,,001,2022_Nov_17_1326,TMT_practice,2021.2.3,144.22543011688293,
C,['3'],3,TMTstop-B_1_plinestimulus3.png,TMTstop-B_1_pgreenlinestimulus3.png,TMTstop-B_1_predlinestimulus3.png,10,,,,,,,,,0,5,5,5,1,1,110.47551530000055,None,['3'],1,[0.039966700001969],110.47551530000055,None,,001,2022_Nov_17_1326,TMT_practice,2021.2.3,144.22543011688293,
4,['1'],1,TMTstop-B_1_plinestimulus4.png,TMTstop-B_1_pgreenlinestimulus4.png,TMTstop-B_1_predlinestimulus4.png,10,,,,,,,,,0,6,6,6,2,0,110.59060979999776,None,"['2', '1']",1,"[-0.049687799997627735, 0.08818230000179028]",110.59060979999776,None,,001,2022_Nov_17_1326,TMT_practice,2021.2.3,144.22543011688293,
D,['3'],3,TMTstop-B_1_plinestimulus5.png,TMTstop-B_1_pgreenlinestimulus5.png,TMTstop-B_1_predlinestimulus5.png,10,,,,,,,,,0,7,7,7,1,1,110.77562749999925,None,['3'],1,[0.015090700006112456],110.77562749999925,None,,001,2022_Nov_17_1326,TMT_practice,2021.2.3,144.22543011688293,
5,['2'],2,TMTstop-B_1_plinestimulus6.png,TMTstop-B_1_pgreenlinestimulus6.png,TMTstop-B_1_predlinestimulus6.png,10,,,,,,,,,0,8,8,8,1,1,110.85990400000446,None,['2'],1,[-0.03570169999875361],110.85990400000446,None,,001,2022_Nov_17_1326,TMT_practice,2021.2.3,144.22543011688293,
E,['1'],1,TMTstop-B_1_plinestimulus7.png,TMTstop-B_1_pgreenlinestimulus7.png,TMTstop-B_1_predlinestimulus7.png,10,,,,,,,,,0,9,9,9,1,1,110.95569300000352,None,['1'],1,[0.010227999999187887],110.95569300000352,None,,001,2022_Nov_17_1326,TMT_practice,2021.2.3,144.22543011688293,
6,['3'],3,TMTstop-B_1_plinestimulus8.png,TMTstop-B_1_pgreenlinestimulus8.png,TMTstop-B_1_predlinestimulus8.png,10,,,,,,,,,0,10,10,10,1,1,111.04366380000283,None,['3'],1,[0.03818239999964135],111.04366380000283,None,,001,2022_Nov_17_1326,TMT_practice,2021.2.3,144.22543011688293,
F,['1'],1,TMTstop-B_1_plinestimulus9.png,TMTstop-B_1_pgreenlinestimulus9.png,TMTstop-B_1_predlinestimulus9.png,10,,,,,,,,,0,11,11,11,2,0,111.15145370000391,None,"['2', '1']",1,"[-0.04315109999879496, 0.09353340000234311]",111.15145370000391,None,,001,2022_Nov_17_1326,TMT_practice,2021.2.3,144.22543011688293,
7,['3'],3,TMTstop-B_1_plinestimulus10.png,TMTstop-B_1_pgreenlinestimulus10.png,TMTstop-B_1_predlinestimulus10.png,1,,,,,,,,,0,12,12,12,1,1,111.33447380000143,None,['3'],1,[0.01889849999861326],111.33447380000143,None,,001,2022_Nov_17_1326,TMT_practice,2021.2.3,144.22543011688293,
G,['1'],1,TMTstop-B_1_plinestimulus11.png,TMTstop-B_1_pgreenlinestimulus11.png,TMTstop-B_1_predlinestimulus11.png,None,,,,,,,,,0,13,13,13,2,0,111.42825679999805,None,"['2', '1']",1,"[-0.049049099994590506, 0.08980380000139121]",111.42825679999805,None,,001,2022_Nov_17_1326,TMT_practice,2021.2.3,144.22543011688293,
8,['2'],2,TMTstop-B_1_plinestimulus12.png,TMTstop-B_1_pgreenlinestimulus12.png,TMTstop-B_1_predlinestimulus12.png,None,,,,,,,,,0,14,14,14,2,0,111.61719550000271,None,"['3', '2']",1,"[0.024251800001366064, 0.05530200000066543]",111.61719550000271,None,,001,2022_Nov_17_1326,TMT_practice,2021.2.3,144.22543011688293,
H,['3'],3,TMTstop-B_1_plinestimulus13.png,TMTstop-B_1_pgreenlinestimulus13.png,TMTstop-B_1_predlinestimulus13.png,None,,,,,,,,,0,15,15,15,5,0,111.75637160000042,None,"['1', '3', '2', '1', '3']",1,"[0.04148120000172639, 0.17500309999741148, 0.1950068000005558, 0.31629229999816744, 0.45712880000064615]",111.75637160000042,None,,001,2022_Nov_17_1326,TMT_practice,2021.2.3,144.22543011688293,
9,['2'],2,TMTstop-B_1_plinestimulus14.png,TMTstop-B_1_pgreenlinestimulus14.png,TMTstop-B_1_predlinestimulus14.png,None,,,,,,,,,0,16,16,16,1,1,112.28399770000397,None,['2'],1,[-0.05758329999662237],112.28399770000397,None,,001,2022_Nov_17_1326,TMT_practice,2021.2.3,144.22543011688293,
I,['3'],3,TMTstop-B_1_plinestimulus15.png,TMTstop-B_1_pgreenlinestimulus15.png,TMTstop-B_1_predlinestimulus15.png,None,,,,,,,,,0,17,17,17,11,0,112.36040930000308,None,"['1', '3', '2', '1', '3', '2', '1', '3', '2', '1', '3']",1,"[0.00037879999581491575, 0.13205339999694843, 0.13533789999928558, 0.26859609999519307, 0.3994643999976688, 0.42936270000063814, 0.5549161999952048, 0.6836911999998847, 0.7009231999982148, 0.853807899999083, 0.9981437999958871]",112.36040930000308,None,,001,2022_Nov_17_1326,TMT_practice,2021.2.3,144.22543011688293,
10,['1'],1,TMTstop-B_1_plinestimulus16.png,TMTstop-B_1_pgreenlinestimulus16.png,TMTstop-B_1_predlinestimulus16.png,None,,,,,,,,,0,18,18,18,2,0,113.43555550000019,None,"['2', '1']",1,"[-0.03812050000124145, 0.11265049999929033]",113.43555550000019,None,,001,2022_Nov_17_1326,TMT_practice,2021.2.3,144.22543011688293,
J,['3'],3,TMTstop-B_1_plinestimulus17.png,TMTstop-B_1_pgreenlinestimulus17.png,TMTstop-B_1_predlinestimulus17.png,None,,,,,,,,,0,19,19,19,1,1,113.61814690000028,None,['3'],1,[0.0989142999969772],113.61814690000028,None,,001,2022_Nov_17_1326,TMT_practice,2021.2.3,144.22543011688293,
11,['1'],1,TMTstop-B_1_plinestimulus18.png,TMTstop-B_1_pgreenlinestimulus18.png,TMTstop-B_1_predlinestimulus18.png,None,,,,,,,,,0,20,20,20,2,0,113.78831519999949,None,"['2', '1']",1,"[-0.035536399998818524, 0.056805599997460376]",113.78831519999949,None,,001,2022_Nov_17_1326,TMT_practice,2021.2.3,144.22543011688293,
K,['3'],3,TMTstop-B_1_plinestimulus19.png,TMTstop-B_1_pgreenlinestimulus19.png,TMTstop-B_1_predlinestimulus19.png,None,,,,,,,,,0,21,21,21,2,0,113.93529940000008,None,"['2', '3']",1,"[0.07911769999918761, 0.08263630000146804]",113.93529940000008,None,,001,2022_Nov_17_1326,TMT_practice,2021.2.3,144.22543011688293,
12,['1'],1,TMTstop-B_1_plinestimulus20.png,TMTstop-B_1_pgreenlinestimulus20.png,TMTstop-B_1_predlinestimulus20.png,None,,,,,,,,,0,22,22,22,1,1,114.13261839999905,None,['1'],1,[0.023840699999709614],114.13261839999905,None,,001,2022_Nov_17_1326,TMT_practice,2021.2.3,144.22543011688293,
L,['2'],2,TMTstop-B_1_plinestimulus21.png,TMTstop-B_1_pgreenlinestimulus21.png,TMTstop-B_1_predlinestimulus21.png,None,,,,,,,,,0,23,23,23,2,0,114.23255510000308,None,"['3', '2']",1,"[0.072860700005549, 0.09095610000076704]",114.23255510000308,None,,001,2022_Nov_17_1326,TMT_practice,2021.2.3,144.22543011688293,
13,['3'],3,TMTstop-B_1_plinestimulus22.png,TMTstop-B_1_pgreenlinestimulus22.png,TMTstop-B_1_predlinestimulus22.png,None,,,,,,,,,0,24,24,24,2,0,114.41659629999776,None,"['1', '3']",1,"[0.05224660000385484, 0.17923619999783114]",114.41659629999776,None,,001,2022_Nov_17_1326,TMT_practice,2021.2.3,144.22543011688293,
None,None,None,TMTstop-B_1_plinestimulus23.png,TMTstop-B_1_pgreenlinestimulus23.png,TMTstop-B_1_predlinestimulus23.png,None,,,,,,,,,0,25,25,25,4,0,114.67786889999843,None,"['2', '1', '3', '2']",0,"[-0.039007500003208406, 0.11018509999848902, 0.2426350999958231, 0.27415040000050794]",114.67786889999843,None,,001,2022_Nov_17_1326,TMT_practice,2021.2.3,144.22543011688293,
