NumberLetter,corrAns,Correct,StimFile,Correct_StimFile,False_StimFile,Version,Block,TrialNumber_session,n,Stim.started_mean,Stim.started_raw,Stim.started_std,Stim.stopped_raw,key_resp_2.corr_mean,key_resp_2.corr_raw,key_resp_2.corr_std,key_resp_2.keys_raw,key_resp_2.rt_raw,key_resp_2.started_mean,key_resp_2.started_raw,key_resp_2.started_std,key_resp_2.stopped_raw,order
1,['2'],2,TMTstop-control_1_1.png,TMTstop-control_1_1.png,TMTstop-control_1_1.png,TMT_Control,1,1,1.0,32.792938232421875,32.792938232421875,0.0,,1.0,1.0,0.0,1,2,0.44151700008660555,0.526522200088948,32.792938232421875,32.792938232421875,0.0,,0.0
2,['1'],1,TMTstop-control_1_1.png,TMTstop-control_1_1firstgreen.png,TMTstop-control_1_1firstred.png,TMT_Control,1,2,1.0,33.50025939941406,33.50025939941406,0.0,,1.0,1.0,0.0,3,1,-0.09607659978792071,0.029510200023651123,33.50025939941406,33.50025939941406,0.0,,1.0
3,['2'],2,TMTstop-control_1_1linestimulus0.png,TMTstop-control_1_1greenlinestimulus0.png,TMTstop-control_1_1redlinestimulus0.png,TMT_Control,1,3,1.0,33.67536926269531,33.67536926269531,0.0,,1.0,1.0,0.0,2,3,1,2,-0.10777270002290606,-0.0004412999842315912,0.1275675999931991,0.15789829986169934,33.67536926269531,33.67536926269531,0.0,,2.0
4,['3'],3,TMTstop-control_1_1linestimulus1.png,TMTstop-control_1_1greenlinestimulus1.png,TMTstop-control_1_1redlinestimulus1.png,TMT_Control,1,4,1.0,34.00716781616211,34.00716781616211,0.0,,1.0,1.0,0.0,3,-0.06088650017045438,34.00716781616211,34.00716781616211,0.0,,3.0
5,['2'],2,TMTstop-control_1_1linestimulus2.png,TMTstop-control_1_1greenlinestimulus2.png,TMTstop-control_1_1redlinestimulus2.png,TMT_Control,1,5,1.0,34.119903564453125,34.119903564453125,0.0,,1.0,1.0,0.0,1,2,-0.04078089981339872,0.038389099994674325,34.119903564453125,34.119903564453125,0.0,,4.0
6,['1'],1,TMTstop-control_1_1linestimulus3.png,TMTstop-control_1_1greenlinestimulus3.png,TMTstop-control_1_1redlinestimulus3.png,TMT_Control,1,6,1.0,34.30017852783203,34.30017852783203,0.0,,1.0,1.0,0.0,3,1,-0.06879499997012317,0.07211780012585223,34.30017852783203,34.30017852783203,0.0,,5.0
7,['3'],3,TMTstop-control_1_1linestimulus4.png,TMTstop-control_1_1greenlinestimulus4.png,TMTstop-control_1_1redlinestimulus4.png,TMT_Control,1,7,1.0,34.508934020996094,34.508934020996094,0.0,,1.0,1.0,0.0,2,3,-0.10028690006583929,-0.01757170003838837,34.508934020996094,34.508934020996094,0.0,,6.0
8,['2'],2,TMTstop-control_1_1linestimulus4.png,TMTstop-control_1_1greenlinestimulus5.png,TMTstop-control_1_1redlinestimulus5.png,TMT_Control,1,8,1.0,34.62076950073242,34.62076950073242,0.0,,1.0,1.0,0.0,1,2,0.03146289987489581,0.049600299913436174,34.62076950073242,34.62076950073242,0.0,,7.0
9,['3'],3,TMTstop-control_1_1linestimulus6.png,TMTstop-control_1_1greenlinestimulus6.png,TMTstop-control_1_1redlinestimulus6.png,TMT_Control,1,9,1.0,34.8542594909668,34.8542594909668,0.0,,1.0,1.0,0.0,3,-0.06398189999163151,34.8542594909668,34.8542594909668,0.0,,8.0
10,['2'],2,TMTstop-control_1_1linestimulus7.png,TMTstop-control_1_1greenlinestimulus7.png,TMTstop-control_1_1redlinestimulus7.png,TMT_Control,1,10,1.0,34.967124938964844,34.967124938964844,0.0,,1.0,1.0,0.0,1,2,-0.028834600001573563,0.00034989998675882816,34.967124938964844,34.967124938964844,0.0,,9.0
11,['3'],3,TMTstop-control_1_1linestimulus8.png,TMTstop-control_1_1greenlinestimulus8.png,TMTstop-control_1_1redlinestimulus8.png,TMT_Control,1,11,1.0,35.07951354980469,35.07951354980469,0.0,,1.0,1.0,0.0,3,-0.010091400006785989,35.07951354980469,35.07951354980469,0.0,,10.0
12,['1'],1,TMTstop-control_1_1linestimulus9.png,TMTstop-control_1_1greenlinestimulus9.png,TMTstop-control_1_1redlinestimulus9.png,TMT_Control,1,12,1.0,35.19428253173828,35.19428253173828,0.0,,1.0,1.0,0.0,1,0.003507999936118722,35.19428253173828,35.19428253173828,0.0,,11.0
13,['3'],3,TMTstop-control_1_1linestimulus10.png,TMTstop-control_1_1greenlinestimulus10.png,TMTstop-control_1_1redlinestimulus10.png,TMT_Control,1,13,1.0,35.319671630859375,35.319671630859375,0.0,,1.0,1.0,0.0,2,3,-0.08073450019583106,0.031070899916812778,35.319671630859375,35.319671630859375,0.0,,12.0
14,['1'],1,TMTstop-control_1_1linestimulus11.png,TMTstop-control_1_1greenlinestimulus11.png,TMTstop-control_1_1redlinestimulus11.png,TMT_Control,1,14,1.0,35.49546813964844,35.49546813964844,0.0,,1.0,1.0,0.0,1,0.014299600152298808,35.49546813964844,35.49546813964844,0.0,,13.0
15,['3'],3,TMTstop-control_1_1linestimulus12.png,TMTstop-control_1_1greenlinestimulus12.png,TMTstop-control_1_1redlinestimulus12.png,TMT_Control,1,15,1.0,35.62525939941406,35.62525939941406,0.0,,1.0,1.0,0.0,2,3,-0.09260720014572144,0.02490449999459088,35.62525939941406,35.62525939941406,0.0,,14.0
16,['1'],1,TMTstop-control_1_1linestimulus13.png,TMTstop-control_1_1greenlinestimulus13.png,TMTstop-control_1_1redlinestimulus13.png,TMT_Control,1,16,1.0,35.80972671508789,35.80972671508789,0.0,,1.0,1.0,0.0,1,0.005131799960508943,35.80972671508789,35.80972671508789,0.0,,15.0
17,['2'],2,TMTstop-control_1_1linestimulus14.png,TMTstop-control_1_1greenlinestimulus14.png,TMTstop-control_1_1redlinestimulus14.png,TMT_Control,1,17,1.0,35.95973587036133,35.95973587036133,0.0,,1.0,1.0,0.0,2,-0.1022164998576045,35.95973587036133,35.95973587036133,0.0,,16.0
18,['1'],1,TMTstop-control_1_1linestimulus15.png,TMTstop-control_1_1greenlinestimulus15.png,TMTstop-control_1_1redlinestimulus15.png,TMT_Control,1,18,1.0,36.07646179199219,36.07646179199219,0.0,,1.0,1.0,0.0,3,1,-0.1079437998123467,0.012931300094351172,36.07646179199219,36.07646179199219,0.0,,17.0
19,['3'],3,TMTstop-control_1_1linestimulus16.png,TMTstop-control_1_1greenlinestimulus16.png,TMTstop-control_1_1redlinestimulus16.png,TMT_Control,1,19,1.0,36.245845794677734,36.245845794677734,0.0,,1.0,1.0,0.0,2,3,-0.08998910011723638,0.024667999939993024,36.245845794677734,36.245845794677734,0.0,,18.0
20,['1'],1,TMTstop-control_1_1linestimulus17.png,TMTstop-control_1_1greenlinestimulus17.png,TMTstop-control_1_1redlinestimulus17.png,TMT_Control,1,20,1.0,36.427207946777344,36.427207946777344,0.0,,1.0,1.0,0.0,1,-0.014118299819529057,36.427207946777344,36.427207946777344,0.0,,19.0
21,['3'],3,TMTstop-control_1_1linestimulus18.png,TMTstop-control_1_1greenlinestimulus18.png,TMTstop-control_1_1redlinestimulus18.png,TMT_Control,1,21,1.0,36.53585433959961,36.53585433959961,0.0,,1.0,1.0,0.0,2,3,-0.09314149990677834,0.03027360001578927,36.53585433959961,36.53585433959961,0.0,,20.0
22,['1'],1,TMTstop-control_1_1linestimulus19.png,TMTstop-control_1_1greenlinestimulus19.png,TMTstop-control_1_1redlinestimulus19.png,TMT_Control,1,22,1.0,36.710140228271484,36.710140228271484,0.0,,1.0,1.0,0.0,1,-0.00537390005774796,36.710140228271484,36.710140228271484,0.0,,21.0
23,['3'],3,TMTstop-control_1_1linestimulus20.png,TMTstop-control_1_1greenlinestimulus20.png,TMTstop-control_1_1redlinestimulus20.png,TMT_Control,1,23,1.0,36.85633850097656,36.85633850097656,0.0,,1.0,1.0,0.0,2,3,-0.1253285000566393,-0.005269699962809682,36.85633850097656,36.85633850097656,0.0,,22.0
24,['1'],1,TMTstop-control_1_1linestimulus21.png,TMTstop-control_1_1greenlinestimulus21.png,TMTstop-control_1_1redlinestimulus21.png,TMT_Control,1,24,1.0,36.98141098022461,36.98141098022461,0.0,,1.0,1.0,0.0,1,0.021511999890208244,36.98141098022461,36.98141098022461,0.0,,23.0
25,['3'],3,TMTstop-control_1_1linestimulus22.png,TMTstop-control_1_1greenlinestimulus22.png,TMTstop-control_1_1redlinestimulus22.png,TMT_Control,1,25,1.0,37.11960983276367,37.11960983276367,0.0,,1.0,1.0,0.0,2,3,-0.08509080018848181,0.04361399984918535,37.11960983276367,37.11960983276367,0.0,,24.0
None,None,None,TMTstop-control_1_1linestimulus23.png,TMTstop-control_1_1greenlinestimulus23.png,TMTstop-control_1_1redlinestimulus23.png,TMT_Control,1,Feedback_last,1.0,37.292789459228516,37.292789459228516,0.0,,0.0,0.0,0.0,1,2,3,-0.0019127000123262405,0.0333207999356091,0.18460829998366535,37.292789459228516,37.292789459228516,0.0,,25.0

extraInfo
participant,
session,001
date,2022_Feb_02_1833
expName,TMT_fmri
psychopyVersion,2021.2.3
frameRate,None
