NumberLetter,corrAns,StimFile,Correct_StimFile,False_StimFile,DurationTrial,Condition_rows,restartpractice.thisRepN,restartpractice.thisTrialN,restartpractice.thisN,restartpractice.thisIndex,trials_practice.thisRepN,trials_practice.thisTrialN,trials_practice.thisN,trials_practice.thisIndex,Condition_trials.thisRepN,Condition_trials.thisTrialN,Condition_trials.thisN,Condition_trials.thisIndex,trials.thisRepN,trials.thisTrialN,trials.thisN,trials.thisIndex,Instruct.started,Instruct.stopped,image_2.started,image_2.stopped,key_resp_6.keys,key_resp_6.rt,key_resp_6.started,key_resp_6.stopped,polygon.started,polygon.stopped,Stim_practice.started,Stim_practice.stopped,key_resp_practice.keys,key_resp_practice.rt,key_resp_practice.started,key_resp_practice.stopped,text_5.started,text_5.stopped,key_resp_5.keys,key_resp_5.rt,key_resp_5.started,key_resp_5.stopped,Stim.started,Stim.stopped,key_resp_2.keys,key_resp_2.corr,key_resp_2.rt,key_resp_2.started,key_resp_2.stopped,participant,session,date,expName,psychopyVersion,frameRate,
,,,,,,,,,,,,,,,,,,,,,,,6.45816809986718,None,6.94503299985081,None,2,0.4055643999017775,6.94503299985081,None,,,,,,,,,,,,,,,,,,,,,,,001,2022_Jan_12_1710,TMTAstop-A,2021.2.3,143.83191238712567,
1,['1'],TMTstop-A_1_practice.png,TMTstop-A_1_practice.png,TMTstop-A_1_practice.png,10,,0,0,0,0,0,0,0,0,,,,,,,,,,,,,,,,,7.369194799801335,None,10.417797799920663,None,1,0.34843330015428364,10.417797799920663,None,,,,,,,,,,,,,,,001,2022_Jan_12_1710,TMTAstop-A,2021.2.3,143.83191238712567,
2,['2'],TMTstop-A_1_practice.png,TMTstop-A_1_practicefirstgreen.png,TMTstop-A_1_practicefirstred.png,10,,0,0,0,0,0,1,1,1,,,,,,,,,,,,,,,,,,,10.848631999921054,None,2,0.018338900059461594,10.848631999921054,None,,,,,,,,,,,,,,,001,2022_Jan_12_1710,TMTAstop-A,2021.2.3,143.83191238712567,
3,['3'],TMTstop-A_1_practicelinestimulus0.png,TMTstop-A_1_practicegreenlinestimulus0.png,TMTstop-A_1_practiceredlinestimulus0.png,10,,0,0,0,0,0,2,2,2,,,,,,,,,,,,,,,,,,,10.946520199999213,None,3,0.021921199979260564,10.946520199999213,None,,,,,,,,,,,,,,,001,2022_Jan_12_1710,TMTAstop-A,2021.2.3,143.83191238712567,
4,['1'],TMTstop-A_1_practicelinestimulus1.png,TMTstop-A_1_practicegreenlinestimulus1.png,TMTstop-A_1_practiceredlinestimulus1.png,10,,0,0,0,0,0,3,3,3,,,,,,,,,,,,,,,,,,,11.043470799922943,None,1,0.05373719986528158,11.043470799922943,None,,,,,,,,,,,,,,,001,2022_Jan_12_1710,TMTAstop-A,2021.2.3,143.83191238712567,
5,['2'],TMTstop-A_1_practicelinestimulus2.png,TMTstop-A_1_practicegreenlinestimulus2.png,TMTstop-A_1_practiceredlinestimulus2.png,10,,0,0,0,0,0,4,4,4,,,,,,,,,,,,,,,,,,,11.168944499921054,None,2,0.25501870014704764,11.168944499921054,None,,,,,,,,,,,,,,,001,2022_Jan_12_1710,TMTAstop-A,2021.2.3,143.83191238712567,
6,['3'],TMTstop-A_1_practicelinestimulus3.png,TMTstop-A_1_practicegreenlinestimulus3.png,TMTstop-A_1_practiceredlinestimulus3.png,10,,0,0,0,0,0,5,5,5,,,,,,,,,,,,,,,,,,,11.523351599927992,None,3,0.282104599988088,11.523351599927992,None,,,,,,,,,,,,,,,001,2022_Jan_12_1710,TMTAstop-A,2021.2.3,143.83191238712567,
7,['1'],TMTstop-A_1_practicelinestimulus4.png,TMTstop-A_1_practicegreenlinestimulus4.png,TMTstop-A_1_practiceredlinestimulus4.png,10,,0,0,0,0,0,6,6,6,,,,,,,,,,,,,,,,,,,11.911521699978039,None,1,0.02937610005028546,11.911521699978039,None,,,,,,,,,,,,,,,001,2022_Jan_12_1710,TMTAstop-A,2021.2.3,143.83191238712567,
8,['3'],TMTstop-A_1_practicelinestimulus5.png,TMTstop-A_1_practicegreenlinestimulus5.png,TMTstop-A_1_practiceredlinestimulus5.png,10,,0,0,0,0,0,7,7,7,,,,,,,,,,,,,,,,,,,12.022474800003693,None,3,0.06624229997396469,12.022474800003693,None,,,,,,,,,,,,,,,001,2022_Jan_12_1710,TMTAstop-A,2021.2.3,143.83191238712567,
9,['2'],TMTstop-A_1_practicelinestimulus6.png,TMTstop-A_1_practicegreenlinestimulus6.png,TMTstop-A_1_practiceredlinestimulus6.png,10,,0,0,0,0,0,8,8,8,,,,,,,,,,,,,,,,,,,12.161459299968556,None,2,0.1319392998702824,12.161459299968556,None,,,,,,,,,,,,,,,001,2022_Jan_12_1710,TMTAstop-A,2021.2.3,143.83191238712567,
10,['3'],TMTstop-A_1_practicelinestimulus7.png,TMTstop-A_1_practicegreenlinestimulus7.png,TMTstop-A_1_practiceredlinestimulus7.png,10,,0,0,0,0,0,9,9,9,,,,,,,,,,,,,,,,,,,12.390617899829522,None,3,0.29744959995150566,12.390617899829522,None,,,,,,,,,,,,,,,001,2022_Jan_12_1710,TMTAstop-A,2021.2.3,143.83191238712567,
11,['1'],TMTstop-A_1_practicelinestimulus8.png,TMTstop-A_1_practicegreenlinestimulus8.png,TMTstop-A_1_practiceredlinestimulus8.png,10,,0,0,0,0,0,10,10,10,,,,,,,,,,,,,,,,,,,12.793228899827227,None,1,0.009349200176075101,12.793228899827227,None,,,,,,,,,,,,,,,001,2022_Jan_12_1710,TMTAstop-A,2021.2.3,143.83191238712567,
12,['2'],TMTstop-A_1_practicelinestimulus9.png,TMTstop-A_1_practicegreenlinestimulus9.png,TMTstop-A_1_practiceredlinestimulus9.png,10,,0,0,0,0,0,11,11,11,,,,,,,,,,,,,,,,,,,12.876599699957296,None,2,0.030798600055277348,12.876599699957296,None,,,,,,,,,,,,,,,001,2022_Jan_12_1710,TMTAstop-A,2021.2.3,143.83191238712567,
None,None,TMTstop-A_1_practicelinestimulus10.png,TMTstop-A_1_practicegreenlinestimulus10.png,TMTstop-A_1_practiceredlinestimulus10.png,None,,0,0,0,0,0,12,12,12,,,,,,,,,,,,,,,,,,,12.988513699965551,None,1,0.42142340005375445,12.988513699965551,None,,,,,,,,,,,,,,,001,2022_Jan_12_1710,TMTAstop-A,2021.2.3,143.83191238712567,
,,,,,,,0,0,0,0,,,,,,,,,,,,,,,,,,,,,,,,,,,,,14.096837199991569,None,2,0.6147233999799937,14.096837199991569,None,,,,,,,,,001,2022_Jan_12_1710,TMTAstop-A,2021.2.3,143.83191238712567,
1,['2'],TMTstop-A_1_1.png,TMTstop-A_1_1.png,TMTstop-A_1_1.png,10,0:26,,,,,,,,,0,0,0,0,0,0,0,0,,,,,,,,,14.776540099876001,None,,,,,,,,,,,,,17.779012499842793,None,['2'],1,[0.8194709999952465],17.779012499842793,None,,001,2022_Jan_12_1710,TMTAstop-A,2021.2.3,143.83191238712567,
2,['1'],TMTstop-A_1_1.png,TMTstop-A_1_1firstgreen.png,TMTstop-A_1_1firstred.png,10,0:26,,,,,,,,,0,0,0,0,0,1,1,1,,,,,,,,,,,,,,,,,,,,,,,18.674935299903154,None,"['2', '3', '1']",1,"[0.33644210011698306, 0.7102340999990702, 1.1105742000509053]",18.674935299903154,None,,001,2022_Jan_12_1710,TMTAstop-A,2021.2.3,143.83191238712567,
3,['2'],TMTstop-A_1_1linestimulus0.png,TMTstop-A_1_1greenlinestimulus0.png,TMTstop-A_1_1redlinestimulus0.png,10,0:26,,,,,,,,,0,0,0,0,0,2,2,2,,,,,,,,,,,,,,,,,,,,,,,19.855483199935406,None,['2'],1,[0.6126470998860896],19.855483199935406,None,,001,2022_Jan_12_1710,TMTAstop-A,2021.2.3,143.83191238712567,
4,['3'],TMTstop-A_1_1linestimulus1.png,TMTstop-A_1_1greenlinestimulus1.png,TMTstop-A_1_1redlinestimulus1.png,10,0:26,,,,,,,,,0,0,0,0,0,3,3,3,,,,,,,,,,,,,,,,,,,,,,,20.5360785999801,None,['3'],1,[0.37699380004778504],20.5360785999801,None,,001,2022_Jan_12_1710,TMTAstop-A,2021.2.3,143.83191238712567,
5,['2'],TMTstop-A_1_1linestimulus2.png,TMTstop-A_1_1greenlinestimulus2.png,TMTstop-A_1_1redlinestimulus2.png,10,0:26,,,,,,,,,0,0,0,0,0,4,4,4,,,,,,,,,,,,,,,,,,,,,,,20.98727049981244,None,['2'],1,[0.44246069993823767],20.98727049981244,None,,001,2022_Jan_12_1710,TMTAstop-A,2021.2.3,143.83191238712567,
6,['3'],TMTstop-A_1_1linestimulus3.png,TMTstop-A_1_1greenlinestimulus3.png,TMTstop-A_1_1redlinestimulus3.png,10,0:26,,,,,,,,,0,0,0,0,0,5,5,5,,,,,,,,,,,,,,,,,,,,,,,21.501262299949303,None,"['2', '3']",1,"[0.29497850011102855, 0.6608645999804139]",21.501262299949303,None,,001,2022_Jan_12_1710,TMTAstop-A,2021.2.3,143.83191238712567,
7,['2'],TMTstop-A_1_1linestimulus4.png,TMTstop-A_1_1greenlinestimulus4.png,TMTstop-A_1_1redlinestimulus4.png,10,0:26,,,,,,,,,0,0,0,0,0,6,6,6,,,,,,,,,,,,,,,,,,,,,,,22.244444999843836,None,"['1', '3', '1', '2']",1,"[0.26517060003243387, 0.4435334999579936, 0.6349287999328226, 0.700048599857837]",22.244444999843836,None,,001,2022_Jan_12_1710,TMTAstop-A,2021.2.3,143.83191238712567,
8,['1'],TMTstop-A_1_1linestimulus5.png,TMTstop-A_1_1greenlinestimulus5.png,TMTstop-A_1_1redlinestimulus5.png,10,0:26,,,,,,,,,0,0,0,0,0,7,7,7,,,,,,,,,,,,,,,,,,,,,,,23.02252050000243,None,"['3', '1']",1,"[0.058189500123262405, 0.2544076000340283]",23.02252050000243,None,,001,2022_Jan_12_1710,TMTAstop-A,2021.2.3,143.83191238712567,
9,['2'],TMTstop-A_1_1linestimulus6.png,TMTstop-A_1_1greenlinestimulus6.png,TMTstop-A_1_1redlinestimulus6.png,10,0:26,,,,,,,,,0,0,0,0,0,8,8,8,,,,,,,,,,,,,,,,,,,,,,,23.376919199945405,None,['2'],1,[-0.01543250004760921],23.376919199945405,None,,001,2022_Jan_12_1710,TMTAstop-A,2021.2.3,143.83191238712567,
10,['1'],TMTstop-A_1_1linestimulus7.png,TMTstop-A_1_1greenlinestimulus7.png,TMTstop-A_1_1redlinestimulus7.png,10,0:26,,,,,,,,,0,0,0,0,0,9,9,9,,,,,,,,,,,,,,,,,,,,,,,23.453021199908108,None,"['3', '1']",1,"[0.02542109997011721, 0.20760360010899603]",23.453021199908108,None,,001,2022_Jan_12_1710,TMTAstop-A,2021.2.3,143.83191238712567,
11,['2'],TMTstop-A_1_1linestimulus8.png,TMTstop-A_1_1greenlinestimulus8.png,TMTstop-A_1_1redlinestimulus8.png,10,0:26,,,,,,,,,0,0,0,0,0,10,10,10,,,,,,,,,,,,,,,,,,,,,,,23.758414899930358,None,['2'],1,[-0.02392489998601377],23.758414899930358,None,,001,2022_Jan_12_1710,TMTAstop-A,2021.2.3,143.83191238712567,
12,['3'],TMTstop-A_1_1linestimulus9.png,TMTstop-A_1_1greenlinestimulus9.png,TMTstop-A_1_1redlinestimulus9.png,10,0:26,,,,,,,,,0,0,0,0,0,11,11,11,,,,,,,,,,,,,,,,,,,,,,,23.82776159979403,None,['3'],1,[0.018028800142928958],23.82776159979403,None,,001,2022_Jan_12_1710,TMTAstop-A,2021.2.3,143.83191238712567,
13,['2'],TMTstop-A_1_1linestimulus10.png,TMTstop-A_1_1greenlinestimulus10.png,TMTstop-A_1_1redlinestimulus10.png,1,0:26,,,,,,,,,0,0,0,0,0,12,12,12,,,,,,,,,,,,,,,,,,,,,,,23.925096599850804,None,"['1', '2']",1,"[0.5414806001354009, 0.6180887001100928]",23.925096599850804,None,,001,2022_Jan_12_1710,TMTAstop-A,2021.2.3,143.83191238712567,
14,['3'],TMTstop-A_1_1linestimulus11.png,TMTstop-A_1_1greenlinestimulus11.png,TMTstop-A_1_1redlinestimulus11.png,None,0:26,,,,,,,,,0,0,0,0,0,13,13,13,,,,,,,,,,,,,,,,,,,,,,,24.619591999799013,None,"['1', '1', '2', '3']",1,"[0.6081938000861555, 1.12863380019553, 1.2443013000302017, 1.3710428001359105]",24.619591999799013,None,,001,2022_Jan_12_1710,TMTAstop-A,2021.2.3,143.83191238712567,
15,['1'],TMTstop-A_1_1linestimulus12.png,TMTstop-A_1_1greenlinestimulus12.png,TMTstop-A_1_1redlinestimulus12.png,None,0:26,,,,,,,,,0,0,0,0,0,14,14,14,,,,,,,,,,,,,,,,,,,,,,,26.10685639991425,None,"['3', '3', '1']",1,"[0.35679670004174113, 0.9519519999157637, 1.2944215000607073]",26.10685639991425,None,,001,2022_Jan_12_1710,TMTAstop-A,2021.2.3,143.83191238712567,
16,['3'],TMTstop-A_1_1linestimulus13.png,TMTstop-A_1_1greenlinestimulus13.png,TMTstop-A_1_1redlinestimulus13.png,None,0:26,,,,,,,,,0,0,0,0,0,15,15,15,,,,,,,,,,,,,,,,,,,,,,,27.48727699997835,None,"['2', '3']",1,"[0.470174300018698, 0.7795019000768661]",27.48727699997835,None,,001,2022_Jan_12_1710,TMTAstop-A,2021.2.3,143.83191238712567,
17,['2'],TMTstop-A_1_1linestimulus14.png,TMTstop-A_1_1greenlinestimulus14.png,TMTstop-A_1_1redlinestimulus14.png,None,0:26,,,,,,,,,0,0,0,0,0,16,16,16,,,,,,,,,,,,,,,,,,,,,,,28.37605129997246,None,"['1', '2']",1,"[0.4559915999416262, 0.6592514000367373]",28.37605129997246,None,,001,2022_Jan_12_1710,TMTAstop-A,2021.2.3,143.83191238712567,
18,['3'],TMTstop-A_1_1linestimulus15.png,TMTstop-A_1_1greenlinestimulus15.png,TMTstop-A_1_1redlinestimulus15.png,None,0:26,,,,,,,,,0,0,0,0,0,17,17,17,,,,,,,,,,,,,,,,,,,,,,,29.112425099825487,None,['3'],1,[0.1338069001212716],29.112425099825487,None,,001,2022_Jan_12_1710,TMTAstop-A,2021.2.3,143.83191238712567,
19,['1'],TMTstop-A_1_1linestimulus16.png,TMTstop-A_1_1greenlinestimulus16.png,TMTstop-A_1_1redlinestimulus16.png,None,0:26,,,,,,,,,0,0,0,0,0,18,18,18,,,,,,,,,,,,,,,,,,,,,,,29.320833099773154,None,['1'],1,[0.3935300000011921],29.320833099773154,None,,001,2022_Jan_12_1710,TMTAstop-A,2021.2.3,143.83191238712567,
20,['3'],TMTstop-A_1_1linestimulus17.png,TMTstop-A_1_1greenlinestimulus17.png,TMTstop-A_1_1redlinestimulus17.png,None,0:26,,,,,,,,,0,0,0,0,0,19,19,19,,,,,,,,,,,,,,,,,,,,,,,29.792745199985802,None,"['2', '3']",1,"[0.012731999857351184, 0.1586228997912258]",29.792745199985802,None,,001,2022_Jan_12_1710,TMTAstop-A,2021.2.3,143.83191238712567,
21,['1'],TMTstop-A_1_1linestimulus18.png,TMTstop-A_1_1greenlinestimulus18.png,TMTstop-A_1_1redlinestimulus18.png,None,0:26,,,,,,,,,0,0,0,0,0,20,20,20,,,,,,,,,,,,,,,,,,,,,,,30.04286379995756,None,"['3', '1']",1,"[0.8125918998848647, 1.4554454998578876]",30.04286379995756,None,,001,2022_Jan_12_1710,TMTAstop-A,2021.2.3,143.83191238712567,
22,['3'],TMTstop-A_1_1linestimulus19.png,TMTstop-A_1_1greenlinestimulus19.png,TMTstop-A_1_1redlinestimulus19.png,None,0:26,,,,,,,,,0,0,0,0,0,21,21,21,,,,,,,,,,,,,,,,,,,,,,,31.584295599954203,None,"['2', '3']",1,"[0.4773830999620259, 1.0125085001345724]",31.584295599954203,None,,001,2022_Jan_12_1710,TMTAstop-A,2021.2.3,143.83191238712567,
23,['1'],TMTstop-A_1_1linestimulus20.png,TMTstop-A_1_1greenlinestimulus20.png,TMTstop-A_1_1redlinestimulus20.png,None,0:26,,,,,,,,,0,0,0,0,0,22,22,22,,,,,,,,,,,,,,,,,,,,,,,32.68849339988083,None,"['2', '3', '1']",1,"[0.6007015998475254, 0.9622825998812914, 1.5445977000053972]",32.68849339988083,None,,001,2022_Jan_12_1710,TMTAstop-A,2021.2.3,143.83191238712567,
24,['2'],TMTstop-A_1_1linestimulus21.png,TMTstop-A_1_1greenlinestimulus21.png,TMTstop-A_1_1redlinestimulus21.png,None,0:26,,,,,,,,,0,0,0,0,0,23,23,23,,,,,,,,,,,,,,,,,,,,,,,34.328047899995,None,['2'],1,[0.7377313999459147],34.328047899995,None,,001,2022_Jan_12_1710,TMTAstop-A,2021.2.3,143.83191238712567,
25,['3'],TMTstop-A_1_1linestimulus22.png,TMTstop-A_1_1greenlinestimulus22.png,TMTstop-A_1_1redlinestimulus22.png,None,0:26,,,,,,,,,0,0,0,0,0,24,24,24,,,,,,,,,,,,,,,,,,,,,,,35.146914599929005,None,['3'],1,[0.6054161000065506],35.146914599929005,None,,001,2022_Jan_12_1710,TMTAstop-A,2021.2.3,143.83191238712567,
None,None,TMTstop-A_1_1linestimulus23.png,TMTstop-A_1_1greenlinestimulus23.png,TMTstop-A_1_1redlinestimulus23.png,None,0:26,,,,,,,,,0,0,0,0,0,25,25,25,,,,,,,,,,,,,,,,,,,,,,,35.82775479997508,None,None,1,,35.82775479997508,None,,001,2022_Jan_12_1710,TMTAstop-A,2021.2.3,143.83191238712567,
,,,,,,0:26,,,,,,,,,0,0,0,0,,,,,,,,,,,,,,,,,,,,,,,,,,,,,,,,,,,001,2022_Jan_12_1710,TMTAstop-A,2021.2.3,143.83191238712567,
