Block_file,Condition_rows,NumberLetter,corrAns,Correct,StimFile,Correct_StimFile,False_StimFile,Version,Block,TrialNumber_session,Blocks_TMTControl.thisRepN,Blocks_TMTControl.thisTrialN,Blocks_TMTControl.thisN,Blocks_TMTControl.thisIndex,trials_TMTControl.thisRepN,trials_TMTControl.thisTrialN,trials_TMTControl.thisN,trials_TMTControl.thisIndex,Blocks_TMTA.thisRepN,Blocks_TMTA.thisTrialN,Blocks_TMTA.thisN,Blocks_TMTA.thisIndex,trials_TMTA.thisRepN,trials_TMTA.thisTrialN,trials_TMTA.thisN,trials_TMTA.thisIndex,Attempts,First_attempt,Stim.started,Stim.stopped,key_resp_2.keys,key_resp_2.corr,key_resp_2.rt,key_resp_2.started,key_resp_2.stopped,participant,session,date,expName,psychopyVersion,frameRate,
TMTstop-Control_1_1.xlsx,0:26,1,['2'],2,TMTstop-control_1_1.png,TMTstop-control_1_1.png,TMTstop-control_1_1.png,TMT_Control,1,1,0,0,0,0,0,0,0,0,,,,,,,,,2,0,10.338056599997799,None,"['1', '2']",1,"[0.7564323999977205, 1.0890872000018135]",10.338056599997799,None,,001,2022_Mar_30_1023,TMT_fmri,2021.2.3,146.8107565281561,
TMTstop-Control_1_1.xlsx,0:26,2,['1'],1,TMTstop-control_1_1.png,TMTstop-control_1_1firstgreen.png,TMTstop-control_1_1firstred.png,TMT_Control,1,2,0,0,0,0,0,1,1,1,,,,,,,,,3,0,11.504767399994307,None,"['3', '2', '1']",1,"[0.2409073000017088, 0.25911730001098476, 0.46937820001039654]",11.504767399994307,None,,001,2022_Mar_30_1023,TMT_fmri,2021.2.3,146.8107565281561,
TMTstop-Control_1_1.xlsx,0:26,3,['2'],2,TMTstop-control_1_1linestimulus0.png,TMTstop-control_1_1greenlinestimulus0.png,TMTstop-control_1_1redlinestimulus0.png,TMT_Control,1,3,0,0,0,0,0,2,2,2,,,,,,,,,1,1,12.074260099994717,None,['2'],1,[0.07030430001032073],12.074260099994717,None,,001,2022_Mar_30_1023,TMT_fmri,2021.2.3,146.8107565281561,
TMTstop-Control_1_1.xlsx,0:26,4,['3'],3,TMTstop-control_1_1linestimulus1.png,TMTstop-control_1_1greenlinestimulus1.png,TMTstop-control_1_1redlinestimulus1.png,TMT_Control,1,4,0,0,0,0,0,3,3,3,,,,,,,,,1,1,12.227190299992799,None,['3'],1,[0.02107339999929536],12.227190299992799,None,,001,2022_Mar_30_1023,TMT_fmri,2021.2.3,146.8107565281561,
TMTstop-Control_1_1.xlsx,0:26,5,['2'],2,TMTstop-control_1_1linestimulus2.png,TMTstop-control_1_1greenlinestimulus2.png,TMTstop-control_1_1redlinestimulus2.png,TMT_Control,1,5,0,0,0,0,0,4,4,4,,,,,,,,,3,0,12.324215600005118,None,"['1', '3', '2']",1,"[-0.03976659999170806, 0.09931460001098458, 0.13516279999748804]",12.324215600005118,None,,001,2022_Mar_30_1023,TMT_fmri,2021.2.3,146.8107565281561,
TMTstop-Control_1_1.xlsx,0:26,6,['1'],1,TMTstop-control_1_1linestimulus3.png,TMTstop-control_1_1greenlinestimulus3.png,TMTstop-control_1_1redlinestimulus3.png,TMT_Control,1,6,0,0,0,0,0,5,5,5,,,,,,,,,1,1,12.56032679999771,None,['1'],1,[0.04462309999507852],12.56032679999771,None,,001,2022_Mar_30_1023,TMT_fmri,2021.2.3,146.8107565281561,
TMTstop-Control_1_1.xlsx,0:26,7,['3'],3,TMTstop-control_1_1linestimulus4.png,TMTstop-control_1_1greenlinestimulus4.png,TMTstop-control_1_1redlinestimulus4.png,TMT_Control,1,7,0,0,0,0,0,6,6,6,,,,,,,,,1,1,12.685344299999997,None,['3'],1,[0.059175199989113025],12.685344299999997,None,,001,2022_Mar_30_1023,TMT_fmri,2021.2.3,146.8107565281561,
TMTstop-Control_1_1.xlsx,0:26,8,['2'],2,TMTstop-control_1_1linestimulus4.png,TMTstop-control_1_1greenlinestimulus5.png,TMTstop-control_1_1redlinestimulus5.png,TMT_Control,1,8,0,0,0,0,0,7,7,7,,,,,,,,,1,1,12.824219200003427,None,['2'],1,[-0.04971490000025369],12.824219200003427,None,,001,2022_Mar_30_1023,TMT_fmri,2021.2.3,146.8107565281561,
TMTstop-Control_1_1.xlsx,0:26,9,['3'],3,TMTstop-control_1_1linestimulus6.png,TMTstop-control_1_1greenlinestimulus6.png,TMTstop-control_1_1redlinestimulus6.png,TMT_Control,1,9,0,0,0,0,0,8,8,8,,,,,,,,,3,0,12.893466399997124,None,"['1', '1', '3']",1,"[0.019578999999794178, 1.9004921000014292, 2.0198838999931468]",12.893466399997124,None,,001,2022_Mar_30_1023,TMT_fmri,2021.2.3,146.8107565281561,
TMTstop-Control_1_1.xlsx,0:26,10,['2'],2,TMTstop-control_1_1linestimulus7.png,TMTstop-control_1_1greenlinestimulus7.png,TMTstop-control_1_1redlinestimulus7.png,TMT_Control,1,10,0,0,0,0,0,9,9,9,,,,,,,,,1,1,14.984144699992612,None,['2'],1,[-0.05033430000185035],14.984144699992612,None,,001,2022_Mar_30_1023,TMT_fmri,2021.2.3,146.8107565281561,
TMTstop-Control_1_1.xlsx,0:26,11,['3'],3,TMTstop-control_1_1linestimulus8.png,TMTstop-control_1_1greenlinestimulus8.png,TMTstop-control_1_1redlinestimulus8.png,TMT_Control,1,11,0,0,0,0,0,10,10,10,,,,,,,,,5,0,15.053342300001532,None,"['1', '3', '2', '1', '3']",1,"[0.03444030000537168, 0.12663900000916328, 0.1501398000109475, 0.26326150000386406, 0.37338350000209175]",15.053342300001532,None,,001,2022_Mar_30_1023,TMT_fmri,2021.2.3,146.8107565281561,
TMTstop-Control_1_1.xlsx,0:26,12,['1'],1,TMTstop-control_1_1linestimulus9.png,TMTstop-control_1_1greenlinestimulus9.png,TMTstop-control_1_1redlinestimulus9.png,TMT_Control,1,12,0,0,0,0,0,11,11,11,,,,,,,,,2,0,15.498127400001977,None,"['2', '1']",1,"[-0.056120300010661595, 0.06119919999036938]",15.498127400001977,None,,001,2022_Mar_30_1023,TMT_fmri,2021.2.3,146.8107565281561,
TMTstop-Control_1_1.xlsx,0:26,13,['3'],3,TMTstop-control_1_1linestimulus10.png,TMTstop-control_1_1greenlinestimulus10.png,TMTstop-control_1_1redlinestimulus10.png,TMT_Control,1,13,0,0,0,0,0,12,12,12,,,,,,,,,1,1,15.650614800004405,None,['3'],1,[0.03193660000397358],15.650614800004405,None,,001,2022_Mar_30_1023,TMT_fmri,2021.2.3,146.8107565281561,
TMTstop-Control_1_1.xlsx,0:26,14,['1'],1,TMTstop-control_1_1linestimulus11.png,TMTstop-control_1_1greenlinestimulus11.png,TMTstop-control_1_1redlinestimulus11.png,TMT_Control,1,14,0,0,0,0,0,13,13,13,,,,,,,,,2,0,15.79618869999831,None,"['2', '1']",1,"[-0.09966750000603497, 0.00443960000120569]",15.79618869999831,None,,001,2022_Mar_30_1023,TMT_fmri,2021.2.3,146.8107565281561,
TMTstop-Control_1_1.xlsx,0:26,15,['3'],3,TMTstop-control_1_1linestimulus12.png,TMTstop-control_1_1greenlinestimulus12.png,TMTstop-control_1_1redlinestimulus12.png,TMT_Control,1,15,0,0,0,0,0,14,14,14,,,,,,,,,1,1,15.90737889999582,None,['3'],1,[0.02781179999874439],15.90737889999582,None,,001,2022_Mar_30_1023,TMT_fmri,2021.2.3,146.8107565281561,
TMTstop-Control_1_1.xlsx,0:26,16,['1'],1,TMTstop-control_1_1linestimulus13.png,TMTstop-control_1_1greenlinestimulus13.png,TMTstop-control_1_1redlinestimulus13.png,TMT_Control,1,16,0,0,0,0,0,15,15,15,,,,,,,,,2,0,16.004790699997102,None,"['2', '1']",1,"[-0.0484230000001844, 0.07003490001079626]",16.004790699997102,None,,001,2022_Mar_30_1023,TMT_fmri,2021.2.3,146.8107565281561,
TMTstop-Control_1_1.xlsx,0:26,17,['2'],2,TMTstop-control_1_1linestimulus14.png,TMTstop-control_1_1greenlinestimulus14.png,TMTstop-control_1_1redlinestimulus14.png,TMT_Control,1,17,0,0,0,0,0,16,16,16,,,,,,,,,2,0,16.157474999999977,None,"['3', '2']",1,"[0.03720579999207985, 0.05489369999850169]",16.157474999999977,None,,001,2022_Mar_30_1023,TMT_fmri,2021.2.3,146.8107565281561,
TMTstop-Control_1_1.xlsx,0:26,18,['1'],1,TMTstop-control_1_1linestimulus15.png,TMTstop-control_1_1greenlinestimulus15.png,TMTstop-control_1_1redlinestimulus15.png,TMT_Control,1,18,0,0,0,0,0,17,17,17,,,,,,,,,1,1,16.316887099994346,None,['1'],1,[0.009294600007706322],16.316887099994346,None,,001,2022_Mar_30_1023,TMT_fmri,2021.2.3,146.8107565281561,
TMTstop-Control_1_1.xlsx,0:26,19,['3'],3,TMTstop-control_1_1linestimulus16.png,TMTstop-control_1_1greenlinestimulus16.png,TMTstop-control_1_1redlinestimulus16.png,TMT_Control,1,19,0,0,0,0,0,18,18,18,,,,,,,,,1,1,16.40745899999456,None,['3'],1,[0.038608400005614385],16.40745899999456,None,,001,2022_Mar_30_1023,TMT_fmri,2021.2.3,146.8107565281561,
TMTstop-Control_1_1.xlsx,0:26,20,['1'],1,TMTstop-control_1_1linestimulus17.png,TMTstop-control_1_1greenlinestimulus17.png,TMTstop-control_1_1redlinestimulus17.png,TMT_Control,1,20,0,0,0,0,0,19,19,19,,,,,,,,,2,0,16.52547969999432,None,"['2', '1']",1,"[-0.04703719999815803, 0.0984774000098696]",16.52547969999432,None,,001,2022_Mar_30_1023,TMT_fmri,2021.2.3,146.8107565281561,
TMTstop-Control_1_1.xlsx,0:26,21,['3'],3,TMTstop-control_1_1linestimulus18.png,TMTstop-control_1_1greenlinestimulus18.png,TMTstop-control_1_1redlinestimulus18.png,TMT_Control,1,21,0,0,0,0,0,20,20,20,,,,,,,,,1,1,16.719915599998785,None,['3'],1,[0.015170400001807138],16.719915599998785,None,,001,2022_Mar_30_1023,TMT_fmri,2021.2.3,146.8107565281561,
TMTstop-Control_1_1.xlsx,0:26,22,['1'],1,TMTstop-control_1_1linestimulus19.png,TMTstop-control_1_1greenlinestimulus19.png,TMTstop-control_1_1redlinestimulus19.png,TMT_Control,1,22,0,0,0,0,0,21,21,21,,,,,,,,,2,0,16.817167100001825,None,"['2', '1']",1,"[-0.005636200003209524, 0.10455979999096598]",16.817167100001825,None,,001,2022_Mar_30_1023,TMT_fmri,2021.2.3,146.8107565281561,
TMTstop-Control_1_1.xlsx,0:26,23,['3'],3,TMTstop-control_1_1linestimulus20.png,TMTstop-control_1_1greenlinestimulus20.png,TMTstop-control_1_1redlinestimulus20.png,TMT_Control,1,23,0,0,0,0,0,22,22,22,,,,,,,,,1,1,17.01175809999404,None,['3'],1,[0.03765529999509454],17.01175809999404,None,,001,2022_Mar_30_1023,TMT_fmri,2021.2.3,146.8107565281561,
TMTstop-Control_1_1.xlsx,0:26,24,['1'],1,TMTstop-control_1_1linestimulus21.png,TMTstop-control_1_1greenlinestimulus21.png,TMTstop-control_1_1redlinestimulus21.png,TMT_Control,1,24,0,0,0,0,0,23,23,23,,,,,,,,,2,0,17.129768500002683,None,"['2', '1']",1,"[-0.06220020000182558, 0.09489219999522902]",17.129768500002683,None,,001,2022_Mar_30_1023,TMT_fmri,2021.2.3,146.8107565281561,
TMTstop-Control_1_1.xlsx,0:26,25,['3'],3,TMTstop-control_1_1linestimulus22.png,TMTstop-control_1_1greenlinestimulus22.png,TMTstop-control_1_1redlinestimulus22.png,TMT_Control,1,25,0,0,0,0,0,24,24,24,,,,,,,,,1,1,17.33156510000117,None,['3'],1,[0.027002100003301166],17.33156510000117,None,,001,2022_Mar_30_1023,TMT_fmri,2021.2.3,146.8107565281561,
TMTstop-Control_1_1.xlsx,0:26,None,None,None,TMTstop-control_1_1linestimulus23.png,TMTstop-control_1_1greenlinestimulus23.png,TMTstop-control_1_1redlinestimulus23.png,TMT_Control,1,Feedback_last,0,0,0,0,0,25,25,25,,,,,,,,,2,0,17.435419899993576,None,"['2', '1']",0,"[-0.06454110000049695, 0.09001870000793133]",17.435419899993576,None,,001,2022_Mar_30_1023,TMT_fmri,2021.2.3,146.8107565281561,
TMTstop-Control_1_2.xlsx,26:52,1,['1'],1,TMTstop-control_1_2.png,TMTstop-control_1_2.png,TMTstop-control_1_2.png,TMT_Control,2,26,0,1,1,1,0,0,0,0,,,,,,,,,3,0,21.54580089999945,None,"['2', '3', '1']",1,"[0.36853330000303686, 0.5889229000022169, 0.7489640999992844]",21.54580089999945,None,,001,2022_Mar_30_1023,TMT_fmri,2021.2.3,146.8107565281561,
TMTstop-Control_1_2.xlsx,26:52,2,['3'],3,TMTstop-control_1_2.png,TMTstop-control_1_2firstgreen.png,TMTstop-control_1_2firstred.png,TMT_Control,2,27,0,1,1,1,0,1,1,1,,,,,,,,,3,0,22.372652999998536,None,"['2', '1', '3']",1,"[-0.002272500001708977, 0.10292469999694731, 0.4164937000023201]",22.372652999998536,None,,001,2022_Mar_30_1023,TMT_fmri,2021.2.3,146.8107565281561,
TMTstop-Control_1_2.xlsx,26:52,3,['2'],2,TMTstop-control_1_2linestimulus0.png,TMTstop-control_1_2greenlinestimulus0.png,TMTstop-control_1_2redlinestimulus0.png,TMT_Control,2,28,0,1,1,1,0,2,2,2,,,,,,,,,1,1,22.858699300006265,None,['2'],1,[0.09420910000335425],22.858699300006265,None,,001,2022_Mar_30_1023,TMT_fmri,2021.2.3,146.8107565281561,
TMTstop-Control_1_2.xlsx,26:52,4,['3'],3,TMTstop-control_1_2linestimulus1.png,TMTstop-control_1_2greenlinestimulus1.png,TMTstop-control_1_2redlinestimulus1.png,TMT_Control,2,29,0,1,1,1,0,3,3,3,,,,,,,,,0,0,23.025274400002672,None,None,0,,23.025274400002672,None,,001,2022_Mar_30_1023,TMT_fmri,2021.2.3,146.8107565281561,
TMTstop-A_1_1.xlsx,0:26,1,['2'],2,TMTstop-A_1_1.png,TMTstop-A_1_1.png,TMTstop-A_1_1.png,TMT_A,1,1,,,,,,,,,0,0,0,0,0,0,0,0,1,1,30.2400728000066,None,['2'],1,[1.1306899000046542],30.2400728000066,None,,001,2022_Mar_30_1023,TMT_fmri,2021.2.3,146.8107565281561,
TMTstop-A_1_1.xlsx,0:26,2,['1'],1,TMTstop-A_1_1.png,TMTstop-A_1_1firstgreen.png,TMTstop-A_1_1firstred.png,TMT_A,1,2,,,,,,,,,0,0,0,0,0,1,1,1,1,1,31.441949999993085,None,['1'],1,[0.08600670000305399],31.441949999993085,None,,001,2022_Mar_30_1023,TMT_fmri,2021.2.3,146.8107565281561,
TMTstop-A_1_1.xlsx,0:26,3,['2'],2,TMTstop-A_1_1linestimulus0.png,TMTstop-A_1_1greenlinestimulus0.png,TMTstop-A_1_1redlinestimulus0.png,TMT_A,1,3,,,,,,,,,0,0,0,0,0,2,2,2,1,1,31.60847150000336,None,['2'],1,[0.13172510000003967],31.60847150000336,None,,001,2022_Mar_30_1023,TMT_fmri,2021.2.3,146.8107565281561,
TMTstop-A_1_1.xlsx,0:26,4,['3'],3,TMTstop-A_1_1linestimulus1.png,TMTstop-A_1_1greenlinestimulus1.png,TMTstop-A_1_1redlinestimulus1.png,TMT_A,1,4,,,,,,,,,0,0,0,0,0,3,3,3,1,1,31.810050899992348,None,['3'],1,[-0.06509819999337196],31.810050899992348,None,,001,2022_Mar_30_1023,TMT_fmri,2021.2.3,146.8107565281561,
TMTstop-A_1_1.xlsx,0:26,5,['2'],2,TMTstop-A_1_1linestimulus2.png,TMTstop-A_1_1greenlinestimulus2.png,TMTstop-A_1_1redlinestimulus2.png,TMT_A,1,5,,,,,,,,,0,0,0,0,0,4,4,4,6,0,31.89291249999951,None,"['1', '2', '3', '1', '3', '2']",1,"[0.049542799999471754, 0.23563120000471827, 0.25433569999586325, 0.44293829999514855, 0.6208550000010291, 0.6280996999994386]",31.89291249999951,None,,001,2022_Mar_30_1023,TMT_fmri,2021.2.3,146.8107565281561,
TMTstop-A_1_1.xlsx,0:26,6,['3'],3,TMTstop-A_1_1linestimulus3.png,TMTstop-A_1_1greenlinestimulus3.png,TMTstop-A_1_1redlinestimulus3.png,TMT_A,1,6,,,,,,,,,0,0,0,0,0,5,5,5,9,0,32.60153289999289,None,"['1', '3', '2', '1', '3', '2', '1', '2', '3']",1,"[0.09920060000149533, 0.2966506999946432, 0.3006722999998601, 0.4799211000063224, 0.6549210999946808, 0.6820946000079857, 0.8456486000068253, 1.0525513000029605, 1.0701454999943962]",32.60153289999289,None,,001,2022_Mar_30_1023,TMT_fmri,2021.2.3,146.8107565281561,
TMTstop-A_1_1.xlsx,0:26,7,['2'],2,TMTstop-A_1_1linestimulus4.png,TMTstop-A_1_1greenlinestimulus4.png,TMTstop-A_1_1redlinestimulus4.png,TMT_A,1,7,,,,,,,,,0,0,0,0,0,6,6,6,6,0,33.740397899993695,None,"['1', '2', '3', '1', '3', '2']",1,"[0.13367680000374094, 0.3919051999982912, 0.40028099999472033, 0.6048161999933654, 0.8237137999967672, 0.8288238999957684]",33.740397899993695,None,,001,2022_Mar_30_1023,TMT_fmri,2021.2.3,146.8107565281561,
TMTstop-A_1_1.xlsx,0:26,8,['1'],1,TMTstop-A_1_1linestimulus5.png,TMTstop-A_1_1greenlinestimulus5.png,TMTstop-A_1_1redlinestimulus5.png,TMT_A,1,8,,,,,,,,,0,0,0,0,0,7,7,7,1,1,34.65700229999493,None,['1'],1,[0.10412550000182819],34.65700229999493,None,,001,2022_Mar_30_1023,TMT_fmri,2021.2.3,146.8107565281561,
TMTstop-A_1_1.xlsx,0:26,9,['2'],2,TMTstop-A_1_1linestimulus6.png,TMTstop-A_1_1greenlinestimulus6.png,TMTstop-A_1_1redlinestimulus6.png,TMT_A,1,9,,,,,,,,,0,0,0,0,0,8,8,8,1,1,34.830688400004874,None,['2'],1,[0.15347489999840036],34.830688400004874,None,,001,2022_Mar_30_1023,TMT_fmri,2021.2.3,146.8107565281561,
TMTstop-A_1_1.xlsx,0:26,10,['1'],1,TMTstop-A_1_1linestimulus7.png,TMTstop-A_1_1greenlinestimulus7.png,TMTstop-A_1_1redlinestimulus7.png,TMT_A,1,10,,,,,,,,,0,0,0,0,0,9,9,9,2,0,35.05982260000019,None,"['3', '1']",1,"[-0.07113569999637548, 0.09979999999632128]",35.05982260000019,None,,001,2022_Mar_30_1023,TMT_fmri,2021.2.3,146.8107565281561,
TMTstop-A_1_1.xlsx,0:26,11,['2'],2,TMTstop-A_1_1linestimulus8.png,TMTstop-A_1_1greenlinestimulus8.png,TMTstop-A_1_1redlinestimulus8.png,TMT_A,1,11,,,,,,,,,0,0,0,0,0,10,10,10,2,0,35.25413529999787,None,"['3', '2']",1,"[0.10154200000397395, 0.1058986999996705]",35.25413529999787,None,,001,2022_Mar_30_1023,TMT_fmri,2021.2.3,146.8107565281561,
TMTstop-A_1_1.xlsx,0:26,12,['3'],3,TMTstop-A_1_1linestimulus9.png,TMTstop-A_1_1greenlinestimulus9.png,TMTstop-A_1_1redlinestimulus9.png,TMT_A,1,12,,,,,,,,,0,0,0,0,0,11,11,11,2,0,35.43459089999669,None,"['1', '3']",1,"[0.08615819999249652, 0.23951759999908973]",35.43459089999669,None,,001,2022_Mar_30_1023,TMT_fmri,2021.2.3,146.8107565281561,
TMTstop-A_1_1.xlsx,0:26,13,['2'],2,TMTstop-A_1_1linestimulus10.png,TMTstop-A_1_1greenlinestimulus10.png,TMTstop-A_1_1redlinestimulus10.png,TMT_A,1,13,,,,,,,,,0,0,0,0,0,12,12,12,1,1,35.76804579999589,None,['2'],1,[-0.05284439999377355],35.76804579999589,None,,001,2022_Mar_30_1023,TMT_fmri,2021.2.3,146.8107565281561,
TMTstop-A_1_1.xlsx,0:26,14,['3'],3,TMTstop-A_1_1linestimulus11.png,TMTstop-A_1_1greenlinestimulus11.png,TMTstop-A_1_1redlinestimulus11.png,TMT_A,1,14,,,,,,,,,0,0,0,0,0,13,13,13,2,0,35.8376067999925,None,"['1', '3']",1,"[0.016783300001407042, 0.16833660000702366]",35.8376067999925,None,,001,2022_Mar_30_1023,TMT_fmri,2021.2.3,146.8107565281561,
TMTstop-A_1_1.xlsx,0:26,15,['1'],1,TMTstop-A_1_1linestimulus12.png,TMTstop-A_1_1greenlinestimulus12.png,TMTstop-A_1_1redlinestimulus12.png,TMT_A,1,15,,,,,,,,,0,0,0,0,0,14,14,14,2,0,36.101380499996594,None,"['2', '1']",1,"[-0.05327160000160802, 0.0906161000020802]",36.101380499996594,None,,001,2022_Mar_30_1023,TMT_fmri,2021.2.3,146.8107565281561,
TMTstop-A_1_1.xlsx,0:26,16,['3'],3,TMTstop-A_1_1linestimulus13.png,TMTstop-A_1_1greenlinestimulus13.png,TMTstop-A_1_1redlinestimulus13.png,TMT_A,1,16,,,,,,,,,0,0,0,0,0,15,15,15,1,1,36.30285520000325,None,['3'],1,[0.0446010000014212],36.30285520000325,None,,001,2022_Mar_30_1023,TMT_fmri,2021.2.3,146.8107565281561,
TMTstop-A_1_1.xlsx,0:26,17,['2'],2,TMTstop-A_1_1linestimulus14.png,TMTstop-A_1_1greenlinestimulus14.png,TMTstop-A_1_1redlinestimulus14.png,TMT_A,1,17,,,,,,,,,0,0,0,0,0,16,16,16,1,1,36.43481589999283,None,['2'],1,[-0.05034279999381397],36.43481589999283,None,,001,2022_Mar_30_1023,TMT_fmri,2021.2.3,146.8107565281561,
TMTstop-A_1_1.xlsx,0:26,18,['3'],3,TMTstop-A_1_1linestimulus15.png,TMTstop-A_1_1greenlinestimulus15.png,TMTstop-A_1_1redlinestimulus15.png,TMT_A,1,18,,,,,,,,,0,0,0,0,0,17,17,17,2,0,36.51123429999279,None,"['1', '3']",1,"[0.02009800000814721, 0.1854965000093216]",36.51123429999279,None,,001,2022_Mar_30_1023,TMT_fmri,2021.2.3,146.8107565281561,
TMTstop-A_1_1.xlsx,0:26,19,['1'],1,TMTstop-A_1_1linestimulus16.png,TMTstop-A_1_1greenlinestimulus16.png,TMTstop-A_1_1redlinestimulus16.png,TMT_A,1,19,,,,,,,,,0,0,0,0,0,18,18,18,2,0,36.78200530000322,None,"['2', '1']",1,"[-0.054064700001617894, 0.10083909999229945]",36.78200530000322,None,,001,2022_Mar_30_1023,TMT_fmri,2021.2.3,146.8107565281561,
TMTstop-A_1_1.xlsx,0:26,20,['3'],3,TMTstop-A_1_1linestimulus17.png,TMTstop-A_1_1greenlinestimulus17.png,TMTstop-A_1_1redlinestimulus17.png,TMT_A,1,20,,,,,,,,,0,0,0,0,0,19,19,19,1,1,36.97643929999322,None,['3'],1,[0.08116610000433866],36.97643929999322,None,,001,2022_Mar_30_1023,TMT_fmri,2021.2.3,146.8107565281561,
TMTstop-A_1_1.xlsx,0:26,21,['1'],1,TMTstop-A_1_1linestimulus18.png,TMTstop-A_1_1greenlinestimulus18.png,TMTstop-A_1_1redlinestimulus18.png,TMT_A,1,21,,,,,,,,,0,0,0,0,0,20,20,20,2,0,37.136218800005736,None,"['2', '1']",1,"[-0.04293890000553802, 0.10762579999573063]",37.136218800005736,None,,001,2022_Mar_30_1023,TMT_fmri,2021.2.3,146.8107565281561,
TMTstop-A_1_1.xlsx,0:26,22,['3'],3,TMTstop-A_1_1linestimulus19.png,TMTstop-A_1_1greenlinestimulus19.png,TMTstop-A_1_1redlinestimulus19.png,TMT_A,1,22,,,,,,,,,0,0,0,0,0,21,21,21,5,0,37.337571500000195,None,"['3', '2', '1', '2', '3']",1,"[0.09556549999979325, 0.09845639999548439, 0.26578069999231957, 0.4715703999972902, 0.475885499996366]",37.337571500000195,None,,001,2022_Mar_30_1023,TMT_fmri,2021.2.3,146.8107565281561,
TMTstop-A_1_1.xlsx,0:26,23,['1'],1,TMTstop-A_1_1linestimulus20.png,TMTstop-A_1_1greenlinestimulus20.png,TMTstop-A_1_1redlinestimulus20.png,TMT_A,1,23,,,,,,,,,0,0,0,0,0,22,22,22,1,1,37.89306709999801,None,['1'],1,[0.07732870000472758],37.89306709999801,None,,001,2022_Mar_30_1023,TMT_fmri,2021.2.3,146.8107565281561,
TMTstop-A_1_1.xlsx,0:26,24,['2'],2,TMTstop-A_1_1linestimulus21.png,TMTstop-A_1_1greenlinestimulus21.png,TMTstop-A_1_1redlinestimulus21.png,TMT_A,1,24,,,,,,,,,0,0,0,0,0,23,23,23,1,1,38.05283679999411,None,['2'],1,[0.0934702000085963],38.05283679999411,None,,001,2022_Mar_30_1023,TMT_fmri,2021.2.3,146.8107565281561,
TMTstop-A_1_1.xlsx,0:26,25,['3'],3,TMTstop-A_1_1linestimulus22.png,TMTstop-A_1_1greenlinestimulus22.png,TMTstop-A_1_1redlinestimulus22.png,TMT_A,1,25,,,,,,,,,0,0,0,0,0,24,24,24,1,1,38.22629700000107,None,['3'],1,[-0.043232399999396876],38.22629700000107,None,,001,2022_Mar_30_1023,TMT_fmri,2021.2.3,146.8107565281561,
TMTstop-A_1_1.xlsx,0:26,None,None,None,TMTstop-A_1_1linestimulus23.png,TMTstop-A_1_1greenlinestimulus23.png,TMTstop-A_1_1redlinestimulus23.png,TMT_A,1,Feedback_last,,,,,,,,,0,0,0,0,0,25,25,25,4,0,38.3027912999969,None,"['1', '3', '2', '1']",0,"[0.02856920000340324, 0.18596999999135733, 0.21062359999632463, 0.38317519999691285]",38.3027912999969,None,,001,2022_Mar_30_1023,TMT_fmri,2021.2.3,146.8107565281561,
,,,,,,,,,,,,,,,,,,,,,,,,,,,0,0,,,,,,,,,,,,,,
