Block_file,Condition_rows,NumberLetter,corrAns,Correct,StimFile,Correct_StimFile,False_StimFile,Block,TrialNumber_session,Blocks_TMTControl.thisRepN,Blocks_TMTControl.thisTrialN,Blocks_TMTControl.thisN,Blocks_TMTControl.thisIndex,trials_TMTControl.thisRepN,trials_TMTControl.thisTrialN,trials_TMTControl.thisN,trials_TMTControl.thisIndex,Blocks_TMTA.thisRepN,Blocks_TMTA.thisTrialN,Blocks_TMTA.thisN,Blocks_TMTA.thisIndex,trials_TMTA.thisRepN,trials_TMTA.thisTrialN,trials_TMTA.thisN,trials_TMTA.thisIndex,Blocks_TMTB.thisRepN,Blocks_TMTB.thisTrialN,Blocks_TMTB.thisN,Blocks_TMTB.thisIndex,trials_TMTB.thisRepN,trials_TMTB.thisTrialN,trials_TMTB.thisN,trials_TMTB.thisIndex,Attempts,First_attempt,Stim.started,Stim.stopped,key_resp_2.keys,key_resp_2.corr,key_resp_2.rt,key_resp_2.started,key_resp_2.stopped,participant,session,date,expName,psychopyVersion,frameRate,
TMTstop-Control_1_1.xlsx,0:26,1,['2'],2,TMTstop-control_1_1.png,TMTstop-control_1_1.png,TMTstop-control_1_1.png,1,1,0,0,0,0,0,0,0,0,,,,,,,,,,,,,,,,,1,1,17.099373600212857,None,['2'],1,[1.1286718999035656],17.099373600212857,None,,001,2022_Feb_02_1703,TMTAstop-A,2021.2.3,145.11702956511184,
TMTstop-Control_1_1.xlsx,0:26,2,['1'],1,TMTstop-control_1_1.png,TMTstop-control_1_1firstgreen.png,TMTstop-control_1_1firstred.png,1,2,0,0,0,0,0,1,1,1,,,,,,,,,,,,,,,,,2,0,18.321907100034878,None,"['3', '1']",1,"[0.2545035001821816, 0.5045533000957221]",18.321907100034878,None,,001,2022_Feb_02_1703,TMTAstop-A,2021.2.3,145.11702956511184,
TMTstop-Control_1_1.xlsx,0:26,3,['2'],2,TMTstop-control_1_1linestimulus0.png,TMTstop-control_1_1greenlinestimulus0.png,TMTstop-control_1_1redlinestimulus0.png,1,3,0,0,0,0,0,2,2,2,,,,,,,,,,,,,,,,,1,1,18.912037700181827,None,['2'],1,[-0.01058429991826415],18.912037700181827,None,,001,2022_Feb_02_1703,TMTAstop-A,2021.2.3,145.11702956511184,
TMTstop-Control_1_1.xlsx,0:26,4,['3'],3,TMTstop-control_1_1linestimulus1.png,TMTstop-control_1_1greenlinestimulus1.png,TMTstop-control_1_1redlinestimulus1.png,1,4,0,0,0,0,0,3,3,3,,,,,,,,,,,,,,,,,1,1,18.988302800105885,None,['3'],1,[0.009169999975711107],18.988302800105885,None,,001,2022_Feb_02_1703,TMTAstop-A,2021.2.3,145.11702956511184,
TMTstop-Control_1_1.xlsx,0:26,5,['2'],2,TMTstop-control_1_1linestimulus2.png,TMTstop-control_1_1greenlinestimulus2.png,TMTstop-control_1_1redlinestimulus2.png,1,5,0,0,0,0,0,4,4,4,,,,,,,,,,,,,,,,,2,0,19.071830900153145,None,"['1', '2']",1,"[0.11873469990678132, 0.16424690000712872]",19.071830900153145,None,,001,2022_Feb_02_1703,TMTAstop-A,2021.2.3,145.11702956511184,
TMTstop-Control_1_1.xlsx,0:26,6,['1'],1,TMTstop-control_1_1linestimulus3.png,TMTstop-control_1_1greenlinestimulus3.png,TMTstop-control_1_1redlinestimulus3.png,1,6,0,0,0,0,0,5,5,5,,,,,,,,,,,,,,,,,2,0,19.314888100139797,None,"['3', '1']",1,"[0.02789580007083714, 0.1954539001453668]",19.314888100139797,None,,001,2022_Feb_02_1703,TMTAstop-A,2021.2.3,145.11702956511184,
TMTstop-Control_1_1.xlsx,0:26,7,['3'],3,TMTstop-control_1_1linestimulus4.png,TMTstop-control_1_1greenlinestimulus4.png,TMTstop-control_1_1redlinestimulus4.png,1,7,0,0,0,0,0,6,6,6,,,,,,,,,,,,,,,,,2,0,19.620314300060272,None,"['2', '3']",1,"[-0.06336300005204976, 0.07481939997524023]",19.620314300060272,None,,001,2022_Feb_02_1703,TMTAstop-A,2021.2.3,145.11702956511184,
TMTstop-Control_1_1.xlsx,0:26,8,['2'],2,TMTstop-control_1_1linestimulus4.png,TMTstop-control_1_1greenlinestimulus5.png,TMTstop-control_1_1redlinestimulus5.png,1,8,0,0,0,0,0,7,7,7,,,,,,,,,,,,,,,,,2,0,19.773694700095803,None,"['1', '2']",1,"[0.07243579998612404, 0.11654630000703037]",19.773694700095803,None,,001,2022_Feb_02_1703,TMTAstop-A,2021.2.3,145.11702956511184,
TMTstop-Control_1_1.xlsx,0:26,9,['3'],3,TMTstop-control_1_1linestimulus6.png,TMTstop-control_1_1greenlinestimulus6.png,TMTstop-control_1_1redlinestimulus6.png,1,9,0,0,0,0,0,8,8,8,,,,,,,,,,,,,,,,,1,1,19.960628800094128,None,['3'],1,[0.07135109999217093],19.960628800094128,None,,001,2022_Feb_02_1703,TMTAstop-A,2021.2.3,145.11702956511184,
TMTstop-Control_1_1.xlsx,0:26,10,['2'],2,TMTstop-control_1_1linestimulus7.png,TMTstop-control_1_1greenlinestimulus7.png,TMTstop-control_1_1redlinestimulus7.png,1,10,0,0,0,0,0,9,9,9,,,,,,,,,,,,,,,,,2,0,20.11357150017284,None,"['1', '2']",1,"[0.06773679982870817, 0.09882359998300672]",20.11357150017284,None,,001,2022_Feb_02_1703,TMTAstop-A,2021.2.3,145.11702956511184,
TMTstop-Control_1_1.xlsx,0:26,11,['3'],3,TMTstop-control_1_1linestimulus8.png,TMTstop-control_1_1greenlinestimulus8.png,TMTstop-control_1_1redlinestimulus8.png,1,11,0,0,0,0,0,10,10,10,,,,,,,,,,,,,,,,,1,1,20.300814300077036,None,['3'],1,[0.025498999981209636],20.300814300077036,None,,001,2022_Feb_02_1703,TMTAstop-A,2021.2.3,145.11702956511184,
TMTstop-Control_1_1.xlsx,0:26,12,['1'],1,TMTstop-control_1_1linestimulus9.png,TMTstop-control_1_1greenlinestimulus9.png,TMTstop-control_1_1redlinestimulus9.png,1,12,0,0,0,0,0,11,11,11,,,,,,,,,,,,,,,,,1,1,20.4127976000309,None,['1'],1,[0.06742090010084212],20.4127976000309,None,,001,2022_Feb_02_1703,TMTAstop-A,2021.2.3,145.11702956511184,
TMTstop-Control_1_1.xlsx,0:26,13,['3'],3,TMTstop-control_1_1linestimulus10.png,TMTstop-control_1_1greenlinestimulus10.png,TMTstop-control_1_1redlinestimulus10.png,1,13,0,0,0,0,0,12,12,12,,,,,,,,,,,,,,,,,2,0,20.564977400004864,None,"['2', '3']",1,"[-0.03718370012938976, 0.07826179987750947]",20.564977400004864,None,,001,2022_Feb_02_1703,TMTAstop-A,2021.2.3,145.11702956511184,
TMTstop-Control_1_1.xlsx,0:26,14,['1'],1,TMTstop-control_1_1linestimulus11.png,TMTstop-control_1_1greenlinestimulus11.png,TMTstop-control_1_1redlinestimulus11.png,1,14,0,0,0,0,0,13,13,13,,,,,,,,,,,,,,,,,1,1,20.71777470014058,None,['1'],1,[0.07391709997318685],20.71777470014058,None,,001,2022_Feb_02_1703,TMTAstop-A,2021.2.3,145.11702956511184,
TMTstop-Control_1_1.xlsx,0:26,15,['3'],3,TMTstop-control_1_1linestimulus12.png,TMTstop-control_1_1greenlinestimulus12.png,TMTstop-control_1_1redlinestimulus12.png,1,15,0,0,0,0,0,14,14,14,,,,,,,,,,,,,,,,,2,0,20.87027500011027,None,"['2', '3']",1,"[-0.021642599953338504, 0.08377310005016625]",20.87027500011027,None,,001,2022_Feb_02_1703,TMTAstop-A,2021.2.3,145.11702956511184,
TMTstop-Control_1_1.xlsx,0:26,16,['1'],1,TMTstop-control_1_1linestimulus13.png,TMTstop-control_1_1greenlinestimulus13.png,TMTstop-control_1_1redlinestimulus13.png,1,16,0,0,0,0,0,15,15,15,,,,,,,,,,,,,,,,,1,1,21.030361000215635,None,['1'],1,[0.09869570005685091],21.030361000215635,None,,001,2022_Feb_02_1703,TMTAstop-A,2021.2.3,145.11702956511184,
TMTstop-Control_1_1.xlsx,0:26,17,['2'],2,TMTstop-control_1_1linestimulus14.png,TMTstop-control_1_1greenlinestimulus14.png,TMTstop-control_1_1redlinestimulus14.png,1,17,0,0,0,0,0,16,16,16,,,,,,,,,,,,,,,,,1,1,21.203750100219622,None,['2'],1,[-0.04551959992386401],21.203750100219622,None,,001,2022_Feb_02_1703,TMTAstop-A,2021.2.3,145.11702956511184,
TMTstop-Control_1_1.xlsx,0:26,18,['1'],1,TMTstop-control_1_1linestimulus15.png,TMTstop-control_1_1greenlinestimulus15.png,TMTstop-control_1_1redlinestimulus15.png,1,18,0,0,0,0,0,17,17,17,,,,,,,,,,,,,,,,,2,0,21.28043600008823,None,"['3', '1']",1,"[0.014591700164601207, 0.16477860021404922]",21.28043600008823,None,,001,2022_Feb_02_1703,TMTAstop-A,2021.2.3,145.11702956511184,
TMTstop-Control_1_1.xlsx,0:26,19,['3'],3,TMTstop-control_1_1linestimulus16.png,TMTstop-control_1_1greenlinestimulus16.png,TMTstop-control_1_1redlinestimulus16.png,1,19,0,0,0,0,0,18,18,18,,,,,,,,,,,,,,,,,2,0,21.54630869999528,None,"['2', '3']",1,"[-0.04580789990723133, 0.060440200148150325]",21.54630869999528,None,,001,2022_Feb_02_1703,TMTAstop-A,2021.2.3,145.11702956511184,
TMTstop-Control_1_1.xlsx,0:26,20,['1'],1,TMTstop-control_1_1linestimulus17.png,TMTstop-control_1_1greenlinestimulus17.png,TMTstop-control_1_1redlinestimulus17.png,1,20,0,0,0,0,0,19,19,19,,,,,,,,,,,,,,,,,1,1,21.698551900219172,None,['1'],1,[0.040847300086170435],21.698551900219172,None,,001,2022_Feb_02_1703,TMTAstop-A,2021.2.3,145.11702956511184,
TMTstop-Control_1_1.xlsx,0:26,21,['3'],3,TMTstop-control_1_1linestimulus18.png,TMTstop-control_1_1greenlinestimulus18.png,TMTstop-control_1_1redlinestimulus18.png,1,21,0,0,0,0,0,20,20,20,,,,,,,,,,,,,,,,,2,0,21.816410700092092,None,"['2', '3']",1,"[-0.013705900171771646, 0.09824059996753931]",21.816410700092092,None,,001,2022_Feb_02_1703,TMTAstop-A,2021.2.3,145.11702956511184,
TMTstop-Control_1_1.xlsx,0:26,22,['1'],1,TMTstop-control_1_1linestimulus19.png,TMTstop-control_1_1greenlinestimulus19.png,TMTstop-control_1_1redlinestimulus19.png,1,22,0,0,0,0,0,21,21,21,,,,,,,,,,,,,,,,,1,1,22.016239600023255,None,['1'],1,[0.2422159998677671],22.016239600023255,None,,001,2022_Feb_02_1703,TMTAstop-A,2021.2.3,145.11702956511184,
TMTstop-Control_1_1.xlsx,0:26,23,['3'],3,TMTstop-control_1_1linestimulus20.png,TMTstop-control_1_1greenlinestimulus20.png,TMTstop-control_1_1redlinestimulus20.png,1,23,0,0,0,0,0,22,22,22,,,,,,,,,,,,,,,,,2,0,22.335752200102434,None,"['2', '3']",1,"[-0.01851900015026331, 0.09738179994747043]",22.335752200102434,None,,001,2022_Feb_02_1703,TMTAstop-A,2021.2.3,145.11702956511184,
TMTstop-Control_1_1.xlsx,0:26,24,['1'],1,TMTstop-control_1_1linestimulus21.png,TMTstop-control_1_1greenlinestimulus21.png,TMTstop-control_1_1redlinestimulus21.png,1,24,0,0,0,0,0,23,23,23,,,,,,,,,,,,,,,,,1,1,22.53012440004386,None,['1'],1,[0.049041599966585636],22.53012440004386,None,,001,2022_Feb_02_1703,TMTAstop-A,2021.2.3,145.11702956511184,
TMTstop-Control_1_1.xlsx,0:26,25,['3'],3,TMTstop-control_1_1linestimulus22.png,TMTstop-control_1_1greenlinestimulus22.png,TMTstop-control_1_1redlinestimulus22.png,1,25,0,0,0,0,0,24,24,24,,,,,,,,,,,,,,,,,2,0,22.662439200095832,None,"['2', '3']",1,"[-0.04373560007661581, 0.07270619994960725]",22.662439200095832,None,,001,2022_Feb_02_1703,TMTAstop-A,2021.2.3,145.11702956511184,
TMTstop-Control_1_1.xlsx,0:26,None,None,None,TMTstop-control_1_1linestimulus23.png,TMTstop-control_1_1greenlinestimulus23.png,TMTstop-control_1_1redlinestimulus23.png,1,Feedback_last,0,0,0,0,0,25,25,25,,,,,,,,,,,,,,,,,3,0,22.821765300119296,None,"['1', '2', '3']",0,"[0.05120839993469417, 0.11251899995841086, 0.21094870008528233]",22.821765300119296,None,,001,2022_Feb_02_1703,TMTAstop-A,2021.2.3,145.11702956511184,
TMTstop-Control_1_2.xlsx,26:52,1,['1'],1,TMTstop-control_1_2.png,TMTstop-control_1_2.png,TMTstop-control_1_2.png,2,26,0,1,1,1,0,0,0,0,,,,,,,,,,,,,,,,,1,1,26.989257500041276,None,['1'],1,[0.5488293000962585],26.989257500041276,None,,001,2022_Feb_02_1703,TMTAstop-A,2021.2.3,145.11702956511184,
TMTstop-Control_1_2.xlsx,26:52,2,['3'],3,TMTstop-control_1_2.png,TMTstop-control_1_2firstgreen.png,TMTstop-control_1_2firstred.png,2,27,0,1,1,1,0,1,1,1,,,,,,,,,,,,,,,,,2,0,27.614026400027797,None,"['2', '3']",1,"[-0.038700300035998225, 0.0749205001629889]",27.614026400027797,None,,001,2022_Feb_02_1703,TMTAstop-A,2021.2.3,145.11702956511184,
TMTstop-Control_1_2.xlsx,26:52,3,['2'],2,TMTstop-control_1_2linestimulus0.png,TMTstop-control_1_2greenlinestimulus0.png,TMTstop-control_1_2redlinestimulus0.png,2,28,0,1,1,1,0,2,2,2,,,,,,,,,,,,,,,,,2,0,27.772879700176418,None,"['1', '2']",1,"[0.062994500156492, 0.08507370017468929]",27.772879700176418,None,,001,2022_Feb_02_1703,TMTAstop-A,2021.2.3,145.11702956511184,
TMTstop-Control_1_2.xlsx,26:52,4,['3'],3,TMTstop-control_1_2linestimulus1.png,TMTstop-control_1_2greenlinestimulus1.png,TMTstop-control_1_2redlinestimulus1.png,2,29,0,1,1,1,0,3,3,3,,,,,,,,,,,,,,,,,1,1,27.953453400172293,None,['3'],1,[0.0063304000068455935],27.953453400172293,None,,001,2022_Feb_02_1703,TMTAstop-A,2021.2.3,145.11702956511184,
TMTstop-Control_1_2.xlsx,26:52,5,['1'],1,TMTstop-control_1_2linestimulus2.png,TMTstop-control_1_2greenlinestimulus2.png,TMTstop-control_1_2redlinestimulus2.png,2,30,0,1,1,1,0,4,4,4,,,,,,,,,,,,,,,,,1,1,28.045048700179905,None,['1'],1,[0.044024999951943755],28.045048700179905,None,,001,2022_Feb_02_1703,TMTAstop-A,2021.2.3,145.11702956511184,
TMTstop-Control_1_2.xlsx,26:52,6,['3'],3,TMTstop-control_1_2linestimulus3.png,TMTstop-control_1_2greenlinestimulus3.png,TMTstop-control_1_2redlinestimulus3.png,2,31,0,1,1,1,0,5,5,5,,,,,,,,,,,,,,,,,2,0,28.161964600207284,None,"['2', '3']",1,"[-0.036550800083205104, 0.052107400028035045]",28.161964600207284,None,,001,2022_Feb_02_1703,TMTAstop-A,2021.2.3,145.11702956511184,
TMTstop-Control_1_2.xlsx,26:52,7,['2'],2,TMTstop-control_1_2linestimulus4.png,TMTstop-control_1_2greenlinestimulus4.png,TMTstop-control_1_2redlinestimulus4.png,2,32,0,1,1,1,0,6,6,6,,,,,,,,,,,,,,,,,2,0,28.31461720005609,None,"['1', '2']",1,"[0.025671300012618303, 0.06783610000275075]",28.31461720005609,None,,001,2022_Feb_02_1703,TMTAstop-A,2021.2.3,145.11702956511184,
TMTstop-Control_1_2.xlsx,26:52,8,['1'],1,TMTstop-control_1_2linestimulus4.png,TMTstop-control_1_2greenlinestimulus5.png,TMTstop-control_1_2redlinestimulus5.png,2,33,0,1,1,1,0,7,7,7,,,,,,,,,,,,,,,,,2,0,28.46736970008351,None,"['3', '1']",1,"[-0.002865200163796544, 0.12194779980927706]",28.46736970008351,None,,001,2022_Feb_02_1703,TMTAstop-A,2021.2.3,145.11702956511184,
TMTstop-Control_1_2.xlsx,26:52,9,['2'],2,TMTstop-control_1_2linestimulus6.png,TMTstop-control_1_2greenlinestimulus6.png,TMTstop-control_1_2redlinestimulus6.png,2,34,0,1,1,1,0,8,8,8,,,,,,,,,,,,,,,,,1,1,28.66231400007382,None,['2'],1,[0.012965099886059761],28.66231400007382,None,,001,2022_Feb_02_1703,TMTAstop-A,2021.2.3,145.11702956511184,
TMTstop-Control_1_2.xlsx,26:52,10,['3'],3,TMTstop-control_1_2linestimulus7.png,TMTstop-control_1_2greenlinestimulus7.png,TMTstop-control_1_2redlinestimulus7.png,2,35,0,1,1,1,0,9,9,9,,,,,,,,,,,,,,,,,1,1,28.745148500194773,None,['3'],1,[-0.02483300003223121],28.745148500194773,None,,001,2022_Feb_02_1703,TMTAstop-A,2021.2.3,145.11702956511184,
TMTstop-Control_1_2.xlsx,26:52,11,['1'],1,TMTstop-control_1_2linestimulus8.png,TMTstop-control_1_2greenlinestimulus8.png,TMTstop-control_1_2redlinestimulus8.png,2,36,0,1,1,1,0,10,10,10,,,,,,,,,,,,,,,,,1,1,28.821580900112167,None,['1'],1,[0.04624970001168549],28.821580900112167,None,,001,2022_Feb_02_1703,TMTAstop-A,2021.2.3,145.11702956511184,
TMTstop-Control_1_2.xlsx,26:52,12,['2'],2,TMTstop-control_1_2linestimulus9.png,TMTstop-control_1_2greenlinestimulus9.png,TMTstop-control_1_2redlinestimulus9.png,2,37,0,1,1,1,0,11,11,11,,,,,,,,,,,,,,,,,1,1,28.946478000143543,None,['2'],1,[-0.055707700084894896],28.946478000143543,None,,001,2022_Feb_02_1703,TMTAstop-A,2021.2.3,145.11702956511184,
TMTstop-Control_1_2.xlsx,26:52,13,['3'],3,TMTstop-control_1_2linestimulus10.png,TMTstop-control_1_2greenlinestimulus10.png,TMTstop-control_1_2redlinestimulus10.png,2,38,0,1,1,1,0,12,12,12,,,,,,,,,,,,,,,,,1,1,29.02282500010915,None,['3'],1,[-0.018015400040894747],29.02282500010915,None,,001,2022_Feb_02_1703,TMTAstop-A,2021.2.3,145.11702956511184,
TMTstop-Control_1_2.xlsx,26:52,14,['1'],1,TMTstop-control_1_2linestimulus11.png,TMTstop-control_1_2greenlinestimulus11.png,TMTstop-control_1_2redlinestimulus11.png,2,39,0,1,1,1,0,13,13,13,,,,,,,,,,,,,,,,,1,1,29.092867100145668,None,['1'],1,[0.06282500014640391],29.092867100145668,None,,001,2022_Feb_02_1703,TMTAstop-A,2021.2.3,145.11702956511184,
TMTstop-Control_1_2.xlsx,26:52,15,['2'],2,TMTstop-control_1_2linestimulus12.png,TMTstop-control_1_2greenlinestimulus12.png,TMTstop-control_1_2redlinestimulus12.png,2,40,0,1,1,1,0,14,14,14,,,,,,,,,,,,,,,,,1,1,29.231332499999553,None,['2'],1,[-0.050230100052431226],29.231332499999553,None,,001,2022_Feb_02_1703,TMTAstop-A,2021.2.3,145.11702956511184,
TMTstop-Control_1_2.xlsx,26:52,16,['1'],1,TMTstop-control_1_2linestimulus13.png,TMTstop-control_1_2greenlinestimulus13.png,TMTstop-control_1_2redlinestimulus13.png,2,41,0,1,1,1,0,15,15,15,,,,,,,,,,,,,,,,,2,0,29.307621500222012,None,"['3', '1']",1,"[-0.02654249989427626, 0.1176895999815315]",29.307621500222012,None,,001,2022_Feb_02_1703,TMTAstop-A,2021.2.3,145.11702956511184,
TMTstop-Control_1_2.xlsx,26:52,17,['2'],2,TMTstop-control_1_2linestimulus14.png,TMTstop-control_1_2greenlinestimulus14.png,TMTstop-control_1_2redlinestimulus14.png,2,42,0,1,1,1,0,16,16,16,,,,,,,,,,,,,,,,,1,1,29.509139600209892,None,['2'],1,[-0.05499219987541437],29.509139600209892,None,,001,2022_Feb_02_1703,TMTAstop-A,2021.2.3,145.11702956511184,
TMTstop-Control_1_2.xlsx,26:52,18,['1'],1,TMTstop-control_1_2linestimulus15.png,TMTstop-control_1_2greenlinestimulus15.png,TMTstop-control_1_2redlinestimulus15.png,2,43,0,1,1,1,0,17,17,17,,,,,,,,,,,,,,,,,2,0,29.585264600114897,None,"['3', '1']",1,"[-0.03048809990286827, 0.10966409998945892]",29.585264600114897,None,,001,2022_Feb_02_1703,TMTAstop-A,2021.2.3,145.11702956511184,
TMTstop-Control_1_2.xlsx,26:52,19,['3'],3,TMTstop-control_1_2linestimulus16.png,TMTstop-control_1_2greenlinestimulus16.png,TMTstop-control_1_2redlinestimulus16.png,2,44,0,1,1,1,0,18,18,18,,,,,,,,,,,,,,,,,2,0,29.78003490017727,None,"['2', '3']",1,"[-0.034126700134947896, 0.06523319985717535]",29.78003490017727,None,,001,2022_Feb_02_1703,TMTAstop-A,2021.2.3,145.11702956511184,
TMTstop-Control_1_2.xlsx,26:52,20,['1'],1,TMTstop-control_1_2linestimulus17.png,TMTstop-control_1_2greenlinestimulus17.png,TMTstop-control_1_2redlinestimulus17.png,2,45,0,1,1,1,0,19,19,19,,,,,,,,,,,,,,,,,1,1,29.939894100185484,None,['1'],1,[0.0329243999440223],29.939894100185484,None,,001,2022_Feb_02_1703,TMTAstop-A,2021.2.3,145.11702956511184,
TMTstop-Control_1_2.xlsx,26:52,21,['2'],2,TMTstop-control_1_2linestimulus18.png,TMTstop-control_1_2greenlinestimulus18.png,TMTstop-control_1_2redlinestimulus18.png,2,46,0,1,1,1,0,20,20,20,,,,,,,,,,,,,,,,,1,1,30.058385600103065,None,['2'],1,[-0.02517709997482598],30.058385600103065,None,,001,2022_Feb_02_1703,TMTAstop-A,2021.2.3,145.11702956511184,
TMTstop-Control_1_2.xlsx,26:52,22,['1'],1,TMTstop-control_1_2linestimulus19.png,TMTstop-control_1_2greenlinestimulus19.png,TMTstop-control_1_2redlinestimulus19.png,2,47,0,1,1,1,0,21,21,21,,,,,,,,,,,,,,,,,2,0,30.13448530016467,None,"['3', '1']",1,"[-0.01838400005362928, 0.11369400005787611]",30.13448530016467,None,,001,2022_Feb_02_1703,TMTAstop-A,2021.2.3,145.11702956511184,
TMTstop-Control_1_2.xlsx,26:52,23,['3'],3,TMTstop-control_1_2linestimulus20.png,TMTstop-control_1_2greenlinestimulus20.png,TMTstop-control_1_2redlinestimulus20.png,2,48,0,1,1,1,0,22,22,22,,,,,,,,,,,,,,,,,2,0,30.35036400007084,None,"['2', '3']",1,"[-0.03867930010892451, 0.045392399886623025]",30.35036400007084,None,,001,2022_Feb_02_1703,TMTAstop-A,2021.2.3,145.11702956511184,
TMTstop-Control_1_2.xlsx,26:52,24,['1'],1,TMTstop-control_1_2linestimulus21.png,TMTstop-control_1_2greenlinestimulus21.png,TMTstop-control_1_2redlinestimulus21.png,2,49,0,1,1,1,0,23,23,23,,,,,,,,,,,,,,,,,1,1,30.50944779999554,None,['1'],1,[0.02325280010700226],30.50944779999554,None,,001,2022_Feb_02_1703,TMTAstop-A,2021.2.3,145.11702956511184,
TMTstop-Control_1_2.xlsx,26:52,25,['3'],3,TMTstop-control_1_2linestimulus22.png,TMTstop-control_1_2greenlinestimulus22.png,TMTstop-control_1_2redlinestimulus22.png,2,50,0,1,1,1,0,24,24,24,,,,,,,,,,,,,,,,,2,0,30.613872000016272,None,"['2', '3']",1,"[-0.02144009992480278, 0.06444300012663007]",30.613872000016272,None,,001,2022_Feb_02_1703,TMTAstop-A,2021.2.3,145.11702956511184,
TMTstop-Control_1_2.xlsx,26:52,None,None,None,TMTstop-control_1_2linestimulus23.png,TMTstop-control_1_2greenlinestimulus23.png,TMTstop-control_1_2redlinestimulus23.png,2,Feedback_last,0,1,1,1,0,25,25,25,,,,,,,,,,,,,,,,,4,0,30.773264500079677,None,"['1', '2', '3', '1']",0,"[0.03858969989232719, 0.10239429981447756, 0.1959818999748677, 0.3247148999944329]",30.773264500079677,None,,001,2022_Feb_02_1703,TMTAstop-A,2021.2.3,145.11702956511184,
TMTstop-Control_1_3.xlsx,52:78,1,['3'],3,TMTstop-control_1_3.png,TMTstop-control_1_3.png,TMTstop-control_1_3.png,3,51,0,2,2,2,0,0,0,0,,,,,,,,,,,,,,,,,3,0,34.88342000008561,None,"['1', '2', '3']",1,"[0.3767150000203401, 0.47294569993391633, 0.5327139000874013]",34.88342000008561,None,,001,2022_Feb_02_1703,TMTAstop-A,2021.2.3,145.11702956511184,
TMTstop-Control_1_3.xlsx,52:78,2,['1'],1,TMTstop-control_1_3.png,TMTstop-control_1_3firstgreen.png,TMTstop-control_1_3firstred.png,3,52,0,2,2,2,0,1,1,1,,,,,,,,,,,,,,,,,1,1,35.502444999990985,None,['1'],1,[0.08796260016970336],35.502444999990985,None,,001,2022_Feb_02_1703,TMTAstop-A,2021.2.3,145.11702956511184,
TMTstop-Control_1_3.xlsx,52:78,3,['3'],3,TMTstop-control_1_3linestimulus0.png,TMTstop-control_1_3greenlinestimulus0.png,TMTstop-control_1_3redlinestimulus0.png,3,53,0,2,2,2,0,2,2,2,,,,,,,,,,,,,,,,,2,0,35.661617500009015,None,"['2', '3']",1,"[-0.020938500063493848, 0.07656339998356998]",35.661617500009015,None,,001,2022_Feb_02_1703,TMTAstop-A,2021.2.3,145.11702956511184,
TMTstop-Control_1_3.xlsx,52:78,4,['1'],1,TMTstop-control_1_3linestimulus1.png,TMTstop-control_1_3greenlinestimulus1.png,TMTstop-control_1_3redlinestimulus1.png,3,54,0,2,2,2,0,3,3,3,,,,,,,,,,,,,,,,,1,1,35.814587300177664,None,['1'],1,[0.056699000066146255],35.814587300177664,None,,001,2022_Feb_02_1703,TMTAstop-A,2021.2.3,145.11702956511184,
TMTstop-Control_1_3.xlsx,52:78,5,['3'],3,TMTstop-control_1_3linestimulus2.png,TMTstop-control_1_3greenlinestimulus2.png,TMTstop-control_1_3redlinestimulus2.png,3,55,0,2,2,2,0,4,4,4,,,,,,,,,,,,,,,,,2,0,35.939514900092036,None,"['2', '3']",1,"[-0.005532300099730492, 0.07405129983089864]",35.939514900092036,None,,001,2022_Feb_02_1703,TMTAstop-A,2021.2.3,145.11702956511184,
TMTstop-Control_1_3.xlsx,52:78,6,['2'],2,TMTstop-control_1_3linestimulus3.png,TMTstop-control_1_3greenlinestimulus3.png,TMTstop-control_1_3redlinestimulus3.png,3,56,0,2,2,2,0,5,5,5,,,,,,,,,,,,,,,,,2,0,36.09920600010082,None,"['1', '2']",1,"[0.04796100012026727, 0.10899890004657209]",36.09920600010082,None,,001,2022_Feb_02_1703,TMTAstop-A,2021.2.3,145.11702956511184,
TMTstop-Control_1_3.xlsx,52:78,7,['1'],1,TMTstop-control_1_3linestimulus4.png,TMTstop-control_1_3greenlinestimulus4.png,TMTstop-control_1_3redlinestimulus4.png,3,57,0,2,2,2,0,6,6,6,,,,,,,,,,,,,,,,,2,0,36.30096870008856,None,"['3', '1']",1,"[-0.008828999940305948, 0.12482540006749332]",36.30096870008856,None,,001,2022_Feb_02_1703,TMTAstop-A,2021.2.3,145.11702956511184,
TMTstop-Control_1_3.xlsx,52:78,8,['3'],3,TMTstop-control_1_3linestimulus4.png,TMTstop-control_1_3greenlinestimulus5.png,TMTstop-control_1_3redlinestimulus5.png,3,58,0,2,2,2,0,7,7,7,,,,,,,,,,,,,,,,,2,0,36.50324140000157,None,"['2', '3']",1,"[-0.008299299981445074, 0.08148140017874539]",36.50324140000157,None,,001,2022_Feb_02_1703,TMTAstop-A,2021.2.3,145.11702956511184,
TMTstop-Control_1_3.xlsx,52:78,9,['2'],2,TMTstop-control_1_3linestimulus6.png,TMTstop-control_1_3greenlinestimulus6.png,TMTstop-control_1_3redlinestimulus6.png,3,59,0,2,2,2,0,8,8,8,,,,,,,,,,,,,,,,,2,0,36.65550890006125,None,"['1', '2']",1,"[0.10122979991137981, 0.11653500003740191]",36.65550890006125,None,,001,2022_Feb_02_1703,TMTAstop-A,2021.2.3,145.11702956511184,
TMTstop-Control_1_3.xlsx,52:78,10,['3'],3,TMTstop-control_1_3linestimulus7.png,TMTstop-control_1_3greenlinestimulus7.png,TMTstop-control_1_3redlinestimulus7.png,3,60,0,2,2,2,0,9,9,9,,,,,,,,,,,,,,,,,1,1,36.86295850016177,None,['3'],1,[0.04552160017192364],36.86295850016177,None,,001,2022_Feb_02_1703,TMTAstop-A,2021.2.3,145.11702956511184,
TMTstop-Control_1_3.xlsx,52:78,11,['2'],2,TMTstop-control_1_3linestimulus8.png,TMTstop-control_1_3greenlinestimulus8.png,TMTstop-control_1_3redlinestimulus8.png,3,61,0,2,2,2,0,10,10,10,,,,,,,,,,,,,,,,,2,0,36.981686800019816,None,"['1', '2']",1,"[0.09763159998692572, 0.1279035999905318]",36.981686800019816,None,,001,2022_Feb_02_1703,TMTAstop-A,2021.2.3,145.11702956511184,
TMTstop-Control_1_3.xlsx,52:78,12,['1'],1,TMTstop-control_1_3linestimulus9.png,TMTstop-control_1_3greenlinestimulus9.png,TMTstop-control_1_3redlinestimulus9.png,3,62,0,2,2,2,0,11,11,11,,,,,,,,,,,,,,,,,2,0,37.196210800204426,None,"['3', '1']",1,"[0.04497389984317124, 0.19547209981828928]",37.196210800204426,None,,001,2022_Feb_02_1703,TMTAstop-A,2021.2.3,145.11702956511184,
TMTstop-Control_1_3.xlsx,52:78,13,['2'],2,TMTstop-control_1_3linestimulus10.png,TMTstop-control_1_3greenlinestimulus10.png,TMTstop-control_1_3redlinestimulus10.png,3,63,0,2,2,2,0,12,12,12,,,,,,,,,,,,,,,,,1,1,37.489295000210404,None,['2'],1,[0.0017695999704301357],37.489295000210404,None,,001,2022_Feb_02_1703,TMTAstop-A,2021.2.3,145.11702956511184,
TMTstop-Control_1_3.xlsx,52:78,14,['3'],3,TMTstop-control_1_3linestimulus11.png,TMTstop-control_1_3greenlinestimulus11.png,TMTstop-control_1_3redlinestimulus11.png,3,64,0,2,2,2,0,13,13,13,,,,,,,,,,,,,,,,,1,1,37.58641790016554,None,['3'],1,[-0.02539770002476871],37.58641790016554,None,,001,2022_Feb_02_1703,TMTAstop-A,2021.2.3,145.11702956511184,
TMTstop-Control_1_3.xlsx,52:78,15,['2'],2,TMTstop-control_1_3linestimulus12.png,TMTstop-control_1_3greenlinestimulus12.png,TMTstop-control_1_3redlinestimulus12.png,3,65,0,2,2,2,0,14,14,14,,,,,,,,,,,,,,,,,2,0,37.67069880012423,None,"['1', '2']",1,"[0.07945810002274811, 0.09480309998616576]",37.67069880012423,None,,001,2022_Feb_02_1703,TMTAstop-A,2021.2.3,145.11702956511184,
TMTstop-Control_1_3.xlsx,52:78,16,['1'],1,TMTstop-control_1_3linestimulus13.png,TMTstop-control_1_3greenlinestimulus13.png,TMTstop-control_1_3redlinestimulus13.png,3,66,0,2,2,2,0,15,15,15,,,,,,,,,,,,,,,,,2,0,37.87059559999034,None,"['3', '1']",1,"[0.03481639991514385, 0.1925158998928964]",37.87059559999034,None,,001,2022_Feb_02_1703,TMTAstop-A,2021.2.3,145.11702956511184,
TMTstop-Control_1_3.xlsx,52:78,17,['2'],2,TMTstop-control_1_3linestimulus14.png,TMTstop-control_1_3greenlinestimulus14.png,TMTstop-control_1_3redlinestimulus14.png,3,67,0,2,2,2,0,16,16,16,,,,,,,,,,,,,,,,,1,1,38.147961100097746,None,['2'],1,[-0.03148370003327727],38.147961100097746,None,,001,2022_Feb_02_1703,TMTAstop-A,2021.2.3,145.11702956511184,
TMTstop-Control_1_3.xlsx,52:78,18,['3'],3,TMTstop-control_1_3linestimulus15.png,TMTstop-control_1_3greenlinestimulus15.png,TMTstop-control_1_3redlinestimulus15.png,3,68,0,2,2,2,0,17,17,17,,,,,,,,,,,,,,,,,1,1,38.224054200109094,None,['3'],1,[0.007473199861124158],38.224054200109094,None,,001,2022_Feb_02_1703,TMTAstop-A,2021.2.3,145.11702956511184,
TMTstop-Control_1_3.xlsx,52:78,19,['1'],1,TMTstop-control_1_3linestimulus16.png,TMTstop-control_1_3greenlinestimulus16.png,TMTstop-control_1_3redlinestimulus16.png,3,69,0,2,2,2,0,18,18,18,,,,,,,,,,,,,,,,,1,1,38.314592000097036,None,['1'],1,[0.17390809999778867],38.314592000097036,None,,001,2022_Feb_02_1703,TMTAstop-A,2021.2.3,145.11702956511184,
TMTstop-Control_1_3.xlsx,52:78,20,['2'],2,TMTstop-control_1_3linestimulus17.png,TMTstop-control_1_3greenlinestimulus17.png,TMTstop-control_1_3redlinestimulus17.png,3,70,0,2,2,2,0,19,19,19,,,,,,,,,,,,,,,,,1,1,38.56522810016759,None,['2'],1,[-0.0358133998233825],38.56522810016759,None,,001,2022_Feb_02_1703,TMTAstop-A,2021.2.3,145.11702956511184,
TMTstop-Control_1_3.xlsx,52:78,21,['3'],3,TMTstop-control_1_3linestimulus18.png,TMTstop-control_1_3greenlinestimulus18.png,TMTstop-control_1_3redlinestimulus18.png,3,71,0,2,2,2,0,20,20,20,,,,,,,,,,,,,,,,,1,1,38.63370840018615,None,['3'],1,[0.022961299866437912],38.63370840018615,None,,001,2022_Feb_02_1703,TMTAstop-A,2021.2.3,145.11702956511184,
TMTstop-Control_1_3.xlsx,52:78,22,['2'],2,TMTstop-control_1_3linestimulus19.png,TMTstop-control_1_3greenlinestimulus19.png,TMTstop-control_1_3redlinestimulus19.png,3,72,0,2,2,2,0,21,21,21,,,,,,,,,,,,,,,,,2,0,38.72398740006611,None,"['1', '2']",1,"[0.0821573999710381, 0.10804779990576208]",38.72398740006611,None,,001,2022_Feb_02_1703,TMTAstop-A,2021.2.3,145.11702956511184,
TMTstop-Control_1_3.xlsx,52:78,23,['1'],1,TMTstop-control_1_3linestimulus20.png,TMTstop-control_1_3greenlinestimulus20.png,TMTstop-control_1_3redlinestimulus20.png,3,73,0,2,2,2,0,22,22,22,,,,,,,,,,,,,,,,,2,0,38.92540160007775,None,"['3', '1']",1,"[0.04117460013367236, 0.181877400027588]",38.92540160007775,None,,001,2022_Feb_02_1703,TMTAstop-A,2021.2.3,145.11702956511184,
TMTstop-Control_1_3.xlsx,52:78,24,['3'],3,TMTstop-control_1_3linestimulus21.png,TMTstop-control_1_3greenlinestimulus21.png,TMTstop-control_1_3redlinestimulus21.png,3,74,0,2,2,2,0,23,23,23,,,,,,,,,,,,,,,,,2,0,39.21085120015778,None,"['2', '3']",1,"[-0.0378479000646621, 0.05336499982513487]",39.21085120015778,None,,001,2022_Feb_02_1703,TMTAstop-A,2021.2.3,145.11702956511184,
TMTstop-Control_1_3.xlsx,52:78,25,['1'],1,TMTstop-control_1_3linestimulus22.png,TMTstop-control_1_3greenlinestimulus22.png,TMTstop-control_1_3redlinestimulus22.png,3,75,0,2,2,2,0,24,24,24,,,,,,,,,,,,,,,,,1,1,39.36986850015819,None,['1'],1,[0.022212699986994267],39.36986850015819,None,,001,2022_Feb_02_1703,TMTAstop-A,2021.2.3,145.11702956511184,
TMTstop-Control_1_3.xlsx,52:78,None,None,None,TMTstop-control_1_3linestimulus23.png,TMTstop-control_1_3greenlinestimulus23.png,TMTstop-control_1_3redlinestimulus23.png,3,Feedback_last,0,2,2,2,0,25,25,25,,,,,,,,,,,,,,,,,3,0,39.46024590008892,None,"['2', '3', '1']",0,"[0.008210700005292892, 0.08348889998160303, 0.21017699991352856]",39.46024590008892,None,,001,2022_Feb_02_1703,TMTAstop-A,2021.2.3,145.11702956511184,
TMTstop-Control_1_4.xlsx,78:104,1,['2'],2,TMTstop-control_1_4.png,TMTstop-control_1_4.png,TMTstop-control_1_4.png,4,76,0,3,3,3,0,0,0,0,,,,,,,,,,,,,,,,,2,0,43.5915987000335,None,"['1', '2']",1,"[0.519388800021261, 0.6353541000280529]",43.5915987000335,None,,001,2022_Feb_02_1703,TMTAstop-A,2021.2.3,145.11702956511184,
TMTstop-Control_1_4.xlsx,78:104,2,['1'],1,TMTstop-control_1_4.png,TMTstop-control_1_4firstgreen.png,TMTstop-control_1_4firstred.png,4,77,0,3,3,3,0,1,1,1,,,,,,,,,,,,,,,,,8,0,44.32859530020505,None,"['3', '1', '2', '3', '1', '2', '3', '1']",1,"[-0.04306300007738173, 0.12750039994716644, 0.1523117998149246, 0.2668835998047143, 0.4110755999572575, 0.42995429993607104, 0.5393532000016421, 0.6806616999674588]",44.32859530020505,None,,001,2022_Feb_02_1703,TMTAstop-A,2021.2.3,145.11702956511184,
TMTstop-Control_1_4.xlsx,78:104,3,['3'],3,TMTstop-control_1_4linestimulus0.png,TMTstop-control_1_4greenlinestimulus0.png,TMTstop-control_1_4redlinestimulus0.png,4,78,0,3,3,3,0,2,2,2,,,,,,,,,,,,,,,,,2,0,45.106067000189796,None,"['2', '3']",1,"[-0.054957899963483214, 0.038113600108772516]",45.106067000189796,None,,001,2022_Feb_02_1703,TMTAstop-A,2021.2.3,145.11702956511184,
TMTstop-Control_1_4.xlsx,78:104,4,['1'],1,TMTstop-control_1_4linestimulus1.png,TMTstop-control_1_4greenlinestimulus1.png,TMTstop-control_1_4redlinestimulus1.png,4,79,0,3,3,3,0,3,3,3,,,,,,,,,,,,,,,,,1,1,45.22500000009313,None,['1'],1,[0.09715840010903776],45.22500000009313,None,,001,2022_Feb_02_1703,TMTAstop-A,2021.2.3,145.11702956511184,
TMTstop-Control_1_4.xlsx,78:104,5,['2'],2,TMTstop-control_1_4linestimulus2.png,TMTstop-control_1_4greenlinestimulus2.png,TMTstop-control_1_4redlinestimulus2.png,4,80,0,3,3,3,0,4,4,4,,,,,,,,,,,,,,,,,1,1,45.40445080003701,None,['2'],1,[-0.0679299000184983],45.40445080003701,None,,001,2022_Feb_02_1703,TMTAstop-A,2021.2.3,145.11702956511184,
TMTstop-Control_1_4.xlsx,78:104,6,['1'],1,TMTstop-control_1_4linestimulus3.png,TMTstop-control_1_4greenlinestimulus3.png,TMTstop-control_1_4redlinestimulus3.png,4,81,0,3,3,3,0,5,5,5,,,,,,,,,,,,,,,,,2,0,45.473915700102225,None,"['3', '1']",1,"[0.01904299994930625, 0.16342579992488027]",45.473915700102225,None,,001,2022_Feb_02_1703,TMTAstop-A,2021.2.3,145.11702956511184,
TMTstop-Control_1_4.xlsx,78:104,7,['3'],3,TMTstop-control_1_4linestimulus4.png,TMTstop-control_1_4greenlinestimulus4.png,TMTstop-control_1_4redlinestimulus4.png,4,82,0,3,3,3,0,6,6,6,,,,,,,,,,,,,,,,,2,0,45.72484770021401,None,"['2', '3']",1,"[-0.05941099999472499, 0.09577989997342229]",45.72484770021401,None,,001,2022_Feb_02_1703,TMTAstop-A,2021.2.3,145.11702956511184,
TMTstop-Control_1_4.xlsx,78:104,8,['1'],1,TMTstop-control_1_4linestimulus4.png,TMTstop-control_1_4greenlinestimulus5.png,TMTstop-control_1_4redlinestimulus5.png,4,83,0,3,3,3,0,7,7,7,,,,,,,,,,,,,,,,,1,1,45.91838030004874,None,['1'],1,[0.04034300008788705],45.91838030004874,None,,001,2022_Feb_02_1703,TMTAstop-A,2021.2.3,145.11702956511184,
TMTstop-Control_1_4.xlsx,78:104,9,['2'],2,TMTstop-control_1_4linestimulus6.png,TMTstop-control_1_4greenlinestimulus6.png,TMTstop-control_1_4redlinestimulus6.png,4,84,0,3,3,3,0,8,8,8,,,,,,,,,,,,,,,,,1,1,46.036748400190845,None,['2'],1,[-0.039612799882888794],46.036748400190845,None,,001,2022_Feb_02_1703,TMTAstop-A,2021.2.3,145.11702956511184,
TMTstop-Control_1_4.xlsx,78:104,10,['1'],1,TMTstop-control_1_4linestimulus7.png,TMTstop-control_1_4greenlinestimulus7.png,TMTstop-control_1_4redlinestimulus7.png,4,85,0,3,3,3,0,9,9,9,,,,,,,,,,,,,,,,,2,0,46.10580840008333,None,"['3', '1']",1,"[0.010453299852088094, 0.17902169981971383]",46.10580840008333,None,,001,2022_Feb_02_1703,TMTAstop-A,2021.2.3,145.11702956511184,
TMTstop-Control_1_4.xlsx,78:104,11,['2'],2,TMTstop-control_1_4linestimulus8.png,TMTstop-control_1_4greenlinestimulus8.png,TMTstop-control_1_4redlinestimulus8.png,4,86,0,3,3,3,0,10,10,10,,,,,,,,,,,,,,,,,1,1,46.3569994000718,None,['2'],1,[-0.0028774000238627195],46.3569994000718,None,,001,2022_Feb_02_1703,TMTAstop-A,2021.2.3,145.11702956511184,
TMTstop-Control_1_4.xlsx,78:104,12,['1'],1,TMTstop-control_1_4linestimulus9.png,TMTstop-control_1_4greenlinestimulus9.png,TMTstop-control_1_4redlinestimulus9.png,4,87,0,3,3,3,0,11,11,11,,,,,,,,,,,,,,,,,2,0,46.425131500000134,None,"['3', '1']",1,"[0.03792009991593659, 0.18685079994611442]",46.425131500000134,None,,001,2022_Feb_02_1703,TMTAstop-A,2021.2.3,145.11702956511184,
TMTstop-Control_1_4.xlsx,78:104,13,['2'],2,TMTstop-control_1_4linestimulus10.png,TMTstop-control_1_4greenlinestimulus10.png,TMTstop-control_1_4redlinestimulus10.png,4,88,0,3,3,3,0,12,12,12,,,,,,,,,,,,,,,,,1,1,46.696171400137246,None,['2'],1,[-0.019769700011238456],46.696171400137246,None,,001,2022_Feb_02_1703,TMTAstop-A,2021.2.3,145.11702956511184,
TMTstop-Control_1_4.xlsx,78:104,14,['1'],1,TMTstop-control_1_4linestimulus11.png,TMTstop-control_1_4greenlinestimulus11.png,TMTstop-control_1_4redlinestimulus11.png,4,89,0,3,3,3,0,13,13,13,,,,,,,,,,,,,,,,,2,0,46.768241700017825,None,"['3', '1']",1,"[0.0022475000005215406, 0.1456247998867184]",46.768241700017825,None,,001,2022_Feb_02_1703,TMTAstop-A,2021.2.3,145.11702956511184,
TMTstop-Control_1_4.xlsx,78:104,15,['2'],2,TMTstop-control_1_4linestimulus12.png,TMTstop-control_1_4greenlinestimulus12.png,TMTstop-control_1_4redlinestimulus12.png,4,90,0,3,3,3,0,14,14,14,,,,,,,,,,,,,,,,,1,1,47.015994400018826,None,['2'],1,[-0.023140500066801906],47.015994400018826,None,,001,2022_Feb_02_1703,TMTAstop-A,2021.2.3,145.11702956511184,
TMTstop-Control_1_4.xlsx,78:104,16,['3'],3,TMTstop-control_1_4linestimulus13.png,TMTstop-control_1_4greenlinestimulus13.png,TMTstop-control_1_4redlinestimulus13.png,4,91,0,3,3,3,0,15,15,15,,,,,,,,,,,,,,,,,1,1,47.092187400208786,None,['3'],1,[-0.008910899981856346],47.092187400208786,None,,001,2022_Feb_02_1703,TMTAstop-A,2021.2.3,145.11702956511184,
TMTstop-Control_1_4.xlsx,78:104,17,['2'],2,TMTstop-control_1_4linestimulus14.png,TMTstop-control_1_4greenlinestimulus14.png,TMTstop-control_1_4redlinestimulus14.png,4,92,0,3,3,3,0,16,16,16,,,,,,,,,,,,,,,,,2,0,47.168620800133795,None,"['1', '2']",1,"[0.056555200135335326, 0.11086390004493296]",47.168620800133795,None,,001,2022_Feb_02_1703,TMTAstop-A,2021.2.3,145.11702956511184,
TMTstop-Control_1_4.xlsx,78:104,18,['3'],3,TMTstop-control_1_4linestimulus15.png,TMTstop-control_1_4greenlinestimulus15.png,TMTstop-control_1_4redlinestimulus15.png,4,93,0,3,3,3,0,17,17,17,,,,,,,,,,,,,,,,,1,1,47.37740400014445,None,['3'],1,[0.017383099999278784],47.37740400014445,None,,001,2022_Feb_02_1703,TMTAstop-A,2021.2.3,145.11702956511184,
TMTstop-Control_1_4.xlsx,78:104,19,['1'],1,TMTstop-control_1_4linestimulus16.png,TMTstop-control_1_4greenlinestimulus16.png,TMTstop-control_1_4redlinestimulus16.png,4,94,0,3,3,3,0,18,18,18,,,,,,,,,,,,,,,,,1,1,47.474456100026146,None,['1'],1,[0.07644660002551973],47.474456100026146,None,,001,2022_Feb_02_1703,TMTAstop-A,2021.2.3,145.11702956511184,
TMTstop-Control_1_4.xlsx,78:104,20,['3'],3,TMTstop-control_1_4linestimulus17.png,TMTstop-control_1_4greenlinestimulus17.png,TMTstop-control_1_4redlinestimulus17.png,4,95,0,3,3,3,0,19,19,19,,,,,,,,,,,,,,,,,2,0,47.626843800069764,None,"['2', '3']",1,"[0.0437606000341475, 0.14868159987963736]",47.626843800069764,None,,001,2022_Feb_02_1703,TMTAstop-A,2021.2.3,145.11702956511184,
TMTstop-Control_1_4.xlsx,78:104,21,['2'],2,TMTstop-control_1_4linestimulus18.png,TMTstop-control_1_4greenlinestimulus18.png,TMTstop-control_1_4redlinestimulus18.png,4,96,0,3,3,3,0,20,20,20,,,,,,,,,,,,,,,,,2,0,47.898695500101894,None,"['1', '2']",1,"[0.020428300136700273, 0.11943990015424788]",47.898695500101894,None,,001,2022_Feb_02_1703,TMTAstop-A,2021.2.3,145.11702956511184,
TMTstop-Control_1_4.xlsx,78:104,22,['3'],3,TMTstop-control_1_4linestimulus19.png,TMTstop-control_1_4greenlinestimulus19.png,TMTstop-control_1_4redlinestimulus19.png,4,97,0,3,3,3,0,21,21,21,,,,,,,,,,,,,,,,,1,1,48.15610360004939,None,['3'],1,[-0.04982670000754297],48.15610360004939,None,,001,2022_Feb_02_1703,TMTAstop-A,2021.2.3,145.11702956511184,
TMTstop-Control_1_4.xlsx,78:104,23,['2'],2,TMTstop-control_1_4linestimulus20.png,TMTstop-control_1_4greenlinestimulus20.png,TMTstop-control_1_4redlinestimulus20.png,4,98,0,3,3,3,0,22,22,22,,,,,,,,,,,,,,,,,2,0,48.23881970020011,None,"['1', '2']",1,"[0.022693400038406253, 0.06390399998053908]",48.23881970020011,None,,001,2022_Feb_02_1703,TMTAstop-A,2021.2.3,145.11702956511184,
TMTstop-Control_1_4.xlsx,78:104,24,['1'],1,TMTstop-control_1_4linestimulus21.png,TMTstop-control_1_4greenlinestimulus21.png,TMTstop-control_1_4redlinestimulus21.png,4,99,0,3,3,3,0,23,23,23,,,,,,,,,,,,,,,,,2,0,48.384177800035104,None,"['3', '1']",1,"[0.06322130002081394, 0.20414060004986823]",48.384177800035104,None,,001,2022_Feb_02_1703,TMTAstop-A,2021.2.3,145.11702956511184,
TMTstop-Control_1_4.xlsx,78:104,25,['3'],3,TMTstop-control_1_4linestimulus22.png,TMTstop-control_1_4greenlinestimulus22.png,TMTstop-control_1_4redlinestimulus22.png,4,100,0,3,3,3,0,24,24,24,,,,,,,,,,,,,,,,,2,0,48.682784700067714,None,"['2', '3']",1,"[-0.054294400149956346, 0.09875649982132018]",48.682784700067714,None,,001,2022_Feb_02_1703,TMTAstop-A,2021.2.3,145.11702956511184,
TMTstop-Control_1_4.xlsx,78:104,None,None,None,TMTstop-control_1_4linestimulus23.png,TMTstop-control_1_4greenlinestimulus23.png,TMTstop-control_1_4redlinestimulus23.png,4,Feedback_last,0,3,3,3,0,25,25,25,,,,,,,,,,,,,,,,,2,0,48.86966060008854,None,"['1', '2']",0,"[0.15148060000501573, 0.5490369000472128]",48.86966060008854,None,,001,2022_Feb_02_1703,TMTAstop-A,2021.2.3,145.11702956511184,
TMTstop-Control_1_5.xlsx,104:130,1,['1'],1,TMTstop-control_1_5.png,TMTstop-control_1_5.png,TMTstop-control_1_5.png,5,101,0,4,4,4,0,0,0,0,,,,,,,,,,,,,,,,,1,1,53.02205890021287,None,['1'],1,[0.6057161001954228],53.02205890021287,None,,001,2022_Feb_02_1703,TMTAstop-A,2021.2.3,145.11702956511184,
TMTstop-Control_1_5.xlsx,104:130,2,['2'],2,TMTstop-control_1_5.png,TMTstop-control_1_5firstgreen.png,TMTstop-control_1_5firstred.png,5,102,0,4,4,4,0,1,1,1,,,,,,,,,,,,,,,,,1,1,53.71013980009593,None,['2'],1,[-0.0016181000974029303],53.71013980009593,None,,001,2022_Feb_02_1703,TMTAstop-A,2021.2.3,145.11702956511184,
TMTstop-Control_1_5.xlsx,104:130,3,['3'],3,TMTstop-control_1_5linestimulus0.png,TMTstop-control_1_5greenlinestimulus0.png,TMTstop-control_1_5redlinestimulus0.png,5,103,0,4,4,4,0,2,2,2,,,,,,,,,,,,,,,,,1,1,53.77946460014209,None,['3'],1,[0.02544820006005466],53.77946460014209,None,,001,2022_Feb_02_1703,TMTAstop-A,2021.2.3,145.11702956511184,
TMTstop-Control_1_5.xlsx,104:130,4,['1'],1,TMTstop-control_1_5linestimulus1.png,TMTstop-control_1_5greenlinestimulus1.png,TMTstop-control_1_5redlinestimulus1.png,5,104,0,4,4,4,0,3,3,3,,,,,,,,,,,,,,,,,1,1,53.87698840000667,None,['1'],1,[0.08515900000929832],53.87698840000667,None,,001,2022_Feb_02_1703,TMTAstop-A,2021.2.3,145.11702956511184,
TMTstop-Control_1_5.xlsx,104:130,5,['2'],2,TMTstop-control_1_5linestimulus2.png,TMTstop-control_1_5greenlinestimulus2.png,TMTstop-control_1_5redlinestimulus2.png,5,105,0,4,4,4,0,4,4,4,,,,,,,,,,,,,,,,,1,1,54.04351310012862,None,['2'],1,[-0.05718509992584586],54.04351310012862,None,,001,2022_Feb_02_1703,TMTAstop-A,2021.2.3,145.11702956511184,
TMTstop-Control_1_5.xlsx,104:130,6,['3'],3,TMTstop-control_1_5linestimulus3.png,TMTstop-control_1_5greenlinestimulus3.png,TMTstop-control_1_5redlinestimulus3.png,5,106,0,4,4,4,0,5,5,5,,,,,,,,,,,,,,,,,1,1,54.112770800013095,None,['3'],1,[-0.01238149986602366],54.112770800013095,None,,001,2022_Feb_02_1703,TMTAstop-A,2021.2.3,145.11702956511184,
TMTstop-Control_1_5.xlsx,104:130,7,['2'],2,TMTstop-control_1_5linestimulus4.png,TMTstop-control_1_5greenlinestimulus4.png,TMTstop-control_1_5redlinestimulus4.png,5,107,0,4,4,4,0,6,6,6,,,,,,,,,,,,,,,,,2,0,54.18264880008064,None,"['1', '2']",1,"[0.05256819981150329, 0.10281579988077283]",54.18264880008064,None,,001,2022_Feb_02_1703,TMTAstop-A,2021.2.3,145.11702956511184,
TMTstop-Control_1_5.xlsx,104:130,8,['3'],3,TMTstop-control_1_5linestimulus4.png,TMTstop-control_1_5greenlinestimulus5.png,TMTstop-control_1_5redlinestimulus5.png,5,108,0,4,4,4,0,7,7,7,,,,,,,,,,,,,,,,,1,1,54.35565080004744,None,['3'],1,[0.028367900056764483],54.35565080004744,None,,001,2022_Feb_02_1703,TMTAstop-A,2021.2.3,145.11702956511184,
TMTstop-Control_1_5.xlsx,104:130,9,['2'],2,TMTstop-control_1_5linestimulus6.png,TMTstop-control_1_5greenlinestimulus6.png,TMTstop-control_1_5redlinestimulus6.png,5,109,0,4,4,4,0,8,8,8,,,,,,,,,,,,,,,,,2,0,54.452951200073585,None,"['1', '2']",1,"[0.06551730004139245, 0.14409069996327162]",54.452951200073585,None,,001,2022_Feb_02_1703,TMTAstop-A,2021.2.3,145.11702956511184,
TMTstop-Control_1_5.xlsx,104:130,10,['3'],3,TMTstop-control_1_5linestimulus7.png,TMTstop-control_1_5greenlinestimulus7.png,TMTstop-control_1_5redlinestimulus7.png,5,110,0,4,4,4,0,9,9,9,,,,,,,,,,,,,,,,,1,1,54.68202730012126,None,['3'],1,[0.00137039995752275],54.68202730012126,None,,001,2022_Feb_02_1703,TMTAstop-A,2021.2.3,145.11702956511184,
TMTstop-Control_1_5.xlsx,104:130,11,['1'],1,TMTstop-control_1_5linestimulus8.png,TMTstop-control_1_5greenlinestimulus8.png,TMTstop-control_1_5redlinestimulus8.png,5,111,0,4,4,4,0,10,10,10,,,,,,,,,,,,,,,,,4,0,54.75866600009613,None,"['1', '2', '3', '1']",1,"[0.08410380012355745, 0.08927350002340972, 0.24009279999881983, 0.36420880001969635]",54.75866600009613,None,,001,2022_Feb_02_1703,TMTAstop-A,2021.2.3,145.11702956511184,
TMTstop-Control_1_5.xlsx,104:130,12,['2'],2,TMTstop-control_1_5linestimulus9.png,TMTstop-control_1_5greenlinestimulus9.png,TMTstop-control_1_5redlinestimulus9.png,5,112,0,4,4,4,0,11,11,11,,,,,,,,,,,,,,,,,1,1,55.223628300009295,None,['2'],1,[-0.027066099923104048],55.223628300009295,None,,001,2022_Feb_02_1703,TMTAstop-A,2021.2.3,145.11702956511184,
TMTstop-Control_1_5.xlsx,104:130,13,['1'],1,TMTstop-control_1_5linestimulus10.png,TMTstop-control_1_5greenlinestimulus10.png,TMTstop-control_1_5redlinestimulus10.png,5,113,0,4,4,4,0,12,12,12,,,,,,,,,,,,,,,,,5,0,55.30004410003312,None,"['2', '1', '2', '3', '1']",1,"[0.11331679997965693, 0.3844890999607742, 0.392219299916178, 0.6016623999457806, 0.7153677998576313]",55.30004410003312,None,,001,2022_Feb_02_1703,TMTAstop-A,2021.2.3,145.11702956511184,
TMTstop-Control_1_5.xlsx,104:130,14,['2'],2,TMTstop-control_1_5linestimulus11.png,TMTstop-control_1_5greenlinestimulus11.png,TMTstop-control_1_5redlinestimulus11.png,5,114,0,4,4,4,0,13,13,13,,,,,,,,,,,,,,,,,1,1,56.133261300157756,None,['2'],1,[-0.05806969990953803],56.133261300157756,None,,001,2022_Feb_02_1703,TMTAstop-A,2021.2.3,145.11702956511184,
TMTstop-Control_1_5.xlsx,104:130,15,['1'],1,TMTstop-control_1_5linestimulus12.png,TMTstop-control_1_5greenlinestimulus12.png,TMTstop-control_1_5redlinestimulus12.png,5,115,0,4,4,4,0,14,14,14,,,,,,,,,,,,,,,,,1,1,56.20292120007798,None,['1'],1,[0.18708820012398064],56.20292120007798,None,,001,2022_Feb_02_1703,TMTAstop-A,2021.2.3,145.11702956511184,
TMTstop-Control_1_5.xlsx,104:130,16,['3'],3,TMTstop-control_1_5linestimulus13.png,TMTstop-control_1_5greenlinestimulus13.png,TMTstop-control_1_5redlinestimulus13.png,5,116,0,4,4,4,0,15,15,15,,,,,,,,,,,,,,,,,2,0,56.469827100168914,None,"['2', '3']",1,"[-0.070896300021559, 0.1308887000195682]",56.469827100168914,None,,001,2022_Feb_02_1703,TMTAstop-A,2021.2.3,145.11702956511184,
TMTstop-Control_1_5.xlsx,104:130,17,['2'],2,TMTstop-control_1_5linestimulus14.png,TMTstop-control_1_5greenlinestimulus14.png,TMTstop-control_1_5redlinestimulus14.png,5,117,0,4,4,4,0,16,16,16,,,,,,,,,,,,,,,,,2,0,56.7103269000072,None,"['1', '2']",1,"[0.026559700025245547, 0.0567977000027895]",56.7103269000072,None,,001,2022_Feb_02_1703,TMTAstop-A,2021.2.3,145.11702956511184,
TMTstop-Control_1_5.xlsx,104:130,18,['1'],1,TMTstop-control_1_5linestimulus15.png,TMTstop-control_1_5greenlinestimulus15.png,TMTstop-control_1_5redlinestimulus15.png,5,118,0,4,4,4,0,17,17,17,,,,,,,,,,,,,,,,,5,0,56.8524329001084,None,"['3', '1', '2', '3', '1']",1,"[0.08164340001530945, 0.21823029988445342, 0.2228888999670744, 0.3754229999613017, 0.5474282000213861]",56.8524329001084,None,,001,2022_Feb_02_1703,TMTAstop-A,2021.2.3,145.11702956511184,
TMTstop-Control_1_5.xlsx,104:130,19,['3'],3,TMTstop-control_1_5linestimulus16.png,TMTstop-control_1_5greenlinestimulus16.png,TMTstop-control_1_5redlinestimulus16.png,5,119,0,4,4,4,0,18,18,18,,,,,,,,,,,,,,,,,4,0,57.508239600108936,None,"['2', '1', '2', '3']",1,"[0.08247939986176789, 0.26309299981221557, 0.34558919980190694, 0.4613218999002129]",57.508239600108936,None,,001,2022_Feb_02_1703,TMTAstop-A,2021.2.3,145.11702956511184,
TMTstop-Control_1_5.xlsx,104:130,20,['2'],2,TMTstop-control_1_5linestimulus17.png,TMTstop-control_1_5greenlinestimulus17.png,TMTstop-control_1_5redlinestimulus17.png,5,120,0,4,4,4,0,19,19,19,,,,,,,,,,,,,,,,,2,0,58.043331700144336,None,"['1', '2']",1,"[0.0684507000260055, 0.13733129994943738]",58.043331700144336,None,,001,2022_Feb_02_1703,TMTAstop-A,2021.2.3,145.11702956511184,
TMTstop-Control_1_5.xlsx,104:130,21,['3'],3,TMTstop-control_1_5linestimulus18.png,TMTstop-control_1_5greenlinestimulus18.png,TMTstop-control_1_5redlinestimulus18.png,5,121,0,4,4,4,0,20,20,20,,,,,,,,,,,,,,,,,1,1,58.26615080004558,None,['3'],1,[0.02423139987513423],58.26615080004558,None,,001,2022_Feb_02_1703,TMTAstop-A,2021.2.3,145.11702956511184,
TMTstop-Control_1_5.xlsx,104:130,22,['2'],2,TMTstop-control_1_5linestimulus19.png,TMTstop-control_1_5greenlinestimulus19.png,TMTstop-control_1_5redlinestimulus19.png,5,122,0,4,4,4,0,21,21,21,,,,,,,,,,,,,,,,,2,0,58.38058380014263,None,"['1', '2']",1,"[0.0425694000441581, 0.06658109999261796]",58.38058380014263,None,,001,2022_Feb_02_1703,TMTAstop-A,2021.2.3,145.11702956511184,
TMTstop-Control_1_5.xlsx,104:130,23,['3'],3,TMTstop-control_1_5linestimulus20.png,TMTstop-control_1_5greenlinestimulus20.png,TMTstop-control_1_5redlinestimulus20.png,5,123,0,4,4,4,0,22,22,22,,,,,,,,,,,,,,,,,1,1,58.565633800113574,None,['3'],1,[0.014699900057166815],58.565633800113574,None,,001,2022_Feb_02_1703,TMTAstop-A,2021.2.3,145.11702956511184,
TMTstop-Control_1_5.xlsx,104:130,24,['2'],2,TMTstop-control_1_5linestimulus21.png,TMTstop-control_1_5greenlinestimulus21.png,TMTstop-control_1_5redlinestimulus21.png,5,124,0,4,4,4,0,23,23,23,,,,,,,,,,,,,,,,,2,0,58.6765567001421,None,"['1', '2']",1,"[0.045481800101697445, 0.12270610011182725]",58.6765567001421,None,,001,2022_Feb_02_1703,TMTAstop-A,2021.2.3,145.11702956511184,
TMTstop-Control_1_5.xlsx,104:130,25,['3'],3,TMTstop-control_1_5linestimulus22.png,TMTstop-control_1_5greenlinestimulus22.png,TMTstop-control_1_5redlinestimulus22.png,5,125,0,4,4,4,0,24,24,24,,,,,,,,,,,,,,,,,1,1,58.89734660019167,None,['3'],1,[0.00899340002797544],58.89734660019167,None,,001,2022_Feb_02_1703,TMTAstop-A,2021.2.3,145.11702956511184,
TMTstop-Control_1_5.xlsx,104:130,None,None,None,TMTstop-control_1_5linestimulus23.png,TMTstop-control_1_5greenlinestimulus23.png,TMTstop-control_1_5redlinestimulus23.png,5,Feedback_last,0,4,4,4,0,25,25,25,,,,,,,,,,,,,,,,,3,0,58.98084930004552,None,"['1', '2', '3']",0,"[0.06998919998295605, 0.115876599913463, 0.24695609998889267]",58.98084930004552,None,,001,2022_Feb_02_1703,TMTAstop-A,2021.2.3,145.11702956511184,
TMTstop-Control_1_6.xlsx,130:156,1,['1'],1,TMTstop-control_1_6.png,TMTstop-control_1_6.png,TMTstop-control_1_6.png,6,126,0,5,5,5,0,0,0,0,,,,,,,,,,,,,,,,,1,1,63.09153060009703,None,['1'],1,[0.3519597998820245],63.09153060009703,None,,001,2022_Feb_02_1703,TMTAstop-A,2021.2.3,145.11702956511184,
TMTstop-Control_1_6.xlsx,130:156,2,['3'],3,TMTstop-control_1_6.png,TMTstop-control_1_6firstgreen.png,TMTstop-control_1_6firstred.png,6,127,0,5,5,5,0,1,1,1,,,,,,,,,,,,,,,,,2,0,63.51519180019386,None,"['2', '3']",1,"[0.023371400078758597, 0.10519449994899333]",63.51519180019386,None,,001,2022_Feb_02_1703,TMTAstop-A,2021.2.3,145.11702956511184,
TMTstop-Control_1_6.xlsx,130:156,3,['2'],2,TMTstop-control_1_6linestimulus0.png,TMTstop-control_1_6greenlinestimulus0.png,TMTstop-control_1_6redlinestimulus0.png,6,128,0,5,5,5,0,2,2,2,,,,,,,,,,,,,,,,,2,0,63.695765000069514,None,"['1', '2']",1,"[0.07428159983828664, 0.12657870003022254]",63.695765000069514,None,,001,2022_Feb_02_1703,TMTAstop-A,2021.2.3,145.11702956511184,
TMTstop-Control_1_6.xlsx,130:156,4,['1'],1,TMTstop-control_1_6linestimulus1.png,TMTstop-control_1_6greenlinestimulus1.png,TMTstop-control_1_6redlinestimulus1.png,6,129,0,5,5,5,0,3,3,3,,,,,,,,,,,,,,,,,2,0,63.924713200191036,None,"['3', '1']",1,"[-0.005332800094038248, 0.11749229999259114]",63.924713200191036,None,,001,2022_Feb_02_1703,TMTAstop-A,2021.2.3,145.11702956511184,
TMTstop-Control_1_6.xlsx,130:156,5,['3'],3,TMTstop-control_1_6linestimulus2.png,TMTstop-control_1_6greenlinestimulus2.png,TMTstop-control_1_6redlinestimulus2.png,6,130,0,5,5,5,0,4,4,4,,,,,,,,,,,,,,,,,2,0,64.12126430007629,None,"['2', '3']",1,"[-0.01744129997678101, 0.0739139998331666]",64.12126430007629,None,,001,2022_Feb_02_1703,TMTAstop-A,2021.2.3,145.11702956511184,
TMTstop-Control_1_6.xlsx,130:156,6,['2'],2,TMTstop-control_1_6linestimulus3.png,TMTstop-control_1_6greenlinestimulus3.png,TMTstop-control_1_6redlinestimulus3.png,6,131,0,5,5,5,0,5,5,5,,,,,,,,,,,,,,,,,2,0,64.27318650018424,None,"['1', '2']",1,"[0.06250649993307889, 0.10881310002878308]",64.27318650018424,None,,001,2022_Feb_02_1703,TMTAstop-A,2021.2.3,145.11702956511184,
TMTstop-Control_1_6.xlsx,130:156,7,['1'],1,TMTstop-control_1_6linestimulus4.png,TMTstop-control_1_6greenlinestimulus4.png,TMTstop-control_1_6redlinestimulus4.png,6,132,0,5,5,5,0,6,6,6,,,,,,,,,,,,,,,,,5,0,64.45252610021271,None,"['3', '1', '2', '3', '1']",1,"[0.12440410000272095, 0.21922180010005832, 0.2230732999742031, 0.3759991000406444, 0.5001825999934226]",64.45252610021271,None,,001,2022_Feb_02_1703,TMTAstop-A,2021.2.3,145.11702956511184,
TMTstop-Control_1_6.xlsx,130:156,8,['2'],2,TMTstop-control_1_6linestimulus4.png,TMTstop-control_1_6greenlinestimulus5.png,TMTstop-control_1_6redlinestimulus5.png,6,133,0,5,5,5,0,7,7,7,,,,,,,,,,,,,,,,,1,1,65.02478340012021,None,['2'],1,[-0.03272420004941523],65.02478340012021,None,,001,2022_Feb_02_1703,TMTAstop-A,2021.2.3,145.11702956511184,
TMTstop-Control_1_6.xlsx,130:156,9,['3'],3,TMTstop-control_1_6linestimulus6.png,TMTstop-control_1_6greenlinestimulus6.png,TMTstop-control_1_6redlinestimulus6.png,6,134,0,5,5,5,0,8,8,8,,,,,,,,,,,,,,,,,3,0,65.10049490001984,None,"['2', '1', '3']",1,"[0.13871369999833405, 0.14276920002885163, 0.3631581999361515]",65.10049490001984,None,,001,2022_Feb_02_1703,TMTAstop-A,2021.2.3,145.11702956511184,
TMTstop-Control_1_6.xlsx,130:156,10,['1'],1,TMTstop-control_1_6linestimulus7.png,TMTstop-control_1_6greenlinestimulus7.png,TMTstop-control_1_6redlinestimulus7.png,6,135,0,5,5,5,0,9,9,9,,,,,,,,,,,,,,,,,4,0,65.54335010005161,None,"['1', '2', '3', '1']",1,"[0.08669469994492829, 0.0905144999269396, 0.24609889998100698, 0.39853709982708097]",65.54335010005161,None,,001,2022_Feb_02_1703,TMTAstop-A,2021.2.3,145.11702956511184,
TMTstop-Control_1_6.xlsx,130:156,11,['3'],3,TMTstop-control_1_6linestimulus8.png,TMTstop-control_1_6greenlinestimulus8.png,TMTstop-control_1_6redlinestimulus8.png,6,136,0,5,5,5,0,10,10,10,,,,,,,,,,,,,,,,,2,0,66.00839860015549,None,"['2', '3']",1,"[0.03394820005632937, 0.11643060017377138]",66.00839860015549,None,,001,2022_Feb_02_1703,TMTAstop-A,2021.2.3,145.11702956511184,
TMTstop-Control_1_6.xlsx,130:156,12,['1'],1,TMTstop-control_1_6linestimulus9.png,TMTstop-control_1_6greenlinestimulus9.png,TMTstop-control_1_6redlinestimulus9.png,6,137,0,5,5,5,0,11,11,11,,,,,,,,,,,,,,,,,1,1,66.1962460000068,None,['1'],1,[0.11790749989449978],66.1962460000068,None,,001,2022_Feb_02_1703,TMTAstop-A,2021.2.3,145.11702956511184,
TMTstop-Control_1_6.xlsx,130:156,13,['3'],3,TMTstop-control_1_6linestimulus10.png,TMTstop-control_1_6greenlinestimulus10.png,TMTstop-control_1_6redlinestimulus10.png,6,138,0,5,5,5,0,12,12,12,,,,,,,,,,,,,,,,,2,0,66.38340430008247,None,"['2', '3']",1,"[-0.044286300195381045, 0.10386069980449975]",66.38340430008247,None,,001,2022_Feb_02_1703,TMTAstop-A,2021.2.3,145.11702956511184,
TMTstop-Control_1_6.xlsx,130:156,14,['1'],1,TMTstop-control_1_6linestimulus11.png,TMTstop-control_1_6greenlinestimulus11.png,TMTstop-control_1_6redlinestimulus11.png,6,139,0,5,5,5,0,13,13,13,,,,,,,,,,,,,,,,,1,1,66.57790580019355,None,['1'],1,[0.06121199997141957],66.57790580019355,None,,001,2022_Feb_02_1703,TMTAstop-A,2021.2.3,145.11702956511184,
TMTstop-Control_1_6.xlsx,130:156,15,['3'],3,TMTstop-control_1_6linestimulus12.png,TMTstop-control_1_6greenlinestimulus12.png,TMTstop-control_1_6redlinestimulus12.png,6,140,0,5,5,5,0,14,14,14,,,,,,,,,,,,,,,,,2,0,66.71698800008744,None,"['2', '3']",1,"[-0.03798910020850599, 0.10467509995214641]",66.71698800008744,None,,001,2022_Feb_02_1703,TMTAstop-A,2021.2.3,145.11702956511184,
TMTstop-Control_1_6.xlsx,130:156,16,['1'],1,TMTstop-control_1_6linestimulus13.png,TMTstop-control_1_6greenlinestimulus13.png,TMTstop-control_1_6redlinestimulus13.png,6,141,0,5,5,5,0,15,15,15,,,,,,,,,,,,,,,,,1,1,66.91093070013449,None,['1'],1,[0.056471000192686915],66.91093070013449,None,,001,2022_Feb_02_1703,TMTAstop-A,2021.2.3,145.11702956511184,
TMTstop-Control_1_6.xlsx,130:156,17,['2'],2,TMTstop-control_1_6linestimulus14.png,TMTstop-control_1_6greenlinestimulus14.png,TMTstop-control_1_6redlinestimulus14.png,6,142,0,5,5,5,0,16,16,16,,,,,,,,,,,,,,,,,1,1,67.0428508000914,None,['2'],1,[-0.012836500070989132],67.0428508000914,None,,001,2022_Feb_02_1703,TMTAstop-A,2021.2.3,145.11702956511184,
TMTstop-Control_1_6.xlsx,130:156,18,['1'],1,TMTstop-control_1_6linestimulus15.png,TMTstop-control_1_6greenlinestimulus15.png,TMTstop-control_1_6redlinestimulus15.png,6,143,0,5,5,5,0,17,17,17,,,,,,,,,,,,,,,,,2,0,67.11945240013301,None,"['3', '1']",1,"[0.028298899997025728, 0.1791850000154227]",67.11945240013301,None,,001,2022_Feb_02_1703,TMTAstop-A,2021.2.3,145.11702956511184,
TMTstop-Control_1_6.xlsx,130:156,19,['3'],3,TMTstop-control_1_6linestimulus16.png,TMTstop-control_1_6greenlinestimulus16.png,TMTstop-control_1_6redlinestimulus16.png,6,144,0,5,5,5,0,18,18,18,,,,,,,,,,,,,,,,,2,0,67.39793170010671,None,"['2', '3']",1,"[0.0015477000270038843, 0.061715800082311034]",67.39793170010671,None,,001,2022_Feb_02_1703,TMTAstop-A,2021.2.3,145.11702956511184,
TMTstop-Control_1_6.xlsx,130:156,20,['1'],1,TMTstop-control_1_6linestimulus17.png,TMTstop-control_1_6greenlinestimulus17.png,TMTstop-control_1_6redlinestimulus17.png,6,145,0,5,5,5,0,19,19,19,,,,,,,,,,,,,,,,,1,1,67.55692080012523,None,['1'],1,[0.07824559998698533],67.55692080012523,None,,001,2022_Feb_02_1703,TMTAstop-A,2021.2.3,145.11702956511184,
TMTstop-Control_1_6.xlsx,130:156,21,['3'],3,TMTstop-control_1_6linestimulus18.png,TMTstop-control_1_6greenlinestimulus18.png,TMTstop-control_1_6redlinestimulus18.png,6,146,0,5,5,5,0,20,20,20,,,,,,,,,,,,,,,,,2,0,67.7171421002131,None,"['2', '3']",1,"[0.013233899837359786, 0.13087219977751374]",67.7171421002131,None,,001,2022_Feb_02_1703,TMTAstop-A,2021.2.3,145.11702956511184,
TMTstop-Control_1_6.xlsx,130:156,22,['1'],1,TMTstop-control_1_6linestimulus19.png,TMTstop-control_1_6greenlinestimulus19.png,TMTstop-control_1_6redlinestimulus19.png,6,147,0,5,5,5,0,21,21,21,,,,,,,,,,,,,,,,,1,1,67.93206640006974,None,['1'],1,[0.03221570001915097],67.93206640006974,None,,001,2022_Feb_02_1703,TMTAstop-A,2021.2.3,145.11702956511184,
TMTstop-Control_1_6.xlsx,130:156,23,['3'],3,TMTstop-control_1_6linestimulus20.png,TMTstop-control_1_6greenlinestimulus20.png,TMTstop-control_1_6redlinestimulus20.png,6,148,0,5,5,5,0,22,22,22,,,,,,,,,,,,,,,,,2,0,68.03620440000668,None,"['2', '3']",1,"[0.004476299975067377, 0.114452000008896]",68.03620440000668,None,,001,2022_Feb_02_1703,TMTAstop-A,2021.2.3,145.11702956511184,
TMTstop-Control_1_6.xlsx,130:156,24,['2'],2,TMTstop-control_1_6linestimulus21.png,TMTstop-control_1_6greenlinestimulus21.png,TMTstop-control_1_6redlinestimulus21.png,6,149,0,5,5,5,0,23,23,23,,,,,,,,,,,,,,,,,2,0,68.25116450013593,None,"['1', '2']",1,"[0.04214009991846979, 0.131521699950099]",68.25116450013593,None,,001,2022_Feb_02_1703,TMTAstop-A,2021.2.3,145.11702956511184,
TMTstop-Control_1_6.xlsx,130:156,25,['1'],1,TMTstop-control_1_6linestimulus22.png,TMTstop-control_1_6greenlinestimulus22.png,TMTstop-control_1_6redlinestimulus22.png,6,150,0,5,5,5,0,24,24,24,,,,,,,,,,,,,,,,,2,0,68.45335160009563,None,"['3', '1']",1,"[0.02758429991081357, 0.17043149983510375]",68.45335160009563,None,,001,2022_Feb_02_1703,TMTAstop-A,2021.2.3,145.11702956511184,
TMTstop-Control_1_6.xlsx,130:156,None,None,None,TMTstop-control_1_6linestimulus23.png,TMTstop-control_1_6greenlinestimulus23.png,TMTstop-control_1_6redlinestimulus23.png,6,Feedback_last,0,5,5,5,0,25,25,25,,,,,,,,,,,,,,,,,2,0,68.72349030012265,None,"['2', '3']",0,"[-0.04982749978080392, 0.17132580000907183]",68.72349030012265,None,,001,2022_Feb_02_1703,TMTAstop-A,2021.2.3,145.11702956511184,
TMTstop-Control_1_7.xlsx,156:182,1,['1'],1,TMTstop-control_1_7.png,TMTstop-control_1_7.png,TMTstop-control_1_7.png,7,151,0,6,6,6,0,0,0,0,,,,,,,,,,,,,,,,,1,1,72.84070450020954,None,['1'],1,[0.468168499879539],72.84070450020954,None,,001,2022_Feb_02_1703,TMTAstop-A,2021.2.3,145.11702956511184,
TMTstop-Control_1_7.xlsx,156:182,2,['2'],2,TMTstop-control_1_7.png,TMTstop-control_1_7firstgreen.png,TMTstop-control_1_7firstred.png,7,152,0,6,6,6,0,1,1,1,,,,,,,,,,,,,,,,,1,1,73.3835869000759,None,['2'],1,[0.04604050004854798],73.3835869000759,None,,001,2022_Feb_02_1703,TMTAstop-A,2021.2.3,145.11702956511184,
TMTstop-Control_1_7.xlsx,156:182,3,['3'],3,TMTstop-control_1_7linestimulus0.png,TMTstop-control_1_7greenlinestimulus0.png,TMTstop-control_1_7redlinestimulus0.png,7,153,0,6,6,6,0,2,2,2,,,,,,,,,,,,,,,,,1,1,73.50381440017372,None,['3'],1,[-0.0157105999533087],73.50381440017372,None,,001,2022_Feb_02_1703,TMTAstop-A,2021.2.3,145.11702956511184,
TMTstop-Control_1_7.xlsx,156:182,4,['2'],2,TMTstop-control_1_7linestimulus1.png,TMTstop-control_1_7greenlinestimulus1.png,TMTstop-control_1_7redlinestimulus1.png,7,154,0,6,6,6,0,3,3,3,,,,,,,,,,,,,,,,,2,0,73.57044710009359,None,"['1', '2']",1,"[0.07008059998042881, 0.11414909991435707]",73.57044710009359,None,,001,2022_Feb_02_1703,TMTAstop-A,2021.2.3,145.11702956511184,
TMTstop-Control_1_7.xlsx,156:182,5,['3'],3,TMTstop-control_1_7linestimulus2.png,TMTstop-control_1_7greenlinestimulus2.png,TMTstop-control_1_7redlinestimulus2.png,7,155,0,6,6,6,0,4,4,4,,,,,,,,,,,,,,,,,1,1,73.79393400019035,None,['3'],1,[0.007349400082603097],73.79393400019035,None,,001,2022_Feb_02_1703,TMTAstop-A,2021.2.3,145.11702956511184,
TMTstop-Control_1_7.xlsx,156:182,6,['2'],2,TMTstop-control_1_7linestimulus3.png,TMTstop-control_1_7greenlinestimulus3.png,TMTstop-control_1_7redlinestimulus3.png,7,156,0,6,6,6,0,5,5,5,,,,,,,,,,,,,,,,,2,0,73.87595660006627,None,"['1', '2']",1,"[0.05875619989819825, 0.11120899999514222]",73.87595660006627,None,,001,2022_Feb_02_1703,TMTAstop-A,2021.2.3,145.11702956511184,
TMTstop-Control_1_7.xlsx,156:182,7,['1'],1,TMTstop-control_1_7linestimulus4.png,TMTstop-control_1_7greenlinestimulus4.png,TMTstop-control_1_7redlinestimulus4.png,7,157,0,6,6,6,0,6,6,6,,,,,,,,,,,,,,,,,2,0,74.0569165002089,None,"['3', '1']",1,"[0.04182069981470704, 0.1970976998563856]",74.0569165002089,None,,001,2022_Feb_02_1703,TMTAstop-A,2021.2.3,145.11702956511184,
TMTstop-Control_1_7.xlsx,156:182,8,['3'],3,TMTstop-control_1_7linestimulus4.png,TMTstop-control_1_7greenlinestimulus5.png,TMTstop-control_1_7redlinestimulus5.png,7,158,0,6,6,6,0,7,7,7,,,,,,,,,,,,,,,,,2,0,74.34330270020291,None,"['2', '3']",1,"[-0.05354780005291104, 0.09957679989747703]",74.34330270020291,None,,001,2022_Feb_02_1703,TMTAstop-A,2021.2.3,145.11702956511184,
TMTstop-Control_1_7.xlsx,156:182,9,['2'],2,TMTstop-control_1_7linestimulus6.png,TMTstop-control_1_7greenlinestimulus6.png,TMTstop-control_1_7redlinestimulus6.png,7,159,0,6,6,6,0,8,8,8,,,,,,,,,,,,,,,,,2,0,74.54259450011887,None,"['1', '2']",1,"[0.038265899987891316, 0.07340450002811849]",74.54259450011887,None,,001,2022_Feb_02_1703,TMTAstop-A,2021.2.3,145.11702956511184,
TMTstop-Control_1_7.xlsx,156:182,10,['3'],3,TMTstop-control_1_7linestimulus7.png,TMTstop-control_1_7greenlinestimulus7.png,TMTstop-control_1_7redlinestimulus7.png,7,160,0,6,6,6,0,9,9,9,,,,,,,,,,,,,,,,,1,1,74.70290120015852,None,['3'],1,[0.051506000105291605],74.70290120015852,None,,001,2022_Feb_02_1703,TMTAstop-A,2021.2.3,145.11702956511184,
TMTstop-Control_1_7.xlsx,156:182,11,['2'],2,TMTstop-control_1_7linestimulus8.png,TMTstop-control_1_7greenlinestimulus8.png,TMTstop-control_1_7redlinestimulus8.png,7,161,0,6,6,6,0,10,10,10,,,,,,,,,,,,,,,,,2,0,74.8344576000236,None,"['1', '2']",1,"[0.05873730010353029, 0.0937231001444161]",74.8344576000236,None,,001,2022_Feb_02_1703,TMTAstop-A,2021.2.3,145.11702956511184,
TMTstop-Control_1_7.xlsx,156:182,12,['1'],1,TMTstop-control_1_7linestimulus9.png,TMTstop-control_1_7greenlinestimulus9.png,TMTstop-control_1_7redlinestimulus9.png,7,162,0,6,6,6,0,11,11,11,,,,,,,,,,,,,,,,,2,0,75.01489600003697,None,"['3', '1']",1,"[0.07022659992799163, 0.1983793000690639]",75.01489600003697,None,,001,2022_Feb_02_1703,TMTAstop-A,2021.2.3,145.11702956511184,
TMTstop-Control_1_7.xlsx,156:182,13,['2'],2,TMTstop-control_1_7linestimulus10.png,TMTstop-control_1_7greenlinestimulus10.png,TMTstop-control_1_7redlinestimulus10.png,7,163,0,6,6,6,0,12,12,12,,,,,,,,,,,,,,,,,1,1,75.29288840014488,None,['2'],1,[-0.04349300009198487],75.29288840014488,None,,001,2022_Feb_02_1703,TMTAstop-A,2021.2.3,145.11702956511184,
TMTstop-Control_1_7.xlsx,156:182,14,['3'],3,TMTstop-control_1_7linestimulus11.png,TMTstop-control_1_7greenlinestimulus11.png,TMTstop-control_1_7redlinestimulus11.png,7,164,0,6,6,6,0,13,13,13,,,,,,,,,,,,,,,,,1,1,75.36268270015717,None,['3'],1,[0.02888830006122589],75.36268270015717,None,,001,2022_Feb_02_1703,TMTAstop-A,2021.2.3,145.11702956511184,
TMTstop-Control_1_7.xlsx,156:182,15,['2'],2,TMTstop-control_1_7linestimulus12.png,TMTstop-control_1_7greenlinestimulus12.png,TMTstop-control_1_7redlinestimulus12.png,7,165,0,6,6,6,0,14,14,14,,,,,,,,,,,,,,,,,2,0,75.46634560008533,None,"['1', '2']",1,"[0.09485320001840591, 0.13117439998313785]",75.46634560008533,None,,001,2022_Feb_02_1703,TMTAstop-A,2021.2.3,145.11702956511184,
TMTstop-Control_1_7.xlsx,156:182,16,['3'],3,TMTstop-control_1_7linestimulus13.png,TMTstop-control_1_7greenlinestimulus13.png,TMTstop-control_1_7redlinestimulus13.png,7,166,0,6,6,6,0,15,15,15,,,,,,,,,,,,,,,,,1,1,75.68174640019424,None,['3'],1,[0.06431700009852648],75.68174640019424,None,,001,2022_Feb_02_1703,TMTAstop-A,2021.2.3,145.11702956511184,
TMTstop-Control_1_7.xlsx,156:182,17,['1'],1,TMTstop-control_1_7linestimulus14.png,TMTstop-control_1_7greenlinestimulus14.png,TMTstop-control_1_7redlinestimulus14.png,7,167,0,6,6,6,0,16,16,16,,,,,,,,,,,,,,,,,1,1,75.82034450001083,None,['1'],1,[0.06426519993692636],75.82034450001083,None,,001,2022_Feb_02_1703,TMTAstop-A,2021.2.3,145.11702956511184,
TMTstop-Control_1_7.xlsx,156:182,18,['3'],3,TMTstop-control_1_7linestimulus15.png,TMTstop-control_1_7greenlinestimulus15.png,TMTstop-control_1_7redlinestimulus15.png,7,168,0,6,6,6,0,17,17,17,,,,,,,,,,,,,,,,,2,0,75.95960860000923,None,"['2', '3']",1,"[-0.017439000075682998, 0.09397759987041354]",75.95960860000923,None,,001,2022_Feb_02_1703,TMTAstop-A,2021.2.3,145.11702956511184,
TMTstop-Control_1_7.xlsx,156:182,19,['2'],2,TMTstop-control_1_7linestimulus16.png,TMTstop-control_1_7greenlinestimulus16.png,TMTstop-control_1_7redlinestimulus16.png,7,169,0,6,6,6,0,18,18,18,,,,,,,,,,,,,,,,,2,0,76.15399710019119,None,"['1', '2']",1,"[0.03693139995448291, 0.09470000001601875]",76.15399710019119,None,,001,2022_Feb_02_1703,TMTAstop-A,2021.2.3,145.11702956511184,
TMTstop-Control_1_7.xlsx,156:182,20,['3'],3,TMTstop-control_1_7linestimulus17.png,TMTstop-control_1_7greenlinestimulus17.png,TMTstop-control_1_7redlinestimulus17.png,7,170,0,6,6,6,0,19,19,19,,,,,,,,,,,,,,,,,1,1,76.3553935000673,None,['3'],1,[0.005119799869135022],76.3553935000673,None,,001,2022_Feb_02_1703,TMTAstop-A,2021.2.3,145.11702956511184,
TMTstop-Control_1_7.xlsx,156:182,21,['1'],1,TMTstop-control_1_7linestimulus18.png,TMTstop-control_1_7greenlinestimulus18.png,TMTstop-control_1_7redlinestimulus18.png,7,171,0,6,6,6,0,20,20,20,,,,,,,,,,,,,,,,,1,1,76.43865000014193,None,['1'],1,[0.06459120009094477],76.43865000014193,None,,001,2022_Feb_02_1703,TMTAstop-A,2021.2.3,145.11702956511184,
TMTstop-Control_1_7.xlsx,156:182,22,['3'],3,TMTstop-control_1_7linestimulus19.png,TMTstop-control_1_7greenlinestimulus19.png,TMTstop-control_1_7redlinestimulus19.png,7,172,0,6,6,6,0,21,21,21,,,,,,,,,,,,,,,,,2,0,76.57780440011993,None,"['2', '3']",1,"[-0.010160599835216999, 0.10704760020598769]",76.57780440011993,None,,001,2022_Feb_02_1703,TMTAstop-A,2021.2.3,145.11702956511184,
TMTstop-Control_1_7.xlsx,156:182,23,['2'],2,TMTstop-control_1_7linestimulus20.png,TMTstop-control_1_7greenlinestimulus20.png,TMTstop-control_1_7redlinestimulus20.png,7,173,0,6,6,6,0,22,22,22,,,,,,,,,,,,,,,,,2,0,76.77172469999641,None,"['1', '2']",1,"[0.04931799997575581, 0.12213769997470081]",76.77172469999641,None,,001,2022_Feb_02_1703,TMTAstop-A,2021.2.3,145.11702956511184,
TMTstop-Control_1_7.xlsx,156:182,24,['1'],1,TMTstop-control_1_7linestimulus21.png,TMTstop-control_1_7greenlinestimulus21.png,TMTstop-control_1_7redlinestimulus21.png,7,174,0,6,6,6,0,23,23,23,,,,,,,,,,,,,,,,,2,0,76.9798150002025,None,"['3', '1']",1,"[0.04891519993543625, 0.19595479988493025]",76.9798150002025,None,,001,2022_Feb_02_1703,TMTAstop-A,2021.2.3,145.11702956511184,
TMTstop-Control_1_7.xlsx,156:182,25,['2'],2,TMTstop-control_1_7linestimulus22.png,TMTstop-control_1_7greenlinestimulus22.png,TMTstop-control_1_7redlinestimulus22.png,7,175,0,6,6,6,0,24,24,24,,,,,,,,,,,,,,,,,1,1,77.26568499999121,None,['2'],1,[-0.05058639985509217],77.26568499999121,None,,001,2022_Feb_02_1703,TMTAstop-A,2021.2.3,145.11702956511184,
TMTstop-Control_1_7.xlsx,156:182,None,None,None,TMTstop-control_1_7linestimulus23.png,TMTstop-control_1_7greenlinestimulus23.png,TMTstop-control_1_7redlinestimulus23.png,7,Feedback_last,0,6,6,6,0,25,25,25,,,,,,,,,,,,,,,,,4,0,77.3420216999948,None,"['3', '1', '2', '3']",0,"[0.013877800200134516, 0.16506530018523335, 0.2099300001282245, 0.3628963001538068]",77.3420216999948,None,,001,2022_Feb_02_1703,TMTAstop-A,2021.2.3,145.11702956511184,
TMTstop-Control_1_8.xlsx,182:208,1,['3'],3,TMTstop-control_1_8.png,TMTstop-control_1_8.png,TMTstop-control_1_8.png,8,176,0,7,7,7,0,0,0,0,,,,,,,,,,,,,,,,,3,0,81.48646860010922,None,"['1', '2', '3']",1,"[0.44459540001116693, 0.5213604001328349, 0.6042852001264691]",81.48646860010922,None,,001,2022_Feb_02_1703,TMTAstop-A,2021.2.3,145.11702956511184,
TMTstop-Control_1_8.xlsx,182:208,2,['1'],1,TMTstop-control_1_8.png,TMTstop-control_1_8firstgreen.png,TMTstop-control_1_8firstred.png,8,177,0,7,7,7,0,1,1,1,,,,,,,,,,,,,,,,,1,1,82.17601350019686,None,['1'],1,[0.0800988997798413],82.17601350019686,None,,001,2022_Feb_02_1703,TMTAstop-A,2021.2.3,145.11702956511184,
TMTstop-Control_1_8.xlsx,182:208,3,['3'],3,TMTstop-control_1_8linestimulus0.png,TMTstop-control_1_8greenlinestimulus0.png,TMTstop-control_1_8redlinestimulus0.png,8,178,0,7,7,7,0,2,2,2,,,,,,,,,,,,,,,,,2,0,82.33416640013456,None,"['2', '3']",1,"[-0.0290975000243634, 0.07905609998852015]",82.33416640013456,None,,001,2022_Feb_02_1703,TMTAstop-A,2021.2.3,145.11702956511184,
TMTstop-Control_1_8.xlsx,182:208,4,['1'],1,TMTstop-control_1_8linestimulus1.png,TMTstop-control_1_8greenlinestimulus1.png,TMTstop-control_1_8redlinestimulus1.png,8,179,0,7,7,7,0,3,3,3,,,,,,,,,,,,,,,,,1,1,82.49398740008473,None,['1'],1,[0.05646410002373159],82.49398740008473,None,,001,2022_Feb_02_1703,TMTAstop-A,2021.2.3,145.11702956511184,
TMTstop-Control_1_8.xlsx,182:208,5,['3'],3,TMTstop-control_1_8linestimulus2.png,TMTstop-control_1_8greenlinestimulus2.png,TMTstop-control_1_8redlinestimulus2.png,8,180,0,7,7,7,0,4,4,4,,,,,,,,,,,,,,,,,2,0,82.62586430017836,None,"['2', '3']",1,"[-0.04533279989846051, 0.08446049992926419]",82.62586430017836,None,,001,2022_Feb_02_1703,TMTAstop-A,2021.2.3,145.11702956511184,
TMTstop-Control_1_8.xlsx,182:208,6,['2'],2,TMTstop-control_1_8linestimulus3.png,TMTstop-control_1_8greenlinestimulus3.png,TMTstop-control_1_8redlinestimulus3.png,8,181,0,7,7,7,0,5,5,5,,,,,,,,,,,,,,,,,2,0,82.77877790015191,None,"['1', '2']",1,"[0.07407320011407137, 0.10425760014913976]",82.77877790015191,None,,001,2022_Feb_02_1703,TMTAstop-A,2021.2.3,145.11702956511184,
TMTstop-Control_1_8.xlsx,182:208,7,['3'],3,TMTstop-control_1_8linestimulus4.png,TMTstop-control_1_8greenlinestimulus4.png,TMTstop-control_1_8redlinestimulus4.png,8,182,0,7,7,7,0,6,6,6,,,,,,,,,,,,,,,,,1,1,82.9736167001538,None,['3'],1,[0.04004990006797016],82.9736167001538,None,,001,2022_Feb_02_1703,TMTAstop-A,2021.2.3,145.11702956511184,
TMTstop-Control_1_8.xlsx,182:208,8,['2'],2,TMTstop-control_1_8linestimulus4.png,TMTstop-control_1_8greenlinestimulus5.png,TMTstop-control_1_8redlinestimulus5.png,8,183,0,7,7,7,0,7,7,7,,,,,,,,,,,,,,,,,2,0,83.08418490015902,None,"['1', '2']",1,"[0.09048749995417893, 0.11781129986047745]",83.08418490015902,None,,001,2022_Feb_02_1703,TMTAstop-A,2021.2.3,145.11702956511184,
TMTstop-Control_1_8.xlsx,182:208,9,['3'],3,TMTstop-control_1_8linestimulus6.png,TMTstop-control_1_8greenlinestimulus6.png,TMTstop-control_1_8redlinestimulus6.png,8,184,0,7,7,7,0,8,8,8,,,,,,,,,,,,,,,,,1,1,83.2893683000002,None,['3'],1,[0.04610930010676384],83.2893683000002,None,,001,2022_Feb_02_1703,TMTAstop-A,2021.2.3,145.11702956511184,
TMTstop-Control_1_8.xlsx,182:208,10,['1'],1,TMTstop-control_1_8linestimulus7.png,TMTstop-control_1_8greenlinestimulus7.png,TMTstop-control_1_8redlinestimulus7.png,8,185,0,7,7,7,0,9,9,9,,,,,,,,,,,,,,,,,1,1,83.41049150004983,None,['1'],1,[0.07850080006755888],83.41049150004983,None,,001,2022_Feb_02_1703,TMTAstop-A,2021.2.3,145.11702956511184,
TMTstop-Control_1_8.xlsx,182:208,11,['2'],2,TMTstop-control_1_8linestimulus8.png,TMTstop-control_1_8greenlinestimulus8.png,TMTstop-control_1_8redlinestimulus8.png,8,186,0,7,7,7,0,10,10,10,,,,,,,,,,,,,,,,,1,1,83.563369900221,None,['2'],1,[-0.02725300006568432],83.563369900221,None,,001,2022_Feb_02_1703,TMTAstop-A,2021.2.3,145.11702956511184,
TMTstop-Control_1_8.xlsx,182:208,12,['3'],3,TMTstop-control_1_8linestimulus9.png,TMTstop-control_1_8greenlinestimulus9.png,TMTstop-control_1_8redlinestimulus9.png,8,187,0,7,7,7,0,11,11,11,,,,,,,,,,,,,,,,,1,1,83.63308460009284,None,['3'],1,[0.023164500016719103],83.63308460009284,None,,001,2022_Feb_02_1703,TMTAstop-A,2021.2.3,145.11702956511184,
TMTstop-Control_1_8.xlsx,182:208,13,['2'],2,TMTstop-control_1_8linestimulus10.png,TMTstop-control_1_8greenlinestimulus10.png,TMTstop-control_1_8redlinestimulus10.png,8,188,0,7,7,7,0,12,12,12,,,,,,,,,,,,,,,,,2,0,83.7370386000257,None,"['1', '2']",1,"[0.0699344000313431, 0.1147225999739021]",83.7370386000257,None,,001,2022_Feb_02_1703,TMTAstop-A,2021.2.3,145.11702956511184,
TMTstop-Control_1_8.xlsx,182:208,14,['3'],3,TMTstop-control_1_8linestimulus11.png,TMTstop-control_1_8greenlinestimulus11.png,TMTstop-control_1_8redlinestimulus11.png,8,189,0,7,7,7,0,13,13,13,,,,,,,,,,,,,,,,,1,1,83.9250558000058,None,['3'],1,[0.05631459993310273],83.9250558000058,None,,001,2022_Feb_02_1703,TMTAstop-A,2021.2.3,145.11702956511184,
TMTstop-Control_1_8.xlsx,182:208,15,['2'],2,TMTstop-control_1_8linestimulus12.png,TMTstop-control_1_8greenlinestimulus12.png,TMTstop-control_1_8redlinestimulus12.png,8,190,0,7,7,7,0,14,14,14,,,,,,,,,,,,,,,,,2,0,84.0564246000722,None,"['1', '2']",1,"[0.07527909986674786, 0.11204819986596704]",84.0564246000722,None,,001,2022_Feb_02_1703,TMTAstop-A,2021.2.3,145.11702956511184,
TMTstop-Control_1_8.xlsx,182:208,16,['1'],1,TMTstop-control_1_8linestimulus13.png,TMTstop-control_1_8greenlinestimulus13.png,TMTstop-control_1_8redlinestimulus13.png,8,191,0,7,7,7,0,15,15,15,,,,,,,,,,,,,,,,,2,0,84.25203900015913,None,"['3', '1']",1,"[0.04528669989667833, 0.20570189994759858]",84.25203900015913,None,,001,2022_Feb_02_1703,TMTAstop-A,2021.2.3,145.11702956511184,
TMTstop-Control_1_8.xlsx,182:208,17,['2'],2,TMTstop-control_1_8linestimulus14.png,TMTstop-control_1_8greenlinestimulus14.png,TMTstop-control_1_8redlinestimulus14.png,8,192,0,7,7,7,0,16,16,16,,,,,,,,,,,,,,,,,1,1,84.53563250019215,None,['2'],1,[-0.02196500007994473],84.53563250019215,None,,001,2022_Feb_02_1703,TMTAstop-A,2021.2.3,145.11702956511184,
TMTstop-Control_1_8.xlsx,182:208,18,['1'],1,TMTstop-control_1_8linestimulus15.png,TMTstop-control_1_8greenlinestimulus15.png,TMTstop-control_1_8redlinestimulus15.png,8,193,0,7,7,7,0,17,17,17,,,,,,,,,,,,,,,,,2,0,84.6116552001331,None,"['3', '1']",1,"[0.03789570019580424, 0.1932665000203997]",84.6116552001331,None,,001,2022_Feb_02_1703,TMTAstop-A,2021.2.3,145.11702956511184,
TMTstop-Control_1_8.xlsx,182:208,19,['2'],2,TMTstop-control_1_8linestimulus16.png,TMTstop-control_1_8greenlinestimulus16.png,TMTstop-control_1_8redlinestimulus16.png,8,194,0,7,7,7,0,18,18,18,,,,,,,,,,,,,,,,,1,1,84.90359100000933,None,['2'],1,[-0.0389334000647068],84.90359100000933,None,,001,2022_Feb_02_1703,TMTAstop-A,2021.2.3,145.11702956511184,
TMTstop-Control_1_8.xlsx,182:208,20,['3'],3,TMTstop-control_1_8linestimulus17.png,TMTstop-control_1_8greenlinestimulus17.png,TMTstop-control_1_8redlinestimulus17.png,8,195,0,7,7,7,0,19,19,19,,,,,,,,,,,,,,,,,1,1,84.97397060017101,None,['3'],1,[0.011544900014996529],84.97397060017101,None,,001,2022_Feb_02_1703,TMTAstop-A,2021.2.3,145.11702956511184,
TMTstop-Control_1_8.xlsx,182:208,21,['2'],2,TMTstop-control_1_8linestimulus18.png,TMTstop-control_1_8greenlinestimulus18.png,TMTstop-control_1_8redlinestimulus18.png,8,196,0,7,7,7,0,20,20,20,,,,,,,,,,,,,,,,,2,0,85.05654290015809,None,"['1', '2']",1,"[0.07925259997136891, 0.11405159998685122]",85.05654290015809,None,,001,2022_Feb_02_1703,TMTAstop-A,2021.2.3,145.11702956511184,
TMTstop-Control_1_8.xlsx,182:208,22,['1'],1,TMTstop-control_1_8linestimulus19.png,TMTstop-control_1_8greenlinestimulus19.png,TMTstop-control_1_8redlinestimulus19.png,8,197,0,7,7,7,0,21,21,21,,,,,,,,,,,,,,,,,2,0,85.25126900011674,None,"['3', '1']",1,"[0.07445869990624487, 0.19596939999610186]",85.25126900011674,None,,001,2022_Feb_02_1703,TMTAstop-A,2021.2.3,145.11702956511184,
TMTstop-Control_1_8.xlsx,182:208,23,['2'],2,TMTstop-control_1_8linestimulus20.png,TMTstop-control_1_8greenlinestimulus20.png,TMTstop-control_1_8redlinestimulus20.png,8,198,0,7,7,7,0,22,22,22,,,,,,,,,,,,,,,,,1,1,85.52874239999801,None,['2'],1,[-0.003136900020763278],85.52874239999801,None,,001,2022_Feb_02_1703,TMTAstop-A,2021.2.3,145.11702956511184,
TMTstop-Control_1_8.xlsx,182:208,24,['1'],1,TMTstop-control_1_8linestimulus21.png,TMTstop-control_1_8greenlinestimulus21.png,TMTstop-control_1_8redlinestimulus21.png,8,199,0,7,7,7,0,23,23,23,,,,,,,,,,,,,,,,,2,0,85.59799590008333,None,"['3', '1']",1,"[0.043772999895736575, 0.19051859993487597]",85.59799590008333,None,,001,2022_Feb_02_1703,TMTAstop-A,2021.2.3,145.11702956511184,
TMTstop-Control_1_8.xlsx,182:208,25,['3'],3,TMTstop-control_1_8linestimulus22.png,TMTstop-control_1_8greenlinestimulus22.png,TMTstop-control_1_8redlinestimulus22.png,8,200,0,7,7,7,0,24,24,24,,,,,,,,,,,,,,,,,2,0,85.88699510018341,None,"['2', '3']",1,"[-0.025548300007358193, 0.08412140002474189]",85.88699510018341,None,,001,2022_Feb_02_1703,TMTAstop-A,2021.2.3,145.11702956511184,
TMTstop-Control_1_8.xlsx,182:208,None,None,None,TMTstop-control_1_8linestimulus23.png,TMTstop-control_1_8greenlinestimulus23.png,TMTstop-control_1_8redlinestimulus23.png,8,Feedback_last,0,7,7,7,0,25,25,25,,,,,,,,,,,,,,,,,1,1,86.07803380000405,None,['1'],0,[0.16829679999500513],86.07803380000405,None,,001,2022_Feb_02_1703,TMTAstop-A,2021.2.3,145.11702956511184,
TMTstop-A_1_1.xlsx,0:26,1,['2'],2,TMTstop-A_1_1.png,TMTstop-A_1_1.png,TMTstop-A_1_1.png,1,1,,,,,,,,,0,0,0,0,0,0,0,0,,,,,,,,,2,0,95.86194180021994,None,"['1', '2']",1,"[1.1183887999504805, 1.2870211000554264]",95.86194180021994,None,,001,2022_Feb_02_1703,TMTAstop-A,2021.2.3,145.11702956511184,
TMTstop-A_1_1.xlsx,0:26,2,['1'],1,TMTstop-A_1_1.png,TMTstop-A_1_1firstgreen.png,TMTstop-A_1_1firstred.png,1,2,,,,,,,,,0,0,0,0,0,1,1,1,,,,,,,,,2,0,97.22273250017315,None,"['3', '1']",1,"[-0.05019069998525083, 0.14183600014075637]",97.22273250017315,None,,001,2022_Feb_02_1703,TMTAstop-A,2021.2.3,145.11702956511184,
TMTstop-A_1_1.xlsx,0:26,3,['2'],2,TMTstop-A_1_1linestimulus0.png,TMTstop-A_1_1greenlinestimulus0.png,TMTstop-A_1_1redlinestimulus0.png,1,3,,,,,,,,,0,0,0,0,0,2,2,2,,,,,,,,,1,1,97.45892760017887,None,['2'],1,[-0.03992050001397729],97.45892760017887,None,,001,2022_Feb_02_1703,TMTAstop-A,2021.2.3,145.11702956511184,
TMTstop-A_1_1.xlsx,0:26,4,['3'],3,TMTstop-A_1_1linestimulus1.png,TMTstop-A_1_1greenlinestimulus1.png,TMTstop-A_1_1redlinestimulus1.png,1,4,,,,,,,,,0,0,0,0,0,3,3,3,,,,,,,,,1,1,97.5418669001665,None,['3'],1,[-0.005878000054508448],97.5418669001665,None,,001,2022_Feb_02_1703,TMTAstop-A,2021.2.3,145.11702956511184,
TMTstop-A_1_1.xlsx,0:26,5,['2'],2,TMTstop-A_1_1linestimulus2.png,TMTstop-A_1_1greenlinestimulus2.png,TMTstop-A_1_1redlinestimulus2.png,1,5,,,,,,,,,0,0,0,0,0,4,4,4,,,,,,,,,2,0,97.61857650009915,None,"['1', '2']",1,"[0.08689129981212318, 0.16787449992261827]",97.61857650009915,None,,001,2022_Feb_02_1703,TMTAstop-A,2021.2.3,145.11702956511184,
TMTstop-A_1_1.xlsx,0:26,6,['3'],3,TMTstop-A_1_1linestimulus3.png,TMTstop-A_1_1greenlinestimulus3.png,TMTstop-A_1_1redlinestimulus3.png,1,6,,,,,,,,,0,0,0,0,0,5,5,5,,,,,,,,,1,1,97.86844810005277,None,['3'],1,[0.020755699835717678],97.86844810005277,None,,001,2022_Feb_02_1703,TMTAstop-A,2021.2.3,145.11702956511184,
TMTstop-A_1_1.xlsx,0:26,7,['2'],2,TMTstop-A_1_1linestimulus4.png,TMTstop-A_1_1greenlinestimulus4.png,TMTstop-A_1_1redlinestimulus4.png,1,7,,,,,,,,,0,0,0,0,0,6,6,6,,,,,,,,,2,0,97.96685540000908,None,"['1', '2']",1,"[0.1354189000558108, 0.21378200012259185]",97.96685540000908,None,,001,2022_Feb_02_1703,TMTAstop-A,2021.2.3,145.11702956511184,
TMTstop-A_1_1.xlsx,0:26,8,['1'],1,TMTstop-A_1_1linestimulus5.png,TMTstop-A_1_1greenlinestimulus5.png,TMTstop-A_1_1redlinestimulus5.png,1,8,,,,,,,,,0,0,0,0,0,7,7,7,,,,,,,,,2,0,98.26081490004435,None,"['3', '1']",1,"[0.03663249989040196, 0.3828308000229299]",98.26081490004435,None,,001,2022_Feb_02_1703,TMTAstop-A,2021.2.3,145.11702956511184,
TMTstop-A_1_1.xlsx,0:26,9,['2'],2,TMTstop-A_1_1linestimulus6.png,TMTstop-A_1_1greenlinestimulus6.png,TMTstop-A_1_1redlinestimulus6.png,1,9,,,,,,,,,0,0,0,0,0,8,8,8,,,,,,,,,1,1,98.75085190008394,None,['2'],1,[-0.06254500010982156],98.75085190008394,None,,001,2022_Feb_02_1703,TMTAstop-A,2021.2.3,145.11702956511184,
TMTstop-A_1_1.xlsx,0:26,10,['1'],1,TMTstop-A_1_1linestimulus7.png,TMTstop-A_1_1greenlinestimulus7.png,TMTstop-A_1_1redlinestimulus7.png,1,10,,,,,,,,,0,0,0,0,0,9,9,9,,,,,,,,,2,0,98.81995050003752,None,"['3', '1']",1,"[-0.022978199878707528, 0.19244580017402768]",98.81995050003752,None,,001,2022_Feb_02_1703,TMTAstop-A,2021.2.3,145.11702956511184,
TMTstop-A_1_1.xlsx,0:26,11,['2'],2,TMTstop-A_1_1linestimulus8.png,TMTstop-A_1_1greenlinestimulus8.png,TMTstop-A_1_1redlinestimulus8.png,1,11,,,,,,,,,0,0,0,0,0,10,10,10,,,,,,,,,1,1,99.11150240013376,None,['2'],1,[-0.052175499964505434],99.11150240013376,None,,001,2022_Feb_02_1703,TMTAstop-A,2021.2.3,145.11702956511184,
TMTstop-A_1_1.xlsx,0:26,12,['3'],3,TMTstop-A_1_1linestimulus9.png,TMTstop-A_1_1greenlinestimulus9.png,TMTstop-A_1_1redlinestimulus9.png,1,12,,,,,,,,,0,0,0,0,0,11,11,11,,,,,,,,,1,1,99.18807320017368,None,['3'],1,[0.015424800105392933],99.18807320017368,None,,001,2022_Feb_02_1703,TMTAstop-A,2021.2.3,145.11702956511184,
TMTstop-A_1_1.xlsx,0:26,13,['2'],2,TMTstop-A_1_1linestimulus10.png,TMTstop-A_1_1greenlinestimulus10.png,TMTstop-A_1_1redlinestimulus10.png,1,13,,,,,,,,,0,0,0,0,0,12,12,12,,,,,,,,,2,0,99.2781655001454,None,"['1', '2']",1,"[0.34850770002231, 0.39436980010941625]",99.2781655001454,None,,001,2022_Feb_02_1703,TMTAstop-A,2021.2.3,145.11702956511184,
TMTstop-A_1_1.xlsx,0:26,14,['3'],3,TMTstop-A_1_1linestimulus11.png,TMTstop-A_1_1greenlinestimulus11.png,TMTstop-A_1_1redlinestimulus11.png,1,14,,,,,,,,,0,0,0,0,0,13,13,13,,,,,,,,,1,1,99.75728000001982,None,['3'],1,[0.05521010002121329],99.75728000001982,None,,001,2022_Feb_02_1703,TMTAstop-A,2021.2.3,145.11702956511184,
TMTstop-A_1_1.xlsx,0:26,15,['1'],1,TMTstop-A_1_1linestimulus12.png,TMTstop-A_1_1greenlinestimulus12.png,TMTstop-A_1_1redlinestimulus12.png,1,15,,,,,,,,,0,0,0,0,0,14,14,14,,,,,,,,,1,1,99.89033650001511,None,['1'],1,[0.09445429989136755],99.89033650001511,None,,001,2022_Feb_02_1703,TMTAstop-A,2021.2.3,145.11702956511184,
TMTstop-A_1_1.xlsx,0:26,16,['3'],3,TMTstop-A_1_1linestimulus13.png,TMTstop-A_1_1greenlinestimulus13.png,TMTstop-A_1_1redlinestimulus13.png,1,16,,,,,,,,,0,0,0,0,0,15,15,15,,,,,,,,,2,0,100.06976050022058,None,"['2', '3']",1,"[-0.050052800215780735, 0.08249489986337721]",100.06976050022058,None,,001,2022_Feb_02_1703,TMTAstop-A,2021.2.3,145.11702956511184,
TMTstop-A_1_1.xlsx,0:26,17,['2'],2,TMTstop-A_1_1linestimulus14.png,TMTstop-A_1_1greenlinestimulus14.png,TMTstop-A_1_1redlinestimulus14.png,1,17,,,,,,,,,0,0,0,0,0,16,16,16,,,,,,,,,2,0,100.22276020003483,None,"['1', '2']",1,"[0.07713350001722574, 0.15152100007981062]",100.22276020003483,None,,001,2022_Feb_02_1703,TMTAstop-A,2021.2.3,145.11702956511184,
TMTstop-A_1_1.xlsx,0:26,18,['3'],3,TMTstop-A_1_1linestimulus15.png,TMTstop-A_1_1greenlinestimulus15.png,TMTstop-A_1_1redlinestimulus15.png,1,18,,,,,,,,,0,0,0,0,0,17,17,17,,,,,,,,,3,0,100.45903190015815,None,"['1', '2', '3']",1,"[0.1540552000515163, 0.1870816999580711, 0.31282370002008975]",100.45903190015815,None,,001,2022_Feb_02_1703,TMTAstop-A,2021.2.3,145.11702956511184,
TMTstop-A_1_1.xlsx,0:26,19,['1'],1,TMTstop-A_1_1linestimulus16.png,TMTstop-A_1_1greenlinestimulus16.png,TMTstop-A_1_1redlinestimulus16.png,1,19,,,,,,,,,0,0,0,0,0,18,18,18,,,,,,,,,1,1,100.9051093000453,None,['1'],1,[0.018558500101789832],100.9051093000453,None,,001,2022_Feb_02_1703,TMTAstop-A,2021.2.3,145.11702956511184,
TMTstop-A_1_1.xlsx,0:26,20,['3'],3,TMTstop-A_1_1linestimulus17.png,TMTstop-A_1_1greenlinestimulus17.png,TMTstop-A_1_1redlinestimulus17.png,1,20,,,,,,,,,0,0,0,0,0,19,19,19,,,,,,,,,2,0,101.0223812002223,None,"['2', '3']",1,"[-0.03009709995239973, 0.07209919998422265]",101.0223812002223,None,,001,2022_Feb_02_1703,TMTAstop-A,2021.2.3,145.11702956511184,
TMTstop-A_1_1.xlsx,0:26,21,['1'],1,TMTstop-A_1_1linestimulus18.png,TMTstop-A_1_1greenlinestimulus18.png,TMTstop-A_1_1redlinestimulus18.png,1,21,,,,,,,,,0,0,0,0,0,20,20,20,,,,,,,,,1,1,101.18156699999236,None,['1'],1,[0.053375800140202045],101.18156699999236,None,,001,2022_Feb_02_1703,TMTAstop-A,2021.2.3,145.11702956511184,
TMTstop-A_1_1.xlsx,0:26,22,['3'],3,TMTstop-A_1_1linestimulus19.png,TMTstop-A_1_1greenlinestimulus19.png,TMTstop-A_1_1redlinestimulus19.png,1,22,,,,,,,,,0,0,0,0,0,21,21,21,,,,,,,,,2,0,101.3205798000563,None,"['2', '3']",1,"[-0.021114900009706616, 0.08417879999615252]",101.3205798000563,None,,001,2022_Feb_02_1703,TMTAstop-A,2021.2.3,145.11702956511184,
TMTstop-A_1_1.xlsx,0:26,23,['1'],1,TMTstop-A_1_1linestimulus20.png,TMTstop-A_1_1greenlinestimulus20.png,TMTstop-A_1_1redlinestimulus20.png,1,23,,,,,,,,,0,0,0,0,0,22,22,22,,,,,,,,,1,1,101.52201150008477,None,['1'],1,[0.03513299999758601],101.52201150008477,None,,001,2022_Feb_02_1703,TMTAstop-A,2021.2.3,145.11702956511184,
TMTstop-A_1_1.xlsx,0:26,24,['2'],2,TMTstop-A_1_1linestimulus21.png,TMTstop-A_1_1greenlinestimulus21.png,TMTstop-A_1_1redlinestimulus21.png,1,24,,,,,,,,,0,0,0,0,0,23,23,23,,,,,,,,,1,1,101.63237470015883,None,['2'],1,[-0.01691260002553463],101.63237470015883,None,,001,2022_Feb_02_1703,TMTAstop-A,2021.2.3,145.11702956511184,
TMTstop-A_1_1.xlsx,0:26,25,['3'],3,TMTstop-A_1_1linestimulus22.png,TMTstop-A_1_1greenlinestimulus22.png,TMTstop-A_1_1redlinestimulus22.png,1,25,,,,,,,,,0,0,0,0,0,24,24,24,,,,,,,,,1,1,101.7087138001807,None,['3'],1,[0.015887999907135963],101.7087138001807,None,,001,2022_Feb_02_1703,TMTAstop-A,2021.2.3,145.11702956511184,
TMTstop-A_1_1.xlsx,0:26,None,None,None,TMTstop-A_1_1linestimulus23.png,TMTstop-A_1_1greenlinestimulus23.png,TMTstop-A_1_1redlinestimulus23.png,1,Feedback_last,,,,,,,,,0,0,0,0,0,25,25,25,,,,,,,,,3,0,101.80704180011526,None,"['1', '2', '3']",0,"[0.046930599957704544, 0.09735450008884072, 0.25468460004776716]",101.80704180011526,None,,001,2022_Feb_02_1703,TMTAstop-A,2021.2.3,145.11702956511184,
TMTstop-A_1_2.xlsx,26:52,1,['3'],3,TMTstop-A_1_2.png,TMTstop-A_1_2.png,TMTstop-A_1_2.png,2,26,,,,,,,,,0,1,1,1,0,0,0,0,,,,,,,,,3,0,105.93029750022106,None,"['1', '2', '3']",1,"[0.48405249998904765, 0.544050799915567, 0.6406868000049144]",105.93029750022106,None,,001,2022_Feb_02_1703,TMTAstop-A,2021.2.3,145.11702956511184,
TMTstop-A_1_2.xlsx,26:52,2,['2'],2,TMTstop-A_1_2.png,TMTstop-A_1_2firstgreen.png,TMTstop-A_1_2firstred.png,2,27,,,,,,,,,0,1,1,1,0,1,1,1,,,,,,,,,2,0,106.63921330007724,None,"['1', '2']",1,"[0.09743770002387464, 0.15651459991931915]",106.63921330007724,None,,001,2022_Feb_02_1703,TMTAstop-A,2021.2.3,145.11702956511184,
TMTstop-A_1_2.xlsx,26:52,3,['3'],3,TMTstop-A_1_2linestimulus0.png,TMTstop-A_1_2greenlinestimulus0.png,TMTstop-A_1_2redlinestimulus0.png,2,28,,,,,,,,,0,1,1,1,0,2,2,2,,,,,,,,,1,1,106.89628110011108,None,['3'],1,[-0.005098799942061305],106.89628110011108,None,,001,2022_Feb_02_1703,TMTAstop-A,2021.2.3,145.11702956511184,
TMTstop-A_1_2.xlsx,26:52,4,['1'],1,TMTstop-A_1_2linestimulus1.png,TMTstop-A_1_2greenlinestimulus1.png,TMTstop-A_1_2redlinestimulus1.png,2,29,,,,,,,,,0,1,1,1,0,3,3,3,,,,,,,,,1,1,106.97059810021892,None,['1'],1,[0.07972100004553795],106.97059810021892,None,,001,2022_Feb_02_1703,TMTAstop-A,2021.2.3,145.11702956511184,
TMTstop-A_1_2.xlsx,26:52,5,['2'],2,TMTstop-A_1_2linestimulus2.png,TMTstop-A_1_2greenlinestimulus2.png,TMTstop-A_1_2redlinestimulus2.png,2,30,,,,,,,,,0,1,1,1,0,4,4,4,,,,,,,,,1,1,107.1323409001343,None,['2'],1,[-0.04847829998470843],107.1323409001343,None,,001,2022_Feb_02_1703,TMTAstop-A,2021.2.3,145.11702956511184,
TMTstop-A_1_2.xlsx,26:52,6,['3'],3,TMTstop-A_1_2linestimulus3.png,TMTstop-A_1_2greenlinestimulus3.png,TMTstop-A_1_2redlinestimulus3.png,2,31,,,,,,,,,0,1,1,1,0,5,5,5,,,,,,,,,1,1,107.208419600036,None,['3'],1,[0.007835800061002374],107.208419600036,None,,001,2022_Feb_02_1703,TMTAstop-A,2021.2.3,145.11702956511184,
TMTstop-A_1_2.xlsx,26:52,7,['2'],2,TMTstop-A_1_2linestimulus4.png,TMTstop-A_1_2greenlinestimulus4.png,TMTstop-A_1_2redlinestimulus4.png,2,32,,,,,,,,,0,1,1,1,0,6,6,6,,,,,,,,,2,0,107.29236050019972,None,"['1', '2']",1,"[0.08101720013655722, 0.11119480011984706]",107.29236050019972,None,,001,2022_Feb_02_1703,TMTAstop-A,2021.2.3,145.11702956511184,
TMTstop-A_1_2.xlsx,26:52,8,['1'],1,TMTstop-A_1_2linestimulus5.png,TMTstop-A_1_2greenlinestimulus5.png,TMTstop-A_1_2redlinestimulus5.png,2,33,,,,,,,,,0,1,1,1,0,7,7,7,,,,,,,,,2,0,107.48657420021482,None,"['3', '1']",1,"[0.05281839985400438, 0.20749229984357953]",107.48657420021482,None,,001,2022_Feb_02_1703,TMTAstop-A,2021.2.3,145.11702956511184,
TMTstop-A_1_2.xlsx,26:52,9,['2'],2,TMTstop-A_1_2linestimulus6.png,TMTstop-A_1_2greenlinestimulus6.png,TMTstop-A_1_2redlinestimulus6.png,2,34,,,,,,,,,0,1,1,1,0,8,8,8,,,,,,,,,1,1,107.77119250013493,None,['2'],1,[-0.04490330000407994],107.77119250013493,None,,001,2022_Feb_02_1703,TMTAstop-A,2021.2.3,145.11702956511184,
TMTstop-A_1_2.xlsx,26:52,10,['3'],3,TMTstop-A_1_2linestimulus7.png,TMTstop-A_1_2greenlinestimulus7.png,TMTstop-A_1_2redlinestimulus7.png,2,35,,,,,,,,,0,1,1,1,0,9,9,9,,,,,,,,,1,1,107.84088350017555,None,['3'],1,[0.025858100038021803],107.84088350017555,None,,001,2022_Feb_02_1703,TMTAstop-A,2021.2.3,145.11702956511184,
TMTstop-A_1_2.xlsx,26:52,11,['1'],1,TMTstop-A_1_2linestimulus8.png,TMTstop-A_1_2greenlinestimulus8.png,TMTstop-A_1_2redlinestimulus8.png,2,36,,,,,,,,,0,1,1,1,0,10,10,10,,,,,,,,,1,1,107.94487960007973,None,['1'],1,[0.07076849997974932],107.94487960007973,None,,001,2022_Feb_02_1703,TMTAstop-A,2021.2.3,145.11702956511184,
TMTstop-A_1_2.xlsx,26:52,12,['2'],2,TMTstop-A_1_2linestimulus9.png,TMTstop-A_1_2greenlinestimulus9.png,TMTstop-A_1_2redlinestimulus9.png,2,37,,,,,,,,,0,1,1,1,0,11,11,11,,,,,,,,,1,1,108.08354960009456,None,['2'],1,[-0.022984900046139956],108.08354960009456,None,,001,2022_Feb_02_1703,TMTAstop-A,2021.2.3,145.11702956511184,
TMTstop-A_1_2.xlsx,26:52,13,['3'],3,TMTstop-A_1_2linestimulus10.png,TMTstop-A_1_2greenlinestimulus10.png,TMTstop-A_1_2redlinestimulus10.png,2,38,,,,,,,,,0,1,1,1,0,12,12,12,,,,,,,,,1,1,108.1529694001656,None,['3'],1,[0.0366022998932749],108.1529694001656,None,,001,2022_Feb_02_1703,TMTAstop-A,2021.2.3,145.11702956511184,
TMTstop-A_1_2.xlsx,26:52,14,['1'],1,TMTstop-A_1_2linestimulus11.png,TMTstop-A_1_2greenlinestimulus11.png,TMTstop-A_1_2redlinestimulus11.png,2,39,,,,,,,,,0,1,1,1,0,13,13,13,,,,,,,,,1,1,108.26650080014952,None,['1'],1,[0.10006699990481138],108.26650080014952,None,,001,2022_Feb_02_1703,TMTAstop-A,2021.2.3,145.11702956511184,
TMTstop-A_1_2.xlsx,26:52,15,['3'],3,TMTstop-A_1_2linestimulus12.png,TMTstop-A_1_2greenlinestimulus12.png,TMTstop-A_1_2redlinestimulus12.png,2,40,,,,,,,,,0,1,1,1,0,14,14,14,,,,,,,,,2,0,108.44499940006062,None,"['2', '3']",1,"[-0.01775259990245104, 0.12519660010002553]",108.44499940006062,None,,001,2022_Feb_02_1703,TMTAstop-A,2021.2.3,145.11702956511184,
TMTstop-A_1_2.xlsx,26:52,16,['1'],1,TMTstop-A_1_2linestimulus13.png,TMTstop-A_1_2greenlinestimulus13.png,TMTstop-A_1_2redlinestimulus13.png,2,41,,,,,,,,,0,1,1,1,0,15,15,15,,,,,,,,,1,1,108.67459980002604,None,['1'],1,[0.05494860000908375],108.67459980002604,None,,001,2022_Feb_02_1703,TMTAstop-A,2021.2.3,145.11702956511184,
TMTstop-A_1_2.xlsx,26:52,17,['2'],2,TMTstop-A_1_2linestimulus14.png,TMTstop-A_1_2greenlinestimulus14.png,TMTstop-A_1_2redlinestimulus14.png,2,42,,,,,,,,,0,1,1,1,0,16,16,16,,,,,,,,,1,1,108.81403710017912,None,['2'],1,[-0.028628400061279535],108.81403710017912,None,,001,2022_Feb_02_1703,TMTAstop-A,2021.2.3,145.11702956511184,
TMTstop-A_1_2.xlsx,26:52,18,['1'],1,TMTstop-A_1_2linestimulus15.png,TMTstop-A_1_2greenlinestimulus15.png,TMTstop-A_1_2redlinestimulus15.png,2,43,,,,,,,,,0,1,1,1,0,17,17,17,,,,,,,,,2,0,108.88942870008759,None,"['3', '1']",1,"[0.038925400003790855, 0.18887969991192222]",108.88942870008759,None,,001,2022_Feb_02_1703,TMTAstop-A,2021.2.3,145.11702956511184,
TMTstop-A_1_2.xlsx,26:52,19,['3'],3,TMTstop-A_1_2linestimulus16.png,TMTstop-A_1_2greenlinestimulus16.png,TMTstop-A_1_2redlinestimulus16.png,2,44,,,,,,,,,0,1,1,1,0,18,18,18,,,,,,,,,2,0,109.18778290017508,None,"['2', '3']",1,"[-0.06813229992985725, 0.05098529998213053]",109.18778290017508,None,,001,2022_Feb_02_1703,TMTAstop-A,2021.2.3,145.11702956511184,
TMTstop-A_1_2.xlsx,26:52,20,['1'],1,TMTstop-A_1_2linestimulus17.png,TMTstop-A_1_2greenlinestimulus17.png,TMTstop-A_1_2redlinestimulus17.png,2,45,,,,,,,,,0,1,1,1,0,19,19,19,,,,,,,,,1,1,109.34780260012485,None,['1'],1,[0.05546290008351207],109.34780260012485,None,,001,2022_Feb_02_1703,TMTAstop-A,2021.2.3,145.11702956511184,
TMTstop-A_1_2.xlsx,26:52,21,['2'],2,TMTstop-A_1_2linestimulus18.png,TMTstop-A_1_2greenlinestimulus18.png,TMTstop-A_1_2redlinestimulus18.png,2,46,,,,,,,,,0,1,1,1,0,20,20,20,,,,,,,,,1,1,109.47932950011455,None,['2'],1,[-0.023598199943080544],109.47932950011455,None,,001,2022_Feb_02_1703,TMTAstop-A,2021.2.3,145.11702956511184,
TMTstop-A_1_2.xlsx,26:52,22,['1'],1,TMTstop-A_1_2linestimulus19.png,TMTstop-A_1_2greenlinestimulus19.png,TMTstop-A_1_2redlinestimulus19.png,2,47,,,,,,,,,0,1,1,1,0,21,21,21,,,,,,,,,2,0,109.5503526001703,None,"['3', '1']",1,"[0.04610730009153485, 0.1932429000735283]",109.5503526001703,None,,001,2022_Feb_02_1703,TMTAstop-A,2021.2.3,145.11702956511184,
TMTstop-A_1_2.xlsx,26:52,23,['2'],2,TMTstop-A_1_2linestimulus20.png,TMTstop-A_1_2greenlinestimulus20.png,TMTstop-A_1_2redlinestimulus20.png,2,48,,,,,,,,,0,1,1,1,0,22,22,22,,,,,,,,,1,1,109.8412968001794,None,['2'],1,[-0.0529511000495404],109.8412968001794,None,,001,2022_Feb_02_1703,TMTAstop-A,2021.2.3,145.11702956511184,
TMTstop-A_1_2.xlsx,26:52,24,['1'],1,TMTstop-A_1_2linestimulus21.png,TMTstop-A_1_2greenlinestimulus21.png,TMTstop-A_1_2redlinestimulus21.png,2,49,,,,,,,,,0,1,1,1,0,23,23,23,,,,,,,,,5,0,109.91802460001782,None,"['3', '1', '2', '3', '1']",1,"[0.033928100019693375, 0.3081196998246014, 0.33265539980493486, 0.49265599995851517, 0.6287799999117851]",109.91802460001782,None,,001,2022_Feb_02_1703,TMTAstop-A,2021.2.3,145.11702956511184,
TMTstop-A_1_2.xlsx,26:52,25,['2'],2,TMTstop-A_1_2linestimulus22.png,TMTstop-A_1_2greenlinestimulus22.png,TMTstop-A_1_2redlinestimulus22.png,2,50,,,,,,,,,0,1,1,1,0,24,24,24,,,,,,,,,1,1,110.66674210014753,None,['2'],1,[-0.07318990002386272],110.66674210014753,None,,001,2022_Feb_02_1703,TMTAstop-A,2021.2.3,145.11702956511184,
TMTstop-A_1_2.xlsx,26:52,None,None,None,TMTstop-A_1_2linestimulus23.png,TMTstop-A_1_2greenlinestimulus23.png,TMTstop-A_1_2redlinestimulus23.png,2,Feedback_last,,,,,,,,,0,1,1,1,0,25,25,25,,,,,,,,,1,1,110.74337860010564,None,['3'],0,[-0.008844300173223019],110.74337860010564,None,,001,2022_Feb_02_1703,TMTAstop-A,2021.2.3,145.11702956511184,
TMTstop-A_1_3.xlsx,52:78,1,['2'],2,TMTstop-A_1_3.png,TMTstop-A_1_3.png,TMTstop-A_1_3.png,3,51,,,,,,,,,0,2,2,2,0,0,0,0,,,,,,,,,2,0,114.86773170018569,None,"['1', '2']",1,"[0.3489560999441892, 0.4170252999756485]",114.86773170018569,None,,001,2022_Feb_02_1703,TMTAstop-A,2021.2.3,145.11702956511184,
TMTstop-A_1_3.xlsx,52:78,2,['1'],1,TMTstop-A_1_3.png,TMTstop-A_1_3firstgreen.png,TMTstop-A_1_3firstred.png,3,52,,,,,,,,,0,2,2,2,0,1,1,1,,,,,,,,,5,0,115.37714730016887,None,"['3', '1', '2', '3', '1']",1,"[0.0060363998636603355, 0.1732987998984754, 0.21362809999845922, 0.3388203999493271, 0.504448699997738]",115.37714730016887,None,,001,2022_Feb_02_1703,TMTAstop-A,2021.2.3,145.11702956511184,
TMTstop-A_1_3.xlsx,52:78,3,['3'],3,TMTstop-A_1_3linestimulus0.png,TMTstop-A_1_3greenlinestimulus0.png,TMTstop-A_1_3redlinestimulus0.png,3,53,,,,,,,,,0,2,2,2,0,2,2,2,,,,,,,,,2,0,115.95151849999093,None,"['2', '3']",1,"[-0.04394940007477999, 0.0983861000277102]",115.95151849999093,None,,001,2022_Feb_02_1703,TMTAstop-A,2021.2.3,145.11702956511184,
TMTstop-A_1_3.xlsx,52:78,4,['2'],2,TMTstop-A_1_3linestimulus1.png,TMTstop-A_1_3greenlinestimulus1.png,TMTstop-A_1_3redlinestimulus1.png,3,54,,,,,,,,,0,2,2,2,0,3,3,3,,,,,,,,,2,0,116.14641820010729,None,"['1', '2']",1,"[0.0496930000372231, 0.07161300000734627]",116.14641820010729,None,,001,2022_Feb_02_1703,TMTAstop-A,2021.2.3,145.11702956511184,
TMTstop-A_1_3.xlsx,52:78,5,['3'],3,TMTstop-A_1_3linestimulus2.png,TMTstop-A_1_3greenlinestimulus2.png,TMTstop-A_1_3redlinestimulus2.png,3,55,,,,,,,,,0,2,2,2,0,4,4,4,,,,,,,,,1,1,116.31260850001127,None,['3'],1,[0.053101600147783756],116.31260850001127,None,,001,2022_Feb_02_1703,TMTAstop-A,2021.2.3,145.11702956511184,
TMTstop-A_1_3.xlsx,52:78,6,['2'],2,TMTstop-A_1_3linestimulus3.png,TMTstop-A_1_3greenlinestimulus3.png,TMTstop-A_1_3redlinestimulus3.png,3,56,,,,,,,,,0,2,2,2,0,5,5,5,,,,,,,,,2,0,116.44818400009535,None,"['1', '2']",1,"[0.10231620003469288, 0.17565419990569353]",116.44818400009535,None,,001,2022_Feb_02_1703,TMTAstop-A,2021.2.3,145.11702956511184,
TMTstop-A_1_3.xlsx,52:78,7,['1'],1,TMTstop-A_1_3linestimulus4.png,TMTstop-A_1_3greenlinestimulus4.png,TMTstop-A_1_3redlinestimulus4.png,3,57,,,,,,,,,0,2,2,2,0,6,6,6,,,,,,,,,1,1,116.71684000012465,None,['1'],1,[0.3710050000809133],116.71684000012465,None,,001,2022_Feb_02_1703,TMTAstop-A,2021.2.3,145.11702956511184,
TMTstop-A_1_3.xlsx,52:78,8,['2'],2,TMTstop-A_1_3linestimulus5.png,TMTstop-A_1_3greenlinestimulus5.png,TMTstop-A_1_3redlinestimulus5.png,3,58,,,,,,,,,0,2,2,2,0,7,7,7,,,,,,,,,1,1,117.16663650004193,None,['2'],1,[-0.02713219984434545],117.16663650004193,None,,001,2022_Feb_02_1703,TMTAstop-A,2021.2.3,145.11702956511184,
TMTstop-A_1_3.xlsx,52:78,9,['3'],3,TMTstop-A_1_3linestimulus6.png,TMTstop-A_1_3greenlinestimulus6.png,TMTstop-A_1_3redlinestimulus6.png,3,59,,,,,,,,,0,2,2,2,0,8,8,8,,,,,,,,,1,1,117.24312480003573,None,['3'],1,[0.031910200137645006],117.24312480003573,None,,001,2022_Feb_02_1703,TMTAstop-A,2021.2.3,145.11702956511184,
TMTstop-A_1_3.xlsx,52:78,10,['2'],2,TMTstop-A_1_3linestimulus7.png,TMTstop-A_1_3greenlinestimulus7.png,TMTstop-A_1_3redlinestimulus7.png,3,60,,,,,,,,,0,2,2,2,0,9,9,9,,,,,,,,,2,0,117.3480695001781,None,"['1', '2']",1,"[0.09013459994457662, 0.16802199999801815]",117.3480695001781,None,,001,2022_Feb_02_1703,TMTAstop-A,2021.2.3,145.11702956511184,
TMTstop-A_1_3.xlsx,52:78,11,['3'],3,TMTstop-A_1_3linestimulus8.png,TMTstop-A_1_3greenlinestimulus8.png,TMTstop-A_1_3redlinestimulus8.png,3,61,,,,,,,,,0,2,2,2,0,10,10,10,,,,,,,,,1,1,117.59402750013396,None,['3'],1,[0.009631299879401922],117.59402750013396,None,,001,2022_Feb_02_1703,TMTAstop-A,2021.2.3,145.11702956511184,
TMTstop-A_1_3.xlsx,52:78,12,['2'],2,TMTstop-A_1_3linestimulus9.png,TMTstop-A_1_3greenlinestimulus9.png,TMTstop-A_1_3redlinestimulus9.png,3,62,,,,,,,,,0,2,2,2,0,11,11,11,,,,,,,,,2,0,117.68057980015874,None,"['1', '2']",1,"[0.07959330012090504, 0.10256460006348789]",117.68057980015874,None,,001,2022_Feb_02_1703,TMTAstop-A,2021.2.3,145.11702956511184,
TMTstop-A_1_3.xlsx,52:78,13,['1'],1,TMTstop-A_1_3linestimulus10.png,TMTstop-A_1_3greenlinestimulus10.png,TMTstop-A_1_3redlinestimulus10.png,3,63,,,,,,,,,0,2,2,2,0,12,12,12,,,,,,,,,2,0,117.88219480006956,None,"['3', '1']",1,"[0.04176339996047318, 0.19326159986667335]",117.88219480006956,None,,001,2022_Feb_02_1703,TMTAstop-A,2021.2.3,145.11702956511184,
TMTstop-A_1_3.xlsx,52:78,14,['2'],2,TMTstop-A_1_3linestimulus11.png,TMTstop-A_1_3greenlinestimulus11.png,TMTstop-A_1_3redlinestimulus11.png,3,64,,,,,,,,,0,2,2,2,0,13,13,13,,,,,,,,,1,1,118.17418200010434,None,['2'],1,[-0.06676950003020465],118.17418200010434,None,,001,2022_Feb_02_1703,TMTAstop-A,2021.2.3,145.11702956511184,
TMTstop-A_1_3.xlsx,52:78,15,['1'],1,TMTstop-A_1_3linestimulus12.png,TMTstop-A_1_3greenlinestimulus12.png,TMTstop-A_1_3redlinestimulus12.png,3,65,,,,,,,,,0,2,2,2,0,14,14,14,,,,,,,,,2,0,118.25005520018749,None,"['3', '1']",1,"[0.004640999948605895, 0.15548499999567866]",118.25005520018749,None,,001,2022_Feb_02_1703,TMTAstop-A,2021.2.3,145.11702956511184,
TMTstop-A_1_3.xlsx,52:78,16,['2'],2,TMTstop-A_1_3linestimulus13.png,TMTstop-A_1_3greenlinestimulus13.png,TMTstop-A_1_3redlinestimulus13.png,3,66,,,,,,,,,0,2,2,2,0,15,15,15,,,,,,,,,1,1,118.50111430021934,None,['2'],1,[-0.055354399839416146],118.50111430021934,None,,001,2022_Feb_02_1703,TMTAstop-A,2021.2.3,145.11702956511184,
TMTstop-A_1_3.xlsx,52:78,17,['3'],3,TMTstop-A_1_3linestimulus14.png,TMTstop-A_1_3greenlinestimulus14.png,TMTstop-A_1_3redlinestimulus14.png,3,67,,,,,,,,,0,2,2,2,0,16,16,16,,,,,,,,,1,1,118.57703220006078,None,['3'],1,[0.014001999981701374],118.57703220006078,None,,001,2022_Feb_02_1703,TMTAstop-A,2021.2.3,145.11702956511184,
TMTstop-A_1_3.xlsx,52:78,18,['2'],2,TMTstop-A_1_3linestimulus15.png,TMTstop-A_1_3greenlinestimulus15.png,TMTstop-A_1_3redlinestimulus15.png,3,68,,,,,,,,,0,2,2,2,0,17,17,17,,,,,,,,,2,0,118.66055070003495,None,"['1', '2']",1,"[0.05875269998796284, 0.11154590011574328]",118.66055070003495,None,,001,2022_Feb_02_1703,TMTAstop-A,2021.2.3,145.11702956511184,
