NumberLetter,corrAns,Correct,StimFile,Correct_StimFile,False_StimFile,DurationTrial,trials_TMTControl.thisRepN,trials_TMTControl.thisTrialN,trials_TMTControl.thisN,trials_TMTControl.thisIndex,trials_TMTA.thisRepN,trials_TMTA.thisTrialN,trials_TMTA.thisN,trials_TMTA.thisIndex,trials_TMTB.thisRepN,trials_TMTB.thisTrialN,trials_TMTB.thisN,trials_TMTB.thisIndex,Attempts,First_attempt,Stim.started,Stim.stopped,key_resp_2.keys,key_resp_2.corr,key_resp_2.rt,key_resp_2.started,key_resp_2.stopped,participant,session,date,expName,psychopyVersion,frameRate,
1,['2'],2,TMTstop-control_1_p.png,TMTstop-control_1_p.png,TMTstop-control_1_p.png,10,0,0,0,0,,,,,,,,,2,0,13.520386700001836,None,"['1', '2']",1,"[1.5662587999977404, 1.6454286000007414]",13.520386700001836,None,,001,2022_May_23_1401,TMT_practice,2021.2.3,144.2154463398364,
2,['1'],1,TMTstop-control_1_p.png,TMTstop-control_1_pfirstgreen.png,TMTstop-control_1_pfirstred.png,10,0,1,1,1,,,,,,,,,2,0,15.266325200005667,None,"['3', '1']",1,"[0.007439399996655993, 0.15419459999975516]",15.266325200005667,None,,001,2022_May_23_1401,TMT_practice,2021.2.3,144.2154463398364,
3,['3'],3,TMTstop-control_1_plinestimulus0.png,TMTstop-control_1_pgreenlinestimulus0.png,TMTstop-control_1_predlinestimulus0.png,10,0,2,2,2,,,,,,,,,2,0,15.540465400001267,None,"['2', '3']",1,"[-0.06926240000029793, 0.03158830000029411]",15.540465400001267,None,,001,2022_May_23_1401,TMT_practice,2021.2.3,144.2154463398364,
4,['1'],1,TMTstop-control_1_plinestimulus1.png,TMTstop-control_1_pgreenlinestimulus1.png,TMTstop-control_1_predlinestimulus1.png,10,0,3,3,3,,,,,,,,,1,1,15.664596900001925,None,['1'],1,[0.035342800001672],15.664596900001925,None,,001,2022_May_23_1401,TMT_practice,2021.2.3,144.2154463398364,
5,['3'],3,TMTstop-control_1_plinestimulus2.png,TMTstop-control_1_pgreenlinestimulus2.png,TMTstop-control_1_predlinestimulus2.png,10,0,4,4,4,,,,,,,,,2,0,15.789675600004557,None,"['2', '3']",1,"[-0.041071799998462666, 0.06576879999920493]",15.789675600004557,None,,001,2022_May_23_1401,TMT_practice,2021.2.3,144.2154463398364,
6,['1'],1,TMTstop-control_1_plinestimulus3.png,TMTstop-control_1_pgreenlinestimulus3.png,TMTstop-control_1_predlinestimulus3.png,10,0,5,5,5,,,,,,,,,1,1,15.955168100001174,None,['1'],1,[0.026527900001383387],15.955168100001174,None,,001,2022_May_23_1401,TMT_practice,2021.2.3,144.2154463398364,
7,['3'],3,TMTstop-control_1_plinestimulus4.png,TMTstop-control_1_pgreenlinestimulus4.png,TMTstop-control_1_predlinestimulus4.png,10,0,6,6,6,,,,,,,,,2,0,16.072642000006454,None,"['2', '3']",1,"[-0.053467599995201454, 0.21056400000088615]",16.072642000006454,None,,001,2022_May_23_1401,TMT_practice,2021.2.3,144.2154463398364,
8,['1'],1,TMTstop-control_1_plinestimulus4.png,TMTstop-control_1_pgreenlinestimulus5.png,TMTstop-control_1_predlinestimulus5.png,10,0,7,7,7,,,,,,,,,2,0,16.37748460000148,None,"['2', '1']",1,"[-0.06142649999674177, 0.16194430000177817]",16.37748460000148,None,,001,2022_May_23_1401,TMT_practice,2021.2.3,144.2154463398364,
9,['2'],2,TMTstop-control_1_plinestimulus6.png,TMTstop-control_1_pgreenlinestimulus6.png,TMTstop-control_1_predlinestimulus6.png,10,0,8,8,8,,,,,,,,,1,1,16.66111980000278,None,['2'],1,[0.011729199999535922],16.66111980000278,None,,001,2022_May_23_1401,TMT_practice,2021.2.3,144.2154463398364,
10,['3'],3,TMTstop-control_1_plinestimulus7.png,TMTstop-control_1_pgreenlinestimulus7.png,TMTstop-control_1_predlinestimulus7.png,10,0,9,9,9,,,,,,,,,1,1,16.76667080000334,None,['3'],1,[-0.021198900001763832],16.76667080000334,None,,001,2022_May_23_1401,TMT_practice,2021.2.3,144.2154463398364,
11,['2'],2,TMTstop-control_1_plinestimulus8.png,TMTstop-control_1_pgreenlinestimulus8.png,TMTstop-control_1_predlinestimulus8.png,10,0,10,10,10,,,,,,,,,2,0,16.85216670000227,None,"['1', '2']",1,"[0.0395972000042093, 0.08790560000488767]",16.85216670000227,None,,001,2022_May_23_1401,TMT_practice,2021.2.3,144.2154463398364,
12,['3'],3,TMTstop-control_1_plinestimulus9.png,TMTstop-control_1_pgreenlinestimulus9.png,TMTstop-control_1_predlinestimulus9.png,10,0,11,11,11,,,,,,,,,1,1,17.048052199999802,None,['3'],1,[0.03805360000114888],17.048052199999802,None,,001,2022_May_23_1401,TMT_practice,2021.2.3,144.2154463398364,
13,['1'],1,TMTstop-control_1_plinestimulus10.png,TMTstop-control_1_pgreenlinestimulus10.png,TMTstop-control_1_predlinestimulus10.png,1,0,12,12,12,,,,,,,,,1,1,17.181677500004298,None,['1'],1,[0.04547909999382682],17.181677500004298,None,,001,2022_May_23_1401,TMT_practice,2021.2.3,144.2154463398364,
14,['2'],2,TMTstop-control_1_plinestimulus11.png,TMTstop-control_1_pgreenlinestimulus11.png,TMTstop-control_1_predlinestimulus11.png,None,0,13,13,13,,,,,,,,,1,1,17.315551700005017,None,['2'],1,[-0.02982519999932265],17.315551700005017,None,,001,2022_May_23_1401,TMT_practice,2021.2.3,144.2154463398364,
15,['3'],3,TMTstop-control_1_plinestimulus12.png,TMTstop-control_1_pgreenlinestimulus12.png,TMTstop-control_1_predlinestimulus12.png,None,0,14,14,14,,,,,,,,,1,1,17.420250200004375,None,['3'],1,[-0.017521899993880652],17.420250200004375,None,,001,2022_May_23_1401,TMT_practice,2021.2.3,144.2154463398364,
16,['1'],1,TMTstop-control_1_plinestimulus13.png,TMTstop-control_1_pgreenlinestimulus13.png,TMTstop-control_1_predlinestimulus13.png,None,0,15,15,15,,,,,,,,,1,1,17.510283000003255,None,['1'],1,[0.0406310999969719],17.510283000003255,None,,001,2022_May_23_1401,TMT_practice,2021.2.3,144.2154463398364,
17,['3'],3,TMTstop-control_1_plinestimulus14.png,TMTstop-control_1_pgreenlinestimulus14.png,TMTstop-control_1_predlinestimulus14.png,None,0,16,16,16,,,,,,,,,2,0,17.63815070000419,None,"['2', '3']",1,"[-0.027019699999073055, 0.09691759999986971]",17.63815070000419,None,,001,2022_May_23_1401,TMT_practice,2021.2.3,144.2154463398364,
18,['1'],1,TMTstop-control_1_plinestimulus15.png,TMTstop-control_1_pgreenlinestimulus15.png,TMTstop-control_1_predlinestimulus15.png,None,0,17,17,17,,,,,,,,,1,1,17.86551260000124,None,['1'],1,[0.004219700000248849],17.86551260000124,None,,001,2022_May_23_1401,TMT_practice,2021.2.3,144.2154463398364,
19,['3'],3,TMTstop-control_1_plinestimulus16.png,TMTstop-control_1_pgreenlinestimulus16.png,TMTstop-control_1_predlinestimulus16.png,None,0,18,18,18,,,,,,,,,2,0,17.982465600005526,None,"['2', '3']",1,"[-0.08329229999799281, 0.06748620000144001]",17.982465600005526,None,,001,2022_May_23_1401,TMT_practice,2021.2.3,144.2154463398364,
20,['2'],2,TMTstop-control_1_plinestimulus17.png,TMTstop-control_1_pgreenlinestimulus17.png,TMTstop-control_1_predlinestimulus17.png,None,0,19,19,19,,,,,,,,,2,0,18.161441000003833,None,"['1', '2']",1,"[0.028681999996479135, 0.06206940000265604]",18.161441000003833,None,,001,2022_May_23_1401,TMT_practice,2021.2.3,144.2154463398364,
21,['1'],1,TMTstop-control_1_plinestimulus18.png,TMTstop-control_1_pgreenlinestimulus18.png,TMTstop-control_1_predlinestimulus18.png,None,0,20,20,20,,,,,,,,,2,0,18.31994990000385,None,"['3', '1']",1,"[0.05117240000254242, 0.19999370000005]",18.31994990000385,None,,001,2022_May_23_1401,TMT_practice,2021.2.3,144.2154463398364,
22,['3'],3,TMTstop-control_1_plinestimulus19.png,TMTstop-control_1_pgreenlinestimulus19.png,TMTstop-control_1_predlinestimulus19.png,None,0,21,21,21,,,,,,,,,2,0,18.63138720000279,None,"['2', '3']",1,"[-0.0696207000000868, 0.06736519999685697]",18.63138720000279,None,,001,2022_May_23_1401,TMT_practice,2021.2.3,144.2154463398364,
23,['2'],2,TMTstop-control_1_plinestimulus20.png,TMTstop-control_1_pgreenlinestimulus20.png,TMTstop-control_1_predlinestimulus20.png,None,0,22,22,22,,,,,,,,,2,0,18.795830400005798,None,"['1', '2']",1,"[0.1174133000022266, 0.13846919999923557]",18.795830400005798,None,,001,2022_May_23_1401,TMT_practice,2021.2.3,144.2154463398364,
24,['1'],1,TMTstop-control_1_plinestimulus21.png,TMTstop-control_1_pgreenlinestimulus21.png,TMTstop-control_1_predlinestimulus21.png,None,0,23,23,23,,,,,,,,,2,0,19.055017900005623,None,"['3', '1']",1,"[0.05510360000334913, 0.5299104000005173]",19.055017900005623,None,,001,2022_May_23_1401,TMT_practice,2021.2.3,144.2154463398364,
25,['3'],3,TMTstop-control_1_plinestimulus22.png,TMTstop-control_1_pgreenlinestimulus22.png,TMTstop-control_1_predlinestimulus22.png,None,0,24,24,24,,,,,,,,,2,0,19.768017800000962,None,"['2', '3']",1,"[-0.11277960000006715, 0.8032116999966092]",19.768017800000962,None,,001,2022_May_23_1401,TMT_practice,2021.2.3,144.2154463398364,
None,None,None,TMTstop-control_1_plinestimulus23.png,TMTstop-control_1_pgreenlinestimulus23.png,TMTstop-control_1_predlinestimulus23.png,None,0,25,25,25,,,,,,,,,0,0,20.656548400002066,None,None,1,,20.656548400002066,None,,001,2022_May_23_1401,TMT_practice,2021.2.3,144.2154463398364,
1,['3'],3,TMTstop-A_1_p.png,TMTstop-A_1_p.png,TMTstop-A_1_p.png,10,,,,,0,0,0,0,,,,,1,1,35.65943300000072,None,['3'],1,[1.9188814000008279],35.65943300000072,None,,001,2022_May_23_1401,TMT_practice,2021.2.3,144.2154463398364,
2,['1'],1,TMTstop-A_1_p.png,TMTstop-A_1_pfirstgreen.png,TMTstop-A_1_pfirstred.png,10,,,,,0,1,1,1,,,,,1,1,37.66796020000038,None,['1'],1,[0.9614702999970177],37.66796020000038,None,,001,2022_May_23_1401,TMT_practice,2021.2.3,144.2154463398364,
3,['2'],2,TMTstop-A_1_plinestimulus0.png,TMTstop-A_1_pgreenlinestimulus0.png,TMTstop-A_1_predlinestimulus0.png,10,,,,,0,2,2,2,,,,,1,1,38.713546900005895,None,['2'],1,[0.6271381000042311],38.713546900005895,None,,001,2022_May_23_1401,TMT_practice,2021.2.3,144.2154463398364,
4,['1'],1,TMTstop-A_1_plinestimulus1.png,TMTstop-A_1_pgreenlinestimulus1.png,TMTstop-A_1_predlinestimulus1.png,10,,,,,0,3,3,3,,,,,1,1,39.41768390000652,None,['1'],1,[2.2248324999964098],39.41768390000652,None,,001,2022_May_23_1401,TMT_practice,2021.2.3,144.2154463398364,
5,['2'],2,TMTstop-A_1_plinestimulus2.png,TMTstop-A_1_pgreenlinestimulus2.png,TMTstop-A_1_predlinestimulus2.png,10,,,,,0,4,4,4,,,,,1,1,41.73360970000067,None,['2'],1,[1.5139899999994668],41.73360970000067,None,,001,2022_May_23_1401,TMT_practice,2021.2.3,144.2154463398364,
6,['1'],1,TMTstop-A_1_plinestimulus3.png,TMTstop-A_1_pgreenlinestimulus3.png,TMTstop-A_1_predlinestimulus3.png,10,,,,,0,5,5,5,,,,,1,1,43.33089390000532,None,['1'],1,[1.785331799997948],43.33089390000532,None,,001,2022_May_23_1401,TMT_practice,2021.2.3,144.2154463398364,
7,['2'],2,TMTstop-A_1_plinestimulus4.png,TMTstop-A_1_pgreenlinestimulus4.png,TMTstop-A_1_predlinestimulus4.png,10,,,,,0,6,6,6,,,,,1,1,45.19940530000167,None,['2'],1,[0.8127050000039162],45.19940530000167,None,,001,2022_May_23_1401,TMT_practice,2021.2.3,144.2154463398364,
8,['1'],1,TMTstop-A_1_plinestimulus5.png,TMTstop-A_1_pgreenlinestimulus5.png,TMTstop-A_1_predlinestimulus5.png,10,,,,,0,7,7,7,,,,,1,1,46.09474500000215,None,['1'],1,[-0.05065689999901224],46.09474500000215,None,,001,2022_May_23_1401,TMT_practice,2021.2.3,144.2154463398364,
9,['2'],2,TMTstop-A_1_plinestimulus6.png,TMTstop-A_1_pgreenlinestimulus6.png,TMTstop-A_1_predlinestimulus6.png,10,,,,,0,8,8,8,,,,,1,1,46.28767660000449,None,['2'],1,[3.8481289000046672],46.28767660000449,None,,001,2022_May_23_1401,TMT_practice,2021.2.3,144.2154463398364,
10,['1'],1,TMTstop-A_1_plinestimulus7.png,TMTstop-A_1_pgreenlinestimulus7.png,TMTstop-A_1_predlinestimulus7.png,10,,,,,0,9,9,9,,,,,1,1,50.21343000000343,None,['1'],1,[0.9678141000040341],50.21343000000343,None,,001,2022_May_23_1401,TMT_practice,2021.2.3,144.2154463398364,
11,['2'],2,TMTstop-A_1_plinestimulus8.png,TMTstop-A_1_pgreenlinestimulus8.png,TMTstop-A_1_predlinestimulus8.png,10,,,,,0,10,10,10,,,,,1,1,51.25475340000412,None,['2'],1,[3.2969545000014477],51.25475340000412,None,,001,2022_May_23_1401,TMT_practice,2021.2.3,144.2154463398364,
12,['1'],1,TMTstop-A_1_plinestimulus9.png,TMTstop-A_1_pgreenlinestimulus9.png,TMTstop-A_1_predlinestimulus9.png,10,,,,,0,11,11,11,,,,,1,1,54.643178800004534,None,['1'],1,[0.7222746000043117],54.643178800004534,None,,001,2022_May_23_1401,TMT_practice,2021.2.3,144.2154463398364,
13,['2'],2,TMTstop-A_1_plinestimulus10.png,TMTstop-A_1_pgreenlinestimulus10.png,TMTstop-A_1_predlinestimulus10.png,1,,,,,0,12,12,12,,,,,1,1,55.44633640000393,None,['2'],1,[0.7108262000037939],55.44633640000393,None,,001,2022_May_23_1401,TMT_practice,2021.2.3,144.2154463398364,
14,['3'],3,TMTstop-A_1_plinestimulus11.png,TMTstop-A_1_pgreenlinestimulus11.png,TMTstop-A_1_predlinestimulus11.png,None,,,,,0,13,13,13,,,,,1,1,56.23652810000203,None,['3'],1,[0.6470231999992393],56.23652810000203,None,,001,2022_May_23_1401,TMT_practice,2021.2.3,144.2154463398364,
15,['1'],1,TMTstop-A_1_plinestimulus12.png,TMTstop-A_1_pgreenlinestimulus12.png,TMTstop-A_1_predlinestimulus12.png,None,,,,,0,14,14,14,,,,,1,1,56.987939800004824,None,['1'],1,[0.9740517999962321],56.987939800004824,None,,001,2022_May_23_1401,TMT_practice,2021.2.3,144.2154463398364,
16,['3'],3,TMTstop-A_1_plinestimulus13.png,TMTstop-A_1_pgreenlinestimulus13.png,TMTstop-A_1_predlinestimulus13.png,None,,,,,0,15,15,15,,,,,1,1,58.05704080000578,None,['3'],1,[1.514932600002794],58.05704080000578,None,,001,2022_May_23_1401,TMT_practice,2021.2.3,144.2154463398364,
17,['1'],1,TMTstop-A_1_plinestimulus14.png,TMTstop-A_1_pgreenlinestimulus14.png,TMTstop-A_1_predlinestimulus14.png,None,,,,,0,16,16,16,,,,,1,1,59.6559125000058,None,['1'],1,[0.8590853999994579],59.6559125000058,None,,001,2022_May_23_1401,TMT_practice,2021.2.3,144.2154463398364,
18,['2'],2,TMTstop-A_1_plinestimulus15.png,TMTstop-A_1_pgreenlinestimulus15.png,TMTstop-A_1_predlinestimulus15.png,None,,,,,0,17,17,17,,,,,1,1,60.592753700002504,None,['2'],1,[0.8570684000005713],60.592753700002504,None,,001,2022_May_23_1401,TMT_practice,2021.2.3,144.2154463398364,
19,['3'],3,TMTstop-A_1_plinestimulus16.png,TMTstop-A_1_pgreenlinestimulus16.png,TMTstop-A_1_predlinestimulus16.png,None,,,,,0,18,18,18,,,,,1,1,61.540047200003755,None,['3'],1,[0.9572153999979491],61.540047200003755,None,,001,2022_May_23_1401,TMT_practice,2021.2.3,144.2154463398364,
20,['2'],2,TMTstop-A_1_plinestimulus17.png,TMTstop-A_1_pgreenlinestimulus17.png,TMTstop-A_1_predlinestimulus17.png,None,,,,,0,19,19,19,,,,,1,1,62.592390100006014,None,['2'],1,[0.5969803999978467],62.592390100006014,None,,001,2022_May_23_1401,TMT_practice,2021.2.3,144.2154463398364,
21,['3'],3,TMTstop-A_1_plinestimulus18.png,TMTstop-A_1_pgreenlinestimulus18.png,TMTstop-A_1_predlinestimulus18.png,None,,,,,0,20,20,20,,,,,1,1,63.276564300002065,None,['3'],1,[2.8611591000008048],63.276564300002065,None,,001,2022_May_23_1401,TMT_practice,2021.2.3,144.2154463398364,
22,['1'],1,TMTstop-A_1_plinestimulus19.png,TMTstop-A_1_pgreenlinestimulus19.png,TMTstop-A_1_predlinestimulus19.png,None,,,,,0,21,21,21,,,,,1,1,66.21652610000456,None,['1'],1,[0.3998621999999159],66.21652610000456,None,,001,2022_May_23_1401,TMT_practice,2021.2.3,144.2154463398364,
23,['2'],2,TMTstop-A_1_plinestimulus20.png,TMTstop-A_1_pgreenlinestimulus20.png,TMTstop-A_1_predlinestimulus20.png,None,,,,,0,22,22,22,,,,,1,1,66.70023450000008,None,['2'],1,[0.509621999997762],66.70023450000008,None,,001,2022_May_23_1401,TMT_practice,2021.2.3,144.2154463398364,
24,['3'],3,TMTstop-A_1_plinestimulus21.png,TMTstop-A_1_pgreenlinestimulus21.png,TMTstop-A_1_predlinestimulus21.png,None,,,,,0,23,23,23,,,,,1,1,67.29278880000493,None,['3'],1,[0.5282232999961707],67.29278880000493,None,,001,2022_May_23_1401,TMT_practice,2021.2.3,144.2154463398364,
25,['2'],2,TMTstop-A_1_plinestimulus22.png,TMTstop-A_1_pgreenlinestimulus22.png,TMTstop-A_1_predlinestimulus22.png,None,,,,,0,24,24,24,,,,,1,1,67.91437670000596,None,['2'],1,[0.33246840000356315],67.91437670000596,None,,001,2022_May_23_1401,TMT_practice,2021.2.3,144.2154463398364,
None,None,None,TMTstop-A_1_plinestimulus23.png,TMTstop-A_1_pgreenlinestimulus23.png,TMTstop-A_1_predlinestimulus23.png,None,,,,,0,25,25,25,,,,,0,0,68.34251700000459,None,None,1,,68.34251700000459,None,,001,2022_May_23_1401,TMT_practice,2021.2.3,144.2154463398364,
1,['3'],3,TMTstop-B_1_p.png,TMTstop-B_1_p.png,TMTstop-B_1_p.png,10,,,,,,,,,0,0,0,0,1,1,93.29274260000238,None,['3'],1,[1.651105999997526],93.29274260000238,None,,001,2022_May_23_1401,TMT_practice,2021.2.3,144.2154463398364,
A,['1'],1,TMTstop-B_1_p.png,TMTstop-B_1_pfirstgreen.png,TMTstop-B_1_pfirstred.png,10,,,,,,,,,0,1,1,1,1,1,95.03678600000421,None,['1'],1,[1.2408406000031391],95.03678600000421,None,,001,2022_May_23_1401,TMT_practice,2021.2.3,144.2154463398364,
2,['2'],2,TMTstop-B_1_plinestimulus0.png,TMTstop-B_1_pgreenlinestimulus0.png,TMTstop-B_1_predlinestimulus0.png,10,,,,,,,,,0,2,2,2,1,1,96.35429149999982,None,['2'],1,[2.5577788000009605],96.35429149999982,None,,001,2022_May_23_1401,TMT_practice,2021.2.3,144.2154463398364,
B,['3'],3,TMTstop-B_1_plinestimulus1.png,TMTstop-B_1_pgreenlinestimulus1.png,TMTstop-B_1_predlinestimulus1.png,10,,,,,,,,,0,3,3,3,1,1,99.00819000000047,None,['3'],1,[3.666614699999627],99.00819000000047,None,,001,2022_May_23_1401,TMT_practice,2021.2.3,144.2154463398364,
3,['1'],1,TMTstop-B_1_plinestimulus2.png,TMTstop-B_1_pgreenlinestimulus2.png,TMTstop-B_1_predlinestimulus2.png,10,,,,,,,,,0,4,4,4,1,1,102.76166610000655,None,['1'],1,[7.66330790000211],102.76166610000655,None,,001,2022_May_23_1401,TMT_practice,2021.2.3,144.2154463398364,
C,['3'],3,TMTstop-B_1_plinestimulus3.png,TMTstop-B_1_pgreenlinestimulus3.png,TMTstop-B_1_predlinestimulus3.png,10,,,,,,,,,0,5,5,5,1,1,110.50278460000118,None,['3'],1,[1.1258484999998473],110.50278460000118,None,,001,2022_May_23_1401,TMT_practice,2021.2.3,144.2154463398364,
4,['1'],1,TMTstop-B_1_plinestimulus4.png,TMTstop-B_1_pgreenlinestimulus4.png,TMTstop-B_1_predlinestimulus4.png,10,,,,,,,,,0,6,6,6,1,1,111.71009090000007,None,['1'],1,[2.491868199998862],111.71009090000007,None,,001,2022_May_23_1401,TMT_practice,2021.2.3,144.2154463398364,
D,['3'],3,TMTstop-B_1_plinestimulus5.png,TMTstop-B_1_pgreenlinestimulus5.png,TMTstop-B_1_predlinestimulus5.png,10,,,,,,,,,0,7,7,7,1,1,114.2820950000023,None,['3'],1,[4.8690683000022545],114.2820950000023,None,,001,2022_May_23_1401,TMT_practice,2021.2.3,144.2154463398364,
5,['2'],2,TMTstop-B_1_plinestimulus6.png,TMTstop-B_1_pgreenlinestimulus6.png,TMTstop-B_1_predlinestimulus6.png,10,,,,,,,,,0,8,8,8,1,1,119.2324563000002,None,['2'],1,[1.180718000003253],119.2324563000002,None,,001,2022_May_23_1401,TMT_practice,2021.2.3,144.2154463398364,
E,['1'],1,TMTstop-B_1_plinestimulus7.png,TMTstop-B_1_pgreenlinestimulus7.png,TMTstop-B_1_predlinestimulus7.png,10,,,,,,,,,0,9,9,9,1,1,120.48994400000083,None,['1'],1,[6.790549800003646],120.48994400000083,None,,001,2022_May_23_1401,TMT_practice,2021.2.3,144.2154463398364,
6,['3'],3,TMTstop-B_1_plinestimulus8.png,TMTstop-B_1_pgreenlinestimulus8.png,TMTstop-B_1_predlinestimulus8.png,10,,,,,,,,,0,10,10,10,1,1,127.4562314000068,None,['3'],1,[1.5455256999994162],127.4562314000068,None,,001,2022_May_23_1401,TMT_practice,2021.2.3,144.2154463398364,
F,['1'],1,TMTstop-B_1_plinestimulus9.png,TMTstop-B_1_pgreenlinestimulus9.png,TMTstop-B_1_predlinestimulus9.png,10,,,,,,,,,0,11,11,11,2,0,129.09675160000188,None,"['3', '1']",1,"[8.301632000002428, 9.132886800005508]",129.09675160000188,None,,001,2022_May_23_1401,TMT_practice,2021.2.3,144.2154463398364,
7,['3'],3,TMTstop-B_1_plinestimulus10.png,TMTstop-B_1_pgreenlinestimulus10.png,TMTstop-B_1_predlinestimulus10.png,1,,,,,,,,,0,12,12,12,1,1,138.3602702000062,None,['3'],1,[2.3175339000008535],138.3602702000062,None,,001,2022_May_23_1401,TMT_practice,2021.2.3,144.2154463398364,
G,['1'],1,TMTstop-B_1_plinestimulus11.png,TMTstop-B_1_pgreenlinestimulus11.png,TMTstop-B_1_predlinestimulus11.png,None,,,,,,,,,0,13,13,13,2,0,140.75971390000632,None,"['2', '1']",1,"[-0.05062520000501536, 4.443165299999237]",140.75971390000632,None,,001,2022_May_23_1401,TMT_practice,2021.2.3,144.2154463398364,
8,['2'],2,TMTstop-B_1_plinestimulus12.png,TMTstop-B_1_pgreenlinestimulus12.png,TMTstop-B_1_predlinestimulus12.png,None,,,,,,,,,0,14,14,14,1,1,145.3090830000001,None,['2'],1,[1.6983773000029032],145.3090830000001,None,,001,2022_May_23_1401,TMT_practice,2021.2.3,144.2154463398364,
H,['3'],3,TMTstop-B_1_plinestimulus13.png,TMTstop-B_1_pgreenlinestimulus13.png,TMTstop-B_1_predlinestimulus13.png,None,,,,,,,,,0,15,15,15,1,1,147.10671330000332,None,['3'],1,[1.2486523000043235],147.10671330000332,None,,001,2022_May_23_1401,TMT_practice,2021.2.3,144.2154463398364,
9,['2'],2,TMTstop-B_1_plinestimulus14.png,TMTstop-B_1_pgreenlinestimulus14.png,TMTstop-B_1_predlinestimulus14.png,None,,,,,,,,,0,16,16,16,1,1,148.43880020000506,None,['2'],1,[1.8956066000027931],148.43880020000506,None,,001,2022_May_23_1401,TMT_practice,2021.2.3,144.2154463398364,
I,['3'],3,TMTstop-B_1_plinestimulus15.png,TMTstop-B_1_pgreenlinestimulus15.png,TMTstop-B_1_predlinestimulus15.png,None,,,,,,,,,0,17,17,17,1,1,150.41322180000134,None,['3'],1,[0.5684196000001975],150.41322180000134,None,,001,2022_May_23_1401,TMT_practice,2021.2.3,144.2154463398364,
10,['1'],1,TMTstop-B_1_plinestimulus16.png,TMTstop-B_1_pgreenlinestimulus16.png,TMTstop-B_1_predlinestimulus16.png,None,,,,,,,,,0,18,18,18,1,1,151.0819210000045,None,['1'],1,[0.8930220999973244],151.0819210000045,None,,001,2022_May_23_1401,TMT_practice,2021.2.3,144.2154463398364,
J,['3'],3,TMTstop-B_1_plinestimulus17.png,TMTstop-B_1_pgreenlinestimulus17.png,TMTstop-B_1_predlinestimulus17.png,None,,,,,,,,,0,19,19,19,3,0,152.06351250000444,None,"['1', '1', '3']",1,"[0.7112909999996191, 1.689240100000461, 3.290508599995519]",152.06351250000444,None,,001,2022_May_23_1401,TMT_practice,2021.2.3,144.2154463398364,
11,['1'],1,TMTstop-B_1_plinestimulus18.png,TMTstop-B_1_pgreenlinestimulus18.png,TMTstop-B_1_predlinestimulus18.png,None,,,,,,,,,0,20,20,20,1,1,155.46019730000262,None,['1'],1,[0.7035362999959034],155.46019730000262,None,,001,2022_May_23_1401,TMT_practice,2021.2.3,144.2154463398364,
K,['3'],3,TMTstop-B_1_plinestimulus19.png,TMTstop-B_1_pgreenlinestimulus19.png,TMTstop-B_1_predlinestimulus19.png,None,,,,,,,,,0,21,21,21,1,1,156.25205030000507,None,['3'],1,[1.1819583999968017],156.25205030000507,None,,001,2022_May_23_1401,TMT_practice,2021.2.3,144.2154463398364,
12,['1'],1,TMTstop-B_1_plinestimulus20.png,TMTstop-B_1_pgreenlinestimulus20.png,TMTstop-B_1_predlinestimulus20.png,None,,,,,,,,,0,22,22,22,1,1,157.52151160000358,None,['1'],1,[0.7498676000031992],157.52151160000358,None,,001,2022_May_23_1401,TMT_practice,2021.2.3,144.2154463398364,
L,['2'],2,TMTstop-B_1_plinestimulus21.png,TMTstop-B_1_pgreenlinestimulus21.png,TMTstop-B_1_predlinestimulus21.png,None,,,,,,,,,0,23,23,23,1,1,158.36839200000395,None,['2'],1,[1.2689126999975997],158.36839200000395,None,,001,2022_May_23_1401,TMT_practice,2021.2.3,144.2154463398364,
13,['3'],3,TMTstop-B_1_plinestimulus22.png,TMTstop-B_1_pgreenlinestimulus22.png,TMTstop-B_1_predlinestimulus22.png,None,,,,,,,,,0,24,24,24,1,1,159.72506210000574,None,['3'],1,[0.767808700002206],159.72506210000574,None,,001,2022_May_23_1401,TMT_practice,2021.2.3,144.2154463398364,
None,None,None,TMTstop-B_1_plinestimulus23.png,TMTstop-B_1_pgreenlinestimulus23.png,TMTstop-B_1_predlinestimulus23.png,None,,,,,,,,,0,25,25,25,0,0,160.57628680000198,None,None,1,,160.57628680000198,None,,001,2022_May_23_1401,TMT_practice,2021.2.3,144.2154463398364,
