NumberLetter,corrAns,Correct,StimFile,Correct_StimFile,False_StimFile,DurationTrial,trials_TMTControl.thisRepN,trials_TMTControl.thisTrialN,trials_TMTControl.thisN,trials_TMTControl.thisIndex,trials_TMTA.thisRepN,trials_TMTA.thisTrialN,trials_TMTA.thisN,trials_TMTA.thisIndex,trials_TMTB.thisRepN,trials_TMTB.thisTrialN,trials_TMTB.thisN,trials_TMTB.thisIndex,Attempts,First_attempt,Stim.started,Stim.stopped,key_resp_2.keys,key_resp_2.corr,key_resp_2.rt,key_resp_2.started,key_resp_2.stopped,participant,session,date,expName,psychopyVersion,frameRate,
1,['2'],2,TMTstop-control_1_p.png,TMTstop-control_1_p.png,TMTstop-control_1_p.png,10,0,0,0,0,,,,,,,,,1,1,93.23109469999326,None,['2'],1,[34.36409790001926],93.23109469999326,None,,001,2022_Apr_29_1103,TMT_practice,2021.2.3,141.50436120379786,
2,['1'],1,TMTstop-control_1_p.png,TMTstop-control_1_pfirstgreen.png,TMTstop-control_1_pfirstred.png,10,0,1,1,1,,,,,,,,,1,1,127.77546750000329,None,['1'],1,[0.8729137999762315],127.77546750000329,None,,001,2022_Apr_29_1103,TMT_practice,2021.2.3,141.50436120379786,
3,['3'],3,TMTstop-control_1_plinestimulus0.png,TMTstop-control_1_pgreenlinestimulus0.png,TMTstop-control_1_predlinestimulus0.png,10,0,2,2,2,,,,,,,,,1,1,128.74529849999817,None,['3'],1,[1.115422300004866],128.74529849999817,None,,001,2022_Apr_29_1103,TMT_practice,2021.2.3,141.50436120379786,
4,['1'],1,TMTstop-control_1_plinestimulus1.png,TMTstop-control_1_pgreenlinestimulus1.png,TMTstop-control_1_predlinestimulus1.png,10,0,3,3,3,,,,,,,,,1,1,129.95331949999672,None,['1'],1,[1.7043725999828894],129.95331949999672,None,,001,2022_Apr_29_1103,TMT_practice,2021.2.3,141.50436120379786,
5,['3'],3,TMTstop-control_1_plinestimulus2.png,TMTstop-control_1_pgreenlinestimulus2.png,TMTstop-control_1_predlinestimulus2.png,10,0,4,4,4,,,,,,,,,1,1,131.73841510000057,None,['3'],1,[4.109818299999461],131.73841510000057,None,,001,2022_Apr_29_1103,TMT_practice,2021.2.3,141.50436120379786,
6,['1'],1,TMTstop-control_1_plinestimulus3.png,TMTstop-control_1_pgreenlinestimulus3.png,TMTstop-control_1_predlinestimulus3.png,10,0,5,5,5,,,,,,,,,1,1,135.93927990001976,None,['1'],1,[2.6919236999819987],135.93927990001976,None,,001,2022_Apr_29_1103,TMT_practice,2021.2.3,141.50436120379786,
7,['3'],3,TMTstop-control_1_plinestimulus4.png,TMTstop-control_1_pgreenlinestimulus4.png,TMTstop-control_1_predlinestimulus4.png,10,0,6,6,6,,,,,,,,,2,0,138.71701019999455,None,"['1', '3']",1,"[1.8697355999902356, 8.028426900011254]",138.71701019999455,None,,001,2022_Apr_29_1103,TMT_practice,2021.2.3,141.50436120379786,
8,['1'],1,TMTstop-control_1_plinestimulus4.png,TMTstop-control_1_pgreenlinestimulus5.png,TMTstop-control_1_predlinestimulus5.png,10,0,7,7,7,,,,,,,,,1,1,146.89737380002043,None,['1'],1,[1.1854789000062738],146.89737380002043,None,,001,2022_Apr_29_1103,TMT_practice,2021.2.3,141.50436120379786,
9,['2'],2,TMTstop-control_1_plinestimulus6.png,TMTstop-control_1_pgreenlinestimulus6.png,TMTstop-control_1_predlinestimulus6.png,10,0,8,8,8,,,,,,,,,1,1,148.17654720001156,None,['2'],1,[0.8850745999952778],148.17654720001156,None,,001,2022_Apr_29_1103,TMT_practice,2021.2.3,141.50436120379786,
10,['3'],3,TMTstop-control_1_plinestimulus7.png,TMTstop-control_1_pgreenlinestimulus7.png,TMTstop-control_1_predlinestimulus7.png,10,0,9,9,9,,,,,,,,,1,1,149.16136280001956,None,['3'],1,[0.7269780000206083],149.16136280001956,None,,001,2022_Apr_29_1103,TMT_practice,2021.2.3,141.50436120379786,
11,['2'],2,TMTstop-control_1_plinestimulus8.png,TMTstop-control_1_pgreenlinestimulus8.png,TMTstop-control_1_predlinestimulus8.png,10,0,10,10,10,,,,,,,,,1,1,149.98743450001348,None,['2'],1,[0.9361957000219263],149.98743450001348,None,,001,2022_Apr_29_1103,TMT_practice,2021.2.3,141.50436120379786,
12,['3'],3,TMTstop-control_1_plinestimulus9.png,TMTstop-control_1_pgreenlinestimulus9.png,TMTstop-control_1_predlinestimulus9.png,10,0,11,11,11,,,,,,,,,1,1,151.05994940001983,None,['3'],1,[0.7085490000026766],151.05994940001983,None,,001,2022_Apr_29_1103,TMT_practice,2021.2.3,141.50436120379786,
13,['1'],1,TMTstop-control_1_plinestimulus10.png,TMTstop-control_1_pgreenlinestimulus10.png,TMTstop-control_1_predlinestimulus10.png,1,0,12,12,12,,,,,,,,,1,1,151.87179209999158,None,['1'],1,[0.6081563000043388],151.87179209999158,None,,001,2022_Apr_29_1103,TMT_practice,2021.2.3,141.50436120379786,
14,['2'],2,TMTstop-control_1_plinestimulus11.png,TMTstop-control_1_pgreenlinestimulus11.png,TMTstop-control_1_predlinestimulus11.png,None,0,13,13,13,,,,,,,,,1,1,152.58078670001123,None,['2'],1,[0.7781237000017427],152.58078670001123,None,,001,2022_Apr_29_1103,TMT_practice,2021.2.3,141.50436120379786,
15,['3'],3,TMTstop-control_1_plinestimulus12.png,TMTstop-control_1_pgreenlinestimulus12.png,TMTstop-control_1_predlinestimulus12.png,None,0,14,14,14,,,,,,,,,1,1,153.47748550001415,None,['3'],1,[0.5883767000050284],153.47748550001415,None,,001,2022_Apr_29_1103,TMT_practice,2021.2.3,141.50436120379786,
16,['1'],1,TMTstop-control_1_plinestimulus13.png,TMTstop-control_1_pgreenlinestimulus13.png,TMTstop-control_1_predlinestimulus13.png,None,0,15,15,15,,,,,,,,,1,1,154.18538500001887,None,['1'],1,[0.5426643000100739],154.18538500001887,None,,001,2022_Apr_29_1103,TMT_practice,2021.2.3,141.50436120379786,
17,['3'],3,TMTstop-control_1_plinestimulus14.png,TMTstop-control_1_pgreenlinestimulus14.png,TMTstop-control_1_predlinestimulus14.png,None,0,16,16,16,,,,,,,,,1,1,154.82798990001902,None,['3'],1,[0.5469825000036508],154.82798990001902,None,,001,2022_Apr_29_1103,TMT_practice,2021.2.3,141.50436120379786,
18,['1'],1,TMTstop-control_1_plinestimulus15.png,TMTstop-control_1_pgreenlinestimulus15.png,TMTstop-control_1_predlinestimulus15.png,None,0,17,17,17,,,,,,,,,1,1,155.46641480000108,None,['1'],1,[0.5945989000028931],155.46641480000108,None,,001,2022_Apr_29_1103,TMT_practice,2021.2.3,141.50436120379786,
19,['3'],3,TMTstop-control_1_plinestimulus16.png,TMTstop-control_1_pgreenlinestimulus16.png,TMTstop-control_1_predlinestimulus16.png,None,0,18,18,18,,,,,,,,,1,1,156.14716530000442,None,['3'],1,[1.1445680999895558],156.14716530000442,None,,001,2022_Apr_29_1103,TMT_practice,2021.2.3,141.50436120379786,
20,['2'],2,TMTstop-control_1_plinestimulus17.png,TMTstop-control_1_pgreenlinestimulus17.png,TMTstop-control_1_predlinestimulus17.png,None,0,19,19,19,,,,,,,,,1,1,157.36959270000807,None,['2'],1,[0.5606277999759186],157.36959270000807,None,,001,2022_Apr_29_1103,TMT_practice,2021.2.3,141.50436120379786,
21,['1'],1,TMTstop-control_1_plinestimulus18.png,TMTstop-control_1_pgreenlinestimulus18.png,TMTstop-control_1_predlinestimulus18.png,None,0,20,20,20,,,,,,,,,1,1,158.02178020001156,None,['1'],1,[0.6583953000081237],158.02178020001156,None,,001,2022_Apr_29_1103,TMT_practice,2021.2.3,141.50436120379786,
22,['3'],3,TMTstop-control_1_plinestimulus19.png,TMTstop-control_1_pgreenlinestimulus19.png,TMTstop-control_1_predlinestimulus19.png,None,0,21,21,21,,,,,,,,,1,1,158.76492839999264,None,['3'],1,[0.602683100005379],158.76492839999264,None,,001,2022_Apr_29_1103,TMT_practice,2021.2.3,141.50436120379786,
23,['2'],2,TMTstop-control_1_plinestimulus20.png,TMTstop-control_1_pgreenlinestimulus20.png,TMTstop-control_1_predlinestimulus20.png,None,0,22,22,22,,,,,,,,,1,1,159.47420920000877,None,['2'],1,[0.7011458000051789],159.47420920000877,None,,001,2022_Apr_29_1103,TMT_practice,2021.2.3,141.50436120379786,
24,['1'],1,TMTstop-control_1_plinestimulus21.png,TMTstop-control_1_pgreenlinestimulus21.png,TMTstop-control_1_predlinestimulus21.png,None,0,23,23,23,,,,,,,,,1,1,160.26491769999848,None,['1'],1,[0.3252005999966059],160.26491769999848,None,,001,2022_Apr_29_1103,TMT_practice,2021.2.3,141.50436120379786,
25,['3'],3,TMTstop-control_1_plinestimulus22.png,TMTstop-control_1_pgreenlinestimulus22.png,TMTstop-control_1_predlinestimulus22.png,None,0,24,24,24,,,,,,,,,1,1,160.68180140000186,None,['3'],1,[0.49009079998359084],160.68180140000186,None,,001,2022_Apr_29_1103,TMT_practice,2021.2.3,141.50436120379786,
None,None,None,TMTstop-control_1_plinestimulus23.png,TMTstop-control_1_pgreenlinestimulus23.png,TMTstop-control_1_predlinestimulus23.png,None,0,25,25,25,,,,,,,,,1,1,161.25795130000915,None,['2'],0,[0.8306002999888733],161.25795130000915,None,,001,2022_Apr_29_1103,TMT_practice,2021.2.3,141.50436120379786,
1,['3'],3,TMTstop-A_1_p.png,TMTstop-A_1_p.png,TMTstop-A_1_p.png,10,,,,,0,0,0,0,,,,,2,0,180.88893099999405,None,"['1', '3']",1,"[-0.5705277999804821, 1.5821976000152063]",180.88893099999405,None,,001,2022_Apr_29_1103,TMT_practice,2021.2.3,141.50436120379786,
2,['1'],1,TMTstop-A_1_p.png,TMTstop-A_1_pfirstgreen.png,TMTstop-A_1_pfirstred.png,10,,,,,0,1,1,1,,,,,1,1,182.6192762000137,None,['1'],1,[5.2163208999845665],182.6192762000137,None,,001,2022_Apr_29_1103,TMT_practice,2021.2.3,141.50436120379786,
3,['2'],2,TMTstop-A_1_plinestimulus0.png,TMTstop-A_1_pgreenlinestimulus0.png,TMTstop-A_1_predlinestimulus0.png,10,,,,,0,2,2,2,,,,,1,1,187.9184787000122,None,['2'],1,[5.94487599999411],187.9184787000122,None,,001,2022_Apr_29_1103,TMT_practice,2021.2.3,141.50436120379786,
4,['1'],1,TMTstop-A_1_plinestimulus1.png,TMTstop-A_1_pgreenlinestimulus1.png,TMTstop-A_1_predlinestimulus1.png,10,,,,,0,3,3,3,,,,,1,1,193.9588289000094,None,['1'],1,[1.4506958000129089],193.9588289000094,None,,001,2022_Apr_29_1103,TMT_practice,2021.2.3,141.50436120379786,
5,['2'],2,TMTstop-A_1_plinestimulus2.png,TMTstop-A_1_pgreenlinestimulus2.png,TMTstop-A_1_predlinestimulus2.png,10,,,,,0,4,4,4,,,,,1,1,195.50861730001634,None,['2'],1,[1.0034833999816328],195.50861730001634,None,,001,2022_Apr_29_1103,TMT_practice,2021.2.3,141.50436120379786,
6,['1'],1,TMTstop-A_1_plinestimulus3.png,TMTstop-A_1_pgreenlinestimulus3.png,TMTstop-A_1_predlinestimulus3.png,10,,,,,0,5,5,5,,,,,1,1,196.60513750000973,None,['1'],1,[0.7680484000011347],196.60513750000973,None,,001,2022_Apr_29_1103,TMT_practice,2021.2.3,141.50436120379786,
7,['2'],2,TMTstop-A_1_plinestimulus4.png,TMTstop-A_1_pgreenlinestimulus4.png,TMTstop-A_1_predlinestimulus4.png,10,,,,,0,6,6,6,,,,,1,1,197.45845740000368,None,['2'],1,[1.9363402999879327],197.45845740000368,None,,001,2022_Apr_29_1103,TMT_practice,2021.2.3,141.50436120379786,
8,['1'],1,TMTstop-A_1_plinestimulus5.png,TMTstop-A_1_pgreenlinestimulus5.png,TMTstop-A_1_predlinestimulus5.png,10,,,,,0,7,7,7,,,,,1,1,199.48143030001665,None,['1'],1,[1.83468269999139],199.48143030001665,None,,001,2022_Apr_29_1103,TMT_practice,2021.2.3,141.50436120379786,
9,['2'],2,TMTstop-A_1_plinestimulus6.png,TMTstop-A_1_pgreenlinestimulus6.png,TMTstop-A_1_predlinestimulus6.png,10,,,,,0,8,8,8,,,,,1,1,201.4032148999977,None,['2'],1,[0.8827472999983002],201.4032148999977,None,,001,2022_Apr_29_1103,TMT_practice,2021.2.3,141.50436120379786,
10,['1'],1,TMTstop-A_1_plinestimulus7.png,TMTstop-A_1_pgreenlinestimulus7.png,TMTstop-A_1_predlinestimulus7.png,10,,,,,0,9,9,9,,,,,1,1,202.37527690001298,None,['1'],1,[5.724768100015353],202.37527690001298,None,,001,2022_Apr_29_1103,TMT_practice,2021.2.3,141.50436120379786,
11,['2'],2,TMTstop-A_1_plinestimulus8.png,TMTstop-A_1_pgreenlinestimulus8.png,TMTstop-A_1_predlinestimulus8.png,10,,,,,0,10,10,10,,,,,1,1,208.1803835000028,None,['2'],1,[1.4013542000029702],208.1803835000028,None,,001,2022_Apr_29_1103,TMT_practice,2021.2.3,141.50436120379786,
12,['1'],1,TMTstop-A_1_plinestimulus9.png,TMTstop-A_1_pgreenlinestimulus9.png,TMTstop-A_1_predlinestimulus9.png,10,,,,,0,11,11,11,,,,,1,1,209.6677117999934,None,['1'],1,[0.6541313999914564],209.6677117999934,None,,001,2022_Apr_29_1103,TMT_practice,2021.2.3,141.50436120379786,
13,['2'],2,TMTstop-A_1_plinestimulus10.png,TMTstop-A_1_pgreenlinestimulus10.png,TMTstop-A_1_predlinestimulus10.png,1,,,,,0,12,12,12,,,,,1,1,210.41627549999976,None,['2'],1,[1.0938717999961227],210.41627549999976,None,,001,2022_Apr_29_1103,TMT_practice,2021.2.3,141.50436120379786,
14,['3'],3,TMTstop-A_1_plinestimulus11.png,TMTstop-A_1_pgreenlinestimulus11.png,TMTstop-A_1_predlinestimulus11.png,None,,,,,0,13,13,13,,,,,1,1,211.5973608000204,None,['3'],1,[0.5793992000108119],211.5973608000204,None,,001,2022_Apr_29_1103,TMT_practice,2021.2.3,141.50436120379786,
15,['1'],1,TMTstop-A_1_plinestimulus12.png,TMTstop-A_1_pgreenlinestimulus12.png,TMTstop-A_1_predlinestimulus12.png,None,,,,,0,14,14,14,,,,,1,1,212.26526079999167,None,['1'],1,[0.6271823999995831],212.26526079999167,None,,001,2022_Apr_29_1103,TMT_practice,2021.2.3,141.50436120379786,
16,['3'],3,TMTstop-A_1_plinestimulus13.png,TMTstop-A_1_pgreenlinestimulus13.png,TMTstop-A_1_predlinestimulus13.png,None,,,,,0,15,15,15,,,,,1,1,212.9860285000177,None,['3'],1,[0.6103393000084907],212.9860285000177,None,,001,2022_Apr_29_1103,TMT_practice,2021.2.3,141.50436120379786,
17,['1'],1,TMTstop-A_1_plinestimulus14.png,TMTstop-A_1_pgreenlinestimulus14.png,TMTstop-A_1_predlinestimulus14.png,None,,,,,0,16,16,16,,,,,1,1,213.67441110001528,None,['1'],1,[0.29157140001188964],213.67441110001528,None,,001,2022_Apr_29_1103,TMT_practice,2021.2.3,141.50436120379786,
18,['2'],2,TMTstop-A_1_plinestimulus15.png,TMTstop-A_1_pgreenlinestimulus15.png,TMTstop-A_1_predlinestimulus15.png,None,,,,,0,17,17,17,,,,,1,1,214.06483149999985,None,['2'],1,[0.6339621999941301],214.06483149999985,None,,001,2022_Apr_29_1103,TMT_practice,2021.2.3,141.50436120379786,
19,['3'],3,TMTstop-A_1_plinestimulus16.png,TMTstop-A_1_pgreenlinestimulus16.png,TMTstop-A_1_predlinestimulus16.png,None,,,,,0,18,18,18,,,,,2,0,214.7846561000042,None,"['1', '3']",1,"[0.4392332000134047, 1.4850590999994893]",214.7846561000042,None,,001,2022_Apr_29_1103,TMT_practice,2021.2.3,141.50436120379786,
20,['2'],2,TMTstop-A_1_plinestimulus17.png,TMTstop-A_1_pgreenlinestimulus17.png,TMTstop-A_1_predlinestimulus17.png,None,,,,,0,19,19,19,,,,,1,1,216.43346430000383,None,['2'],1,[1.177135999983875],216.43346430000383,None,,001,2022_Apr_29_1103,TMT_practice,2021.2.3,141.50436120379786,
21,['3'],3,TMTstop-A_1_plinestimulus18.png,TMTstop-A_1_pgreenlinestimulus18.png,TMTstop-A_1_predlinestimulus18.png,None,,,,,0,20,20,20,,,,,2,0,217.6875197000045,None,"['1', '3']",1,"[0.7512019000132568, 1.2772717000043485]",217.6875197000045,None,,001,2022_Apr_29_1103,TMT_practice,2021.2.3,141.50436120379786,
22,['1'],1,TMTstop-A_1_plinestimulus19.png,TMTstop-A_1_pgreenlinestimulus19.png,TMTstop-A_1_predlinestimulus19.png,None,,,,,0,21,21,21,,,,,1,1,219.06918230000883,None,['1'],1,[1.2239384000131395],219.06918230000883,None,,001,2022_Apr_29_1103,TMT_practice,2021.2.3,141.50436120379786,
23,['2'],2,TMTstop-A_1_plinestimulus20.png,TMTstop-A_1_pgreenlinestimulus20.png,TMTstop-A_1_predlinestimulus20.png,None,,,,,0,22,22,22,,,,,1,1,220.4181294000009,None,['2'],1,[1.158157099998789],220.4181294000009,None,,001,2022_Apr_29_1103,TMT_practice,2021.2.3,141.50436120379786,
24,['3'],3,TMTstop-A_1_plinestimulus21.png,TMTstop-A_1_pgreenlinestimulus21.png,TMTstop-A_1_predlinestimulus21.png,None,,,,,0,23,23,23,,,,,1,1,221.6664979000052,None,['3'],1,[0.9402744999970309],221.6664979000052,None,,001,2022_Apr_29_1103,TMT_practice,2021.2.3,141.50436120379786,
25,['2'],2,TMTstop-A_1_plinestimulus22.png,TMTstop-A_1_pgreenlinestimulus22.png,TMTstop-A_1_predlinestimulus22.png,None,,,,,0,24,24,24,,,,,3,0,222.69460089999484,None,"['1', '3', '2']",1,"[0.8956341999873985, 1.9152378999860957, 2.276084199984325]",222.69460089999484,None,,001,2022_Apr_29_1103,TMT_practice,2021.2.3,141.50436120379786,
None,None,None,TMTstop-A_1_plinestimulus23.png,TMTstop-A_1_pgreenlinestimulus23.png,TMTstop-A_1_predlinestimulus23.png,None,,,,,0,25,25,25,,,,,0,0,225.05693750001956,None,None,1,,225.05693750001956,None,,001,2022_Apr_29_1103,TMT_practice,2021.2.3,141.50436120379786,
1,['3'],3,TMTstop-B_1_p.png,TMTstop-B_1_p.png,TMTstop-B_1_p.png,10,,,,,,,,,0,0,0,0,1,1,235.1796988999995,None,['3'],1,[8.471155299979728],235.1796988999995,None,,001,2022_Apr_29_1103,TMT_practice,2021.2.3,141.50436120379786,
A,['1'],1,TMTstop-B_1_p.png,TMTstop-B_1_pfirstgreen.png,TMTstop-B_1_pfirstred.png,10,,,,,,,,,0,1,1,1,1,1,243.83264350000536,None,['1'],1,[0.8725873000221327],243.83264350000536,None,,001,2022_Apr_29_1103,TMT_practice,2021.2.3,141.50436120379786,
2,['2'],2,TMTstop-B_1_plinestimulus0.png,TMTstop-B_1_pgreenlinestimulus0.png,TMTstop-B_1_predlinestimulus0.png,10,,,,,,,,,0,2,2,2,1,1,244.8132908999978,None,['2'],1,[0.8382940000155941],244.8132908999978,None,,001,2022_Apr_29_1103,TMT_practice,2021.2.3,141.50436120379786,
B,['3'],3,TMTstop-B_1_plinestimulus1.png,TMTstop-B_1_pgreenlinestimulus1.png,TMTstop-B_1_predlinestimulus1.png,10,,,,,,,,,0,3,3,3,1,1,245.74177130000317,None,['3'],1,[0.6233930999878794],245.74177130000317,None,,001,2022_Apr_29_1103,TMT_practice,2021.2.3,141.50436120379786,
3,['1'],1,TMTstop-B_1_plinestimulus2.png,TMTstop-B_1_pgreenlinestimulus2.png,TMTstop-B_1_predlinestimulus2.png,10,,,,,,,,,0,4,4,4,1,1,246.44365790000302,None,['1'],1,[1.194864699995378],246.44365790000302,None,,001,2022_Apr_29_1103,TMT_practice,2021.2.3,141.50436120379786,
C,['3'],3,TMTstop-B_1_plinestimulus3.png,TMTstop-B_1_pgreenlinestimulus3.png,TMTstop-B_1_predlinestimulus3.png,10,,,,,,,,,0,5,5,5,1,1,247.7212537000014,None,['3'],1,[0.6187493999896105],247.7212537000014,None,,001,2022_Apr_29_1103,TMT_practice,2021.2.3,141.50436120379786,
4,['1'],1,TMTstop-B_1_plinestimulus4.png,TMTstop-B_1_pgreenlinestimulus4.png,TMTstop-B_1_predlinestimulus4.png,10,,,,,,,,,0,6,6,6,1,1,248.4224543000164,None,['1'],1,[5.495339400018565],248.4224543000164,None,,001,2022_Apr_29_1103,TMT_practice,2021.2.3,141.50436120379786,
D,['3'],3,TMTstop-B_1_plinestimulus5.png,TMTstop-B_1_pgreenlinestimulus5.png,TMTstop-B_1_predlinestimulus5.png,10,,,,,,,,,0,7,7,7,1,1,254.00551049999194,None,['3'],1,[3.0632594999915455],254.00551049999194,None,,001,2022_Apr_29_1103,TMT_practice,2021.2.3,141.50436120379786,
5,['2'],2,TMTstop-B_1_plinestimulus6.png,TMTstop-B_1_pgreenlinestimulus6.png,TMTstop-B_1_predlinestimulus6.png,10,,,,,,,,,0,8,8,8,1,1,257.1515854000172,None,['2'],1,[2.636612200003583],257.1515854000172,None,,001,2022_Apr_29_1103,TMT_practice,2021.2.3,141.50436120379786,
E,['1'],1,TMTstop-B_1_plinestimulus7.png,TMTstop-B_1_pgreenlinestimulus7.png,TMTstop-B_1_predlinestimulus7.png,10,,,,,,,,,0,9,9,9,1,1,259.873742900003,None,['1'],1,[1.6327632000029553],259.873742900003,None,,001,2022_Apr_29_1103,TMT_practice,2021.2.3,141.50436120379786,
6,['3'],3,TMTstop-B_1_plinestimulus8.png,TMTstop-B_1_pgreenlinestimulus8.png,TMTstop-B_1_predlinestimulus8.png,10,,,,,,,,,0,10,10,10,1,1,261.595759000018,None,['3'],1,[1.6752454999950714],261.595759000018,None,,001,2022_Apr_29_1103,TMT_practice,2021.2.3,141.50436120379786,
F,['1'],1,TMTstop-B_1_plinestimulus9.png,TMTstop-B_1_pgreenlinestimulus9.png,TMTstop-B_1_predlinestimulus9.png,10,,,,,,,,,0,11,11,11,1,1,263.41175040000235,None,['1'],1,[0.9875208000012208],263.41175040000235,None,,001,2022_Apr_29_1103,TMT_practice,2021.2.3,141.50436120379786,
7,['3'],3,TMTstop-B_1_plinestimulus10.png,TMTstop-B_1_pgreenlinestimulus10.png,TMTstop-B_1_predlinestimulus10.png,1,,,,,,,,,0,12,12,12,1,1,264.4867763000075,None,['3'],1,[1.1452289000153542],264.4867763000075,None,,001,2022_Apr_29_1103,TMT_practice,2021.2.3,141.50436120379786,
G,['1'],1,TMTstop-B_1_plinestimulus11.png,TMTstop-B_1_pgreenlinestimulus11.png,TMTstop-B_1_predlinestimulus11.png,None,,,,,,,,,0,13,13,13,1,1,265.72100469999714,None,['1'],1,[0.9873648000066169],265.72100469999714,None,,001,2022_Apr_29_1103,TMT_practice,2021.2.3,141.50436120379786,
8,['2'],2,TMTstop-B_1_plinestimulus12.png,TMTstop-B_1_pgreenlinestimulus12.png,TMTstop-B_1_predlinestimulus12.png,None,,,,,,,,,0,14,14,14,2,0,266.7970600000117,None,"['3', '2']",1,"[1.4480842000048142, 2.217376200016588]",266.7970600000117,None,,001,2022_Apr_29_1103,TMT_practice,2021.2.3,141.50436120379786,
H,['3'],3,TMTstop-B_1_plinestimulus13.png,TMTstop-B_1_pgreenlinestimulus13.png,TMTstop-B_1_predlinestimulus13.png,None,,,,,,,,,0,15,15,15,1,1,269.1810289999994,None,['3'],1,[3.3200998999818694],269.1810289999994,None,,001,2022_Apr_29_1103,TMT_practice,2021.2.3,141.50436120379786,
9,['2'],2,TMTstop-B_1_plinestimulus14.png,TMTstop-B_1_pgreenlinestimulus14.png,TMTstop-B_1_predlinestimulus14.png,None,,,,,,,,,0,16,16,16,1,1,272.5892817999993,None,['2'],1,[0.9660664000257384],272.5892817999993,None,,001,2022_Apr_29_1103,TMT_practice,2021.2.3,141.50436120379786,
I,['3'],3,TMTstop-B_1_plinestimulus15.png,TMTstop-B_1_pgreenlinestimulus15.png,TMTstop-B_1_predlinestimulus15.png,None,,,,,,,,,0,17,17,17,1,1,273.660690299992,None,['3'],1,[2.994174799998291],273.660690299992,None,,001,2022_Apr_29_1103,TMT_practice,2021.2.3,141.50436120379786,
10,['1'],1,TMTstop-B_1_plinestimulus16.png,TMTstop-B_1_pgreenlinestimulus16.png,TMTstop-B_1_predlinestimulus16.png,None,,,,,,,,,0,18,18,18,1,1,276.7497790000052,None,['1'],1,[1.92086919999565],276.7497790000052,None,,001,2022_Apr_29_1103,TMT_practice,2021.2.3,141.50436120379786,
J,['3'],3,TMTstop-B_1_plinestimulus17.png,TMTstop-B_1_pgreenlinestimulus17.png,TMTstop-B_1_predlinestimulus17.png,None,,,,,,,,,0,19,19,19,1,1,278.74889200000325,None,['3'],1,[1.4221019999822602],278.74889200000325,None,,001,2022_Apr_29_1103,TMT_practice,2021.2.3,141.50436120379786,
11,['1'],1,TMTstop-B_1_plinestimulus18.png,TMTstop-B_1_pgreenlinestimulus18.png,TMTstop-B_1_predlinestimulus18.png,None,,,,,,,,,0,20,20,20,1,1,280.2635355000093,None,['1'],1,[1.4884349000058137],280.2635355000093,None,,001,2022_Apr_29_1103,TMT_practice,2021.2.3,141.50436120379786,
K,['3'],3,TMTstop-B_1_plinestimulus19.png,TMTstop-B_1_pgreenlinestimulus19.png,TMTstop-B_1_predlinestimulus19.png,None,,,,,,,,,0,21,21,21,1,1,281.838264799997,None,['3'],1,[2.1782185999909416],281.838264799997,None,,001,2022_Apr_29_1103,TMT_practice,2021.2.3,141.50436120379786,
12,['1'],1,TMTstop-B_1_plinestimulus20.png,TMTstop-B_1_pgreenlinestimulus20.png,TMTstop-B_1_predlinestimulus20.png,None,,,,,,,,,0,22,22,22,1,1,284.1102779000066,None,['1'],1,[1.4441808999981731],284.1102779000066,None,,001,2022_Apr_29_1103,TMT_practice,2021.2.3,141.50436120379786,
L,['2'],2,TMTstop-B_1_plinestimulus21.png,TMTstop-B_1_pgreenlinestimulus21.png,TMTstop-B_1_predlinestimulus21.png,None,,,,,,,,,0,23,23,23,1,1,285.65911710000364,None,['2'],1,[4.697611300012795],285.65911710000364,None,,001,2022_Apr_29_1103,TMT_practice,2021.2.3,141.50436120379786,
13,['3'],3,TMTstop-B_1_plinestimulus22.png,TMTstop-B_1_pgreenlinestimulus22.png,TMTstop-B_1_predlinestimulus22.png,None,,,,,,,,,0,24,24,24,1,1,290.49249160001636,None,['3'],1,[1.3690877000044566],290.49249160001636,None,,001,2022_Apr_29_1103,TMT_practice,2021.2.3,141.50436120379786,
None,None,None,TMTstop-B_1_plinestimulus23.png,TMTstop-B_1_pgreenlinestimulus23.png,TMTstop-B_1_predlinestimulus23.png,None,,,,,,,,,0,25,25,25,0,0,291.9708071000059,None,None,1,,291.9708071000059,None,,001,2022_Apr_29_1103,TMT_practice,2021.2.3,141.50436120379786,
