NumberLetter,corrAns,Correct,StimFile,Correct_StimFile,False_StimFile,DurationTrial,trials_TMTControl.thisRepN,trials_TMTControl.thisTrialN,trials_TMTControl.thisN,trials_TMTControl.thisIndex,trials_TMTA.thisRepN,trials_TMTA.thisTrialN,trials_TMTA.thisN,trials_TMTA.thisIndex,trials_TMTB.thisRepN,trials_TMTB.thisTrialN,trials_TMTB.thisN,trials_TMTB.thisIndex,Attempts,First_attempt,Stim.started,Stim.stopped,key_resp_2.keys,key_resp_2.corr,key_resp_2.rt,key_resp_2.started,key_resp_2.stopped,participant,session,date,expName,psychopyVersion,frameRate,
1,['2'],2,TMTstop-control_1_p.png,TMTstop-control_1_p.png,TMTstop-control_1_p.png,10,0,0,0,0,,,,,,,,,1,1,184.8193270000047,None,['2'],1,[2.1392139000090538],184.8193270000047,None,test1,001,2022_May_05_1316,TMT_practice,2021.2.3,144.98216720532972,
2,['1'],1,TMTstop-control_1_p.png,TMTstop-control_1_pfirstgreen.png,TMTstop-control_1_pfirstred.png,10,0,1,1,1,,,,,,,,,1,1,187.11210779999965,None,['1'],1,[0.5448819000012008],187.11210779999965,None,test1,001,2022_May_05_1316,TMT_practice,2021.2.3,144.98216720532972,
3,['3'],3,TMTstop-control_1_plinestimulus0.png,TMTstop-control_1_pgreenlinestimulus0.png,TMTstop-control_1_predlinestimulus0.png,10,0,2,2,2,,,,,,,,,1,1,187.74527959999978,None,['3'],1,[0.7711052999948151],187.74527959999978,None,test1,001,2022_May_05_1316,TMT_practice,2021.2.3,144.98216720532972,
4,['1'],1,TMTstop-control_1_plinestimulus1.png,TMTstop-control_1_pgreenlinestimulus1.png,TMTstop-control_1_predlinestimulus1.png,10,0,3,3,3,,,,,,,,,1,1,188.59860909999406,None,['1'],1,[0.6843661000020802],188.59860909999406,None,test1,001,2022_May_05_1316,TMT_practice,2021.2.3,144.98216720532972,
5,['3'],3,TMTstop-control_1_plinestimulus2.png,TMTstop-control_1_pgreenlinestimulus2.png,TMTstop-control_1_predlinestimulus2.png,10,0,4,4,4,,,,,,,,,1,1,189.3680086999957,None,['3'],1,[0.6759263999992982],189.3680086999957,None,test1,001,2022_May_05_1316,TMT_practice,2021.2.3,144.98216720532972,
6,['1'],1,TMTstop-control_1_plinestimulus3.png,TMTstop-control_1_pgreenlinestimulus3.png,TMTstop-control_1_predlinestimulus3.png,10,0,5,5,5,,,,,,,,,1,1,190.15099219999684,None,['1'],1,[0.2949480999959633],190.15099219999684,None,test1,001,2022_May_05_1316,TMT_practice,2021.2.3,144.98216720532972,
7,['3'],3,TMTstop-control_1_plinestimulus4.png,TMTstop-control_1_pgreenlinestimulus4.png,TMTstop-control_1_predlinestimulus4.png,10,0,6,6,6,,,,,,,,,1,1,190.55731950000336,None,['3'],1,[0.25953960001061205],190.55731950000336,None,test1,001,2022_May_05_1316,TMT_practice,2021.2.3,144.98216720532972,
8,['1'],1,TMTstop-control_1_plinestimulus4.png,TMTstop-control_1_pgreenlinestimulus5.png,TMTstop-control_1_predlinestimulus5.png,10,0,7,7,7,,,,,,,,,1,1,190.90499609999824,None,['1'],1,[0.2955075000063516],190.90499609999824,None,test1,001,2022_May_05_1316,TMT_practice,2021.2.3,144.98216720532972,
9,['2'],2,TMTstop-control_1_plinestimulus6.png,TMTstop-control_1_pgreenlinestimulus6.png,TMTstop-control_1_predlinestimulus6.png,10,0,8,8,8,,,,,,,,,1,1,191.3383601999958,None,['2'],1,[0.6873431999993045],191.3383601999958,None,test1,001,2022_May_05_1316,TMT_practice,2021.2.3,144.98216720532972,
10,['3'],3,TMTstop-control_1_plinestimulus7.png,TMTstop-control_1_pgreenlinestimulus7.png,TMTstop-control_1_predlinestimulus7.png,10,0,9,9,9,,,,,,,,,1,1,192.13416400000278,None,['3'],1,[0.5086455000127899],192.13416400000278,None,test1,001,2022_May_05_1316,TMT_practice,2021.2.3,144.98216720532972,
11,['2'],2,TMTstop-control_1_plinestimulus8.png,TMTstop-control_1_pgreenlinestimulus8.png,TMTstop-control_1_predlinestimulus8.png,10,0,10,10,10,,,,,,,,,1,1,192.77250300000014,None,['2'],1,[0.4531468999921344],192.77250300000014,None,test1,001,2022_May_05_1316,TMT_practice,2021.2.3,144.98216720532972,
12,['3'],3,TMTstop-control_1_plinestimulus9.png,TMTstop-control_1_pgreenlinestimulus9.png,TMTstop-control_1_predlinestimulus9.png,10,0,11,11,11,,,,,,,,,2,0,193.31088979999186,None,"['1', '3']",1,"[0.18615199999476317, 1.026858999990509]",193.31088979999186,None,test1,001,2022_May_05_1316,TMT_practice,2021.2.3,144.98216720532972,
13,['1'],1,TMTstop-control_1_plinestimulus10.png,TMTstop-control_1_pgreenlinestimulus10.png,TMTstop-control_1_predlinestimulus10.png,1,0,12,12,12,,,,,,,,,1,1,194.50043420000293,None,['1'],1,[1.227809799995157],194.50043420000293,None,test1,001,2022_May_05_1316,TMT_practice,2021.2.3,144.98216720532972,
14,['2'],2,TMTstop-control_1_plinestimulus11.png,TMTstop-control_1_pgreenlinestimulus11.png,TMTstop-control_1_predlinestimulus11.png,None,0,13,13,13,,,,,,,,,1,1,195.81624810000358,None,['2'],1,[0.6366688999987673],195.81624810000358,None,test1,001,2022_May_05_1316,TMT_practice,2021.2.3,144.98216720532972,
15,['3'],3,TMTstop-control_1_plinestimulus12.png,TMTstop-control_1_pgreenlinestimulus12.png,TMTstop-control_1_predlinestimulus12.png,None,0,14,14,14,,,,,,,,,1,1,196.54162190000352,None,['3'],1,[0.34927109999989625],196.54162190000352,None,test1,001,2022_May_05_1316,TMT_practice,2021.2.3,144.98216720532972,
16,['1'],1,TMTstop-control_1_plinestimulus13.png,TMTstop-control_1_pgreenlinestimulus13.png,TMTstop-control_1_predlinestimulus13.png,None,0,15,15,15,,,,,,,,,1,1,196.976808899999,None,['1'],1,[0.490619100004551],196.976808899999,None,test1,001,2022_May_05_1316,TMT_practice,2021.2.3,144.98216720532972,
17,['3'],3,TMTstop-control_1_plinestimulus14.png,TMTstop-control_1_pgreenlinestimulus14.png,TMTstop-control_1_predlinestimulus14.png,None,0,16,16,16,,,,,,,,,1,1,197.55183870000474,None,['3'],1,[0.2811805999954231],197.55183870000474,None,test1,001,2022_May_05_1316,TMT_practice,2021.2.3,144.98216720532972,
18,['1'],1,TMTstop-control_1_plinestimulus15.png,TMTstop-control_1_pgreenlinestimulus15.png,TMTstop-control_1_predlinestimulus15.png,None,0,17,17,17,,,,,,,,,1,1,197.92772059999697,None,['1'],1,[0.2178155000001425],197.92772059999697,None,test1,001,2022_May_05_1316,TMT_practice,2021.2.3,144.98216720532972,
19,['3'],3,TMTstop-control_1_plinestimulus16.png,TMTstop-control_1_pgreenlinestimulus16.png,TMTstop-control_1_predlinestimulus16.png,None,0,18,18,18,,,,,,,,,1,1,198.23001790000126,None,['3'],1,[0.24129289999837056],198.23001790000126,None,test1,001,2022_May_05_1316,TMT_practice,2021.2.3,144.98216720532972,
20,['2'],2,TMTstop-control_1_plinestimulus17.png,TMTstop-control_1_pgreenlinestimulus17.png,TMTstop-control_1_predlinestimulus17.png,None,0,19,19,19,,,,,,,,,2,0,198.55530359999102,None,"['1', '2']",1,"[0.26680019999912474, 0.8783991999953287]",198.55530359999102,None,test1,001,2022_May_05_1316,TMT_practice,2021.2.3,144.98216720532972,
21,['1'],1,TMTstop-control_1_plinestimulus18.png,TMTstop-control_1_pgreenlinestimulus18.png,TMTstop-control_1_predlinestimulus18.png,None,0,20,20,20,,,,,,,,,1,1,199.54093780000403,None,['1'],1,[0.5792258000001311],199.54093780000403,None,test1,001,2022_May_05_1316,TMT_practice,2021.2.3,144.98216720532972,
22,['3'],3,TMTstop-control_1_plinestimulus19.png,TMTstop-control_1_pgreenlinestimulus19.png,TMTstop-control_1_predlinestimulus19.png,None,0,21,21,21,,,,,,,,,1,1,200.21091969999543,None,['3'],1,[0.19796869999845512],200.21091969999543,None,test1,001,2022_May_05_1316,TMT_practice,2021.2.3,144.98216720532972,
23,['2'],2,TMTstop-control_1_plinestimulus20.png,TMTstop-control_1_pgreenlinestimulus20.png,TMTstop-control_1_predlinestimulus20.png,None,0,22,22,22,,,,,,,,,1,1,200.49628069999744,None,['2'],1,[0.34004160000768024],200.49628069999744,None,test1,001,2022_May_05_1316,TMT_practice,2021.2.3,144.98216720532972,
24,['1'],1,TMTstop-control_1_plinestimulus21.png,TMTstop-control_1_pgreenlinestimulus21.png,TMTstop-control_1_predlinestimulus21.png,None,0,23,23,23,,,,,,,,,1,1,200.9233733000001,None,['1'],1,[0.3702616000082344],200.9233733000001,None,test1,001,2022_May_05_1316,TMT_practice,2021.2.3,144.98216720532972,
25,['3'],3,TMTstop-control_1_plinestimulus22.png,TMTstop-control_1_pgreenlinestimulus22.png,TMTstop-control_1_predlinestimulus22.png,None,0,24,24,24,,,,,,,,,1,1,201.38867610000307,None,['3'],1,[0.47770060000766534],201.38867610000307,None,test1,001,2022_May_05_1316,TMT_practice,2021.2.3,144.98216720532972,
None,None,None,TMTstop-control_1_plinestimulus23.png,TMTstop-control_1_pgreenlinestimulus23.png,TMTstop-control_1_predlinestimulus23.png,None,0,25,25,25,,,,,,,,,1,1,201.95160689999466,None,['2'],0,[0.6136034000082873],201.95160689999466,None,test1,001,2022_May_05_1316,TMT_practice,2021.2.3,144.98216720532972,
1,['3'],3,TMTstop-A_1_p.png,TMTstop-A_1_p.png,TMTstop-A_1_p.png,10,,,,,0,0,0,0,,,,,1,1,227.50683289999142,None,['3'],1,[2.0027897999971174],227.50683289999142,None,test1,001,2022_May_05_1316,TMT_practice,2021.2.3,144.98216720532972,
2,['1'],1,TMTstop-A_1_p.png,TMTstop-A_1_pfirstgreen.png,TMTstop-A_1_pfirstred.png,10,,,,,0,1,1,1,,,,,1,1,229.6402878999943,None,['1'],1,[3.055691999994451],229.6402878999943,None,test1,001,2022_May_05_1316,TMT_practice,2021.2.3,144.98216720532972,
3,['2'],2,TMTstop-A_1_plinestimulus0.png,TMTstop-A_1_pgreenlinestimulus0.png,TMTstop-A_1_predlinestimulus0.png,10,,,,,0,2,2,2,,,,,1,1,232.8255627000035,None,['2'],1,[1.0662345000018831],232.8255627000035,None,test1,001,2022_May_05_1316,TMT_practice,2021.2.3,144.98216720532972,
4,['1'],1,TMTstop-A_1_plinestimulus1.png,TMTstop-A_1_pgreenlinestimulus1.png,TMTstop-A_1_predlinestimulus1.png,10,,,,,0,3,3,3,,,,,1,1,233.9828373999917,None,['1'],1,[1.037419600004796],233.9828373999917,None,test1,001,2022_May_05_1316,TMT_practice,2021.2.3,144.98216720532972,
5,['2'],2,TMTstop-A_1_plinestimulus2.png,TMTstop-A_1_pgreenlinestimulus2.png,TMTstop-A_1_predlinestimulus2.png,10,,,,,0,4,4,4,,,,,1,1,235.1195996000024,None,['2'],1,[2.0931621000054292],235.1195996000024,None,test1,001,2022_May_05_1316,TMT_practice,2021.2.3,144.98216720532972,
6,['1'],1,TMTstop-A_1_plinestimulus3.png,TMTstop-A_1_pgreenlinestimulus3.png,TMTstop-A_1_predlinestimulus3.png,10,,,,,0,5,5,5,,,,,1,1,237.2964512000035,None,['1'],1,[0.8127657000004547],237.2964512000035,None,test1,001,2022_May_05_1316,TMT_practice,2021.2.3,144.98216720532972,
7,['2'],2,TMTstop-A_1_plinestimulus4.png,TMTstop-A_1_pgreenlinestimulus4.png,TMTstop-A_1_predlinestimulus4.png,10,,,,,0,6,6,6,,,,,1,1,238.21281060000183,None,['2'],1,[0.6074151000066195],238.21281060000183,None,test1,001,2022_May_05_1316,TMT_practice,2021.2.3,144.98216720532972,
8,['1'],1,TMTstop-A_1_plinestimulus5.png,TMTstop-A_1_pgreenlinestimulus5.png,TMTstop-A_1_predlinestimulus5.png,10,,,,,0,7,7,7,,,,,1,1,238.90877520000504,None,['1'],1,[0.9275179999967804],238.90877520000504,None,test1,001,2022_May_05_1316,TMT_practice,2021.2.3,144.98216720532972,
9,['2'],2,TMTstop-A_1_plinestimulus6.png,TMTstop-A_1_pgreenlinestimulus6.png,TMTstop-A_1_predlinestimulus6.png,10,,,,,0,8,8,8,,,,,1,1,239.92661090000183,None,['2'],1,[0.7335153000021819],239.92661090000183,None,test1,001,2022_May_05_1316,TMT_practice,2021.2.3,144.98216720532972,
10,['1'],1,TMTstop-A_1_plinestimulus7.png,TMTstop-A_1_pgreenlinestimulus7.png,TMTstop-A_1_predlinestimulus7.png,10,,,,,0,9,9,9,,,,,1,1,240.77455889999692,None,['1'],1,[1.0705355999962194],240.77455889999692,None,test1,001,2022_May_05_1316,TMT_practice,2021.2.3,144.98216720532972,
11,['2'],2,TMTstop-A_1_plinestimulus8.png,TMTstop-A_1_pgreenlinestimulus8.png,TMTstop-A_1_predlinestimulus8.png,10,,,,,0,10,10,10,,,,,1,1,241.93947650000337,None,['2'],1,[0.533879499998875],241.93947650000337,None,test1,001,2022_May_05_1316,TMT_practice,2021.2.3,144.98216720532972,
12,['1'],1,TMTstop-A_1_plinestimulus9.png,TMTstop-A_1_pgreenlinestimulus9.png,TMTstop-A_1_predlinestimulus9.png,10,,,,,0,11,11,11,,,,,1,1,242.56911480000417,None,['1'],1,[0.858874300000025],242.56911480000417,None,test1,001,2022_May_05_1316,TMT_practice,2021.2.3,144.98216720532972,
13,['2'],2,TMTstop-A_1_plinestimulus10.png,TMTstop-A_1_pgreenlinestimulus10.png,TMTstop-A_1_predlinestimulus10.png,1,,,,,0,12,12,12,,,,,1,1,243.54226610000478,None,['2'],1,[1.4342246999876807],243.54226610000478,None,test1,001,2022_May_05_1316,TMT_practice,2021.2.3,144.98216720532972,
14,['3'],3,TMTstop-A_1_plinestimulus11.png,TMTstop-A_1_pgreenlinestimulus11.png,TMTstop-A_1_predlinestimulus11.png,None,,,,,0,13,13,13,,,,,1,1,245.12017999999807,None,['3'],1,[0.4348390999948606],245.12017999999807,None,test1,001,2022_May_05_1316,TMT_practice,2021.2.3,144.98216720532972,
15,['1'],1,TMTstop-A_1_plinestimulus12.png,TMTstop-A_1_pgreenlinestimulus12.png,TMTstop-A_1_predlinestimulus12.png,None,,,,,0,14,14,14,,,,,1,1,245.7376676999993,None,['1'],1,[0.5089994000009028],245.7376676999993,None,test1,001,2022_May_05_1316,TMT_practice,2021.2.3,144.98216720532972,
16,['3'],3,TMTstop-A_1_plinestimulus13.png,TMTstop-A_1_pgreenlinestimulus13.png,TMTstop-A_1_predlinestimulus13.png,None,,,,,0,15,15,15,,,,,1,1,246.39211000000068,None,['3'],1,[0.7429431000055047],246.39211000000068,None,test1,001,2022_May_05_1316,TMT_practice,2021.2.3,144.98216720532972,
17,['1'],1,TMTstop-A_1_plinestimulus14.png,TMTstop-A_1_pgreenlinestimulus14.png,TMTstop-A_1_predlinestimulus14.png,None,,,,,0,16,16,16,,,,,1,1,247.25931789999595,None,['1'],1,[0.2865985999960685],247.25931789999595,None,test1,001,2022_May_05_1316,TMT_practice,2021.2.3,144.98216720532972,
18,['2'],2,TMTstop-A_1_plinestimulus15.png,TMTstop-A_1_pgreenlinestimulus15.png,TMTstop-A_1_predlinestimulus15.png,None,,,,,0,17,17,17,,,,,1,1,247.67484839999815,None,['2'],1,[0.5095531999977538],247.67484839999815,None,test1,001,2022_May_05_1316,TMT_practice,2021.2.3,144.98216720532972,
19,['3'],3,TMTstop-A_1_plinestimulus16.png,TMTstop-A_1_pgreenlinestimulus16.png,TMTstop-A_1_predlinestimulus16.png,None,,,,,0,18,18,18,,,,,1,1,248.29863570000452,None,['3'],1,[0.8439790999982506],248.29863570000452,None,test1,001,2022_May_05_1316,TMT_practice,2021.2.3,144.98216720532972,
20,['2'],2,TMTstop-A_1_plinestimulus17.png,TMTstop-A_1_pgreenlinestimulus17.png,TMTstop-A_1_predlinestimulus17.png,None,,,,,0,19,19,19,,,,,1,1,249.22665260000213,None,['2'],1,[0.4392426999984309],249.22665260000213,None,test1,001,2022_May_05_1316,TMT_practice,2021.2.3,144.98216720532972,
21,['3'],3,TMTstop-A_1_plinestimulus18.png,TMTstop-A_1_pgreenlinestimulus18.png,TMTstop-A_1_predlinestimulus18.png,None,,,,,0,20,20,20,,,,,1,1,249.78502260000096,None,['3'],1,[0.7790538999979617],249.78502260000096,None,test1,001,2022_May_05_1316,TMT_practice,2021.2.3,144.98216720532972,
22,['1'],1,TMTstop-A_1_plinestimulus19.png,TMTstop-A_1_pgreenlinestimulus19.png,TMTstop-A_1_predlinestimulus19.png,None,,,,,0,21,21,21,,,,,1,1,250.6820044000051,None,['1'],1,[0.7147269999986747],250.6820044000051,None,test1,001,2022_May_05_1316,TMT_practice,2021.2.3,144.98216720532972,
23,['2'],2,TMTstop-A_1_plinestimulus20.png,TMTstop-A_1_pgreenlinestimulus20.png,TMTstop-A_1_predlinestimulus20.png,None,,,,,0,22,22,22,,,,,1,1,251.4946246000036,None,['2'],1,[0.6680844999937108],251.4946246000036,None,test1,001,2022_May_05_1316,TMT_practice,2021.2.3,144.98216720532972,
24,['3'],3,TMTstop-A_1_plinestimulus21.png,TMTstop-A_1_pgreenlinestimulus21.png,TMTstop-A_1_predlinestimulus21.png,None,,,,,0,23,23,23,,,,,1,1,252.25343460000295,None,['3'],1,[1.435202799999388],252.25343460000295,None,test1,001,2022_May_05_1316,TMT_practice,2021.2.3,144.98216720532972,
25,['2'],2,TMTstop-A_1_plinestimulus22.png,TMTstop-A_1_pgreenlinestimulus22.png,TMTstop-A_1_predlinestimulus22.png,None,,,,,0,24,24,24,,,,,1,1,253.78457360000175,None,['2'],1,[0.9517732999956934],253.78457360000175,None,test1,001,2022_May_05_1316,TMT_practice,2021.2.3,144.98216720532972,
None,None,None,TMTstop-A_1_plinestimulus23.png,TMTstop-A_1_pgreenlinestimulus23.png,TMTstop-A_1_predlinestimulus23.png,None,,,,,0,25,25,25,,,,,0,0,254.83459879999282,None,None,1,,254.83459879999282,None,test1,001,2022_May_05_1316,TMT_practice,2021.2.3,144.98216720532972,
1,['3'],3,TMTstop-B_1_p.png,TMTstop-B_1_p.png,TMTstop-B_1_p.png,10,,,,,,,,,0,0,0,0,1,1,280.50365749999764,None,['3'],1,[1.254747299986775],280.50365749999764,None,test1,001,2022_May_05_1316,TMT_practice,2021.2.3,144.98216720532972,
A,['1'],1,TMTstop-B_1_p.png,TMTstop-B_1_pfirstgreen.png,TMTstop-B_1_pfirstred.png,10,,,,,,,,,0,1,1,1,1,1,281.85635619999084,None,['1'],1,[0.7224036999978125],281.85635619999084,None,test1,001,2022_May_05_1316,TMT_practice,2021.2.3,144.98216720532972,
2,['2'],2,TMTstop-B_1_plinestimulus0.png,TMTstop-B_1_pgreenlinestimulus0.png,TMTstop-B_1_predlinestimulus0.png,10,,,,,,,,,0,2,2,2,1,1,282.6645473999961,None,['2'],1,[0.5471224999928381],282.6645473999961,None,test1,001,2022_May_05_1316,TMT_practice,2021.2.3,144.98216720532972,
B,['3'],3,TMTstop-B_1_plinestimulus1.png,TMTstop-B_1_pgreenlinestimulus1.png,TMTstop-B_1_predlinestimulus1.png,10,,,,,,,,,0,3,3,3,1,1,283.3092467999959,None,['3'],1,[1.0441281999956118],283.3092467999959,None,test1,001,2022_May_05_1316,TMT_practice,2021.2.3,144.98216720532972,
3,['1'],1,TMTstop-B_1_plinestimulus2.png,TMTstop-B_1_pgreenlinestimulus2.png,TMTstop-B_1_predlinestimulus2.png,10,,,,,,,,,0,4,4,4,1,1,284.43833760000416,None,['1'],1,[0.6725912999972934],284.43833760000416,None,test1,001,2022_May_05_1316,TMT_practice,2021.2.3,144.98216720532972,
C,['3'],3,TMTstop-B_1_plinestimulus3.png,TMTstop-B_1_pgreenlinestimulus3.png,TMTstop-B_1_predlinestimulus3.png,10,,,,,,,,,0,5,5,5,1,1,285.19434970000293,None,['3'],1,[3.446020799994585],285.19434970000293,None,test1,001,2022_May_05_1316,TMT_practice,2021.2.3,144.98216720532972,
4,['1'],1,TMTstop-B_1_plinestimulus4.png,TMTstop-B_1_pgreenlinestimulus4.png,TMTstop-B_1_predlinestimulus4.png,10,,,,,,,,,0,6,6,6,1,1,288.7416167999909,None,['1'],1,[0.6708297000004677],288.7416167999909,None,test1,001,2022_May_05_1316,TMT_practice,2021.2.3,144.98216720532972,
D,['3'],3,TMTstop-B_1_plinestimulus5.png,TMTstop-B_1_pgreenlinestimulus5.png,TMTstop-B_1_predlinestimulus5.png,10,,,,,,,,,0,7,7,7,1,1,289.496341799997,None,['3'],1,[2.0884296000003815],289.496341799997,None,test1,001,2022_May_05_1316,TMT_practice,2021.2.3,144.98216720532972,
5,['2'],2,TMTstop-B_1_plinestimulus6.png,TMTstop-B_1_pgreenlinestimulus6.png,TMTstop-B_1_predlinestimulus6.png,10,,,,,,,,,0,8,8,8,1,1,291.6734809000045,None,['2'],1,[0.6988433000078658],291.6734809000045,None,test1,001,2022_May_05_1316,TMT_practice,2021.2.3,144.98216720532972,
E,['1'],1,TMTstop-B_1_plinestimulus7.png,TMTstop-B_1_pgreenlinestimulus7.png,TMTstop-B_1_predlinestimulus7.png,10,,,,,,,,,0,9,9,9,1,1,292.44989319999877,None,['1'],1,[1.1600221999979112],292.44989319999877,None,test1,001,2022_May_05_1316,TMT_practice,2021.2.3,144.98216720532972,
6,['3'],3,TMTstop-B_1_plinestimulus8.png,TMTstop-B_1_pgreenlinestimulus8.png,TMTstop-B_1_predlinestimulus8.png,10,,,,,,,,,0,10,10,10,1,1,293.6940537999908,None,['3'],1,[1.7838628000026802],293.6940537999908,None,test1,001,2022_May_05_1316,TMT_practice,2021.2.3,144.98216720532972,
F,['1'],1,TMTstop-B_1_plinestimulus9.png,TMTstop-B_1_pgreenlinestimulus9.png,TMTstop-B_1_predlinestimulus9.png,10,,,,,,,,,0,11,11,11,1,1,295.57660549999855,None,['1'],1,[0.4460862999985693],295.57660549999855,None,test1,001,2022_May_05_1316,TMT_practice,2021.2.3,144.98216720532972,
7,['3'],3,TMTstop-B_1_plinestimulus10.png,TMTstop-B_1_pgreenlinestimulus10.png,TMTstop-B_1_predlinestimulus10.png,1,,,,,,,,,0,12,12,12,1,1,296.1191637000011,None,['3'],1,[3.607632900006138],296.1191637000011,None,test1,001,2022_May_05_1316,TMT_practice,2021.2.3,144.98216720532972,
G,['1'],1,TMTstop-B_1_plinestimulus11.png,TMTstop-B_1_pgreenlinestimulus11.png,TMTstop-B_1_predlinestimulus11.png,None,,,,,,,,,0,13,13,13,1,1,299.8124977999978,None,['1'],1,[0.5607457000005525],299.8124977999978,None,test1,001,2022_May_05_1316,TMT_practice,2021.2.3,144.98216720532972,
8,['2'],2,TMTstop-B_1_plinestimulus12.png,TMTstop-B_1_pgreenlinestimulus12.png,TMTstop-B_1_predlinestimulus12.png,None,,,,,,,,,0,14,14,14,2,0,300.4688063999929,None,"['3', '2']",1,"[1.2143403999943985, 2.6851089999981923]",300.4688063999929,None,test1,001,2022_May_05_1316,TMT_practice,2021.2.3,144.98216720532972,
H,['3'],3,TMTstop-B_1_plinestimulus13.png,TMTstop-B_1_pgreenlinestimulus13.png,TMTstop-B_1_predlinestimulus13.png,None,,,,,,,,,0,15,15,15,1,1,303.30305950000184,None,['3'],1,[0.5068905999942217],303.30305950000184,None,test1,001,2022_May_05_1316,TMT_practice,2021.2.3,144.98216720532972,
9,['2'],2,TMTstop-B_1_plinestimulus14.png,TMTstop-B_1_pgreenlinestimulus14.png,TMTstop-B_1_predlinestimulus14.png,None,,,,,,,,,0,16,16,16,1,1,303.9087170999992,None,['2'],1,[2.161701200006064],303.9087170999992,None,test1,001,2022_May_05_1316,TMT_practice,2021.2.3,144.98216720532972,
I,['3'],3,TMTstop-B_1_plinestimulus15.png,TMTstop-B_1_pgreenlinestimulus15.png,TMTstop-B_1_predlinestimulus15.png,None,,,,,,,,,0,17,17,17,1,1,306.1917736000032,None,['3'],1,[0.5022504000080517],306.1917736000032,None,test1,001,2022_May_05_1316,TMT_practice,2021.2.3,144.98216720532972,
10,['1'],1,TMTstop-B_1_plinestimulus16.png,TMTstop-B_1_pgreenlinestimulus16.png,TMTstop-B_1_predlinestimulus16.png,None,,,,,,,,,0,18,18,18,2,0,306.8057778999937,None,"['3', '1']",1,"[1.2354531000019051, 3.1781198999960907]",306.8057778999937,None,test1,001,2022_May_05_1316,TMT_practice,2021.2.3,144.98216720532972,
J,['3'],3,TMTstop-B_1_plinestimulus17.png,TMTstop-B_1_pgreenlinestimulus17.png,TMTstop-B_1_predlinestimulus17.png,None,,,,,,,,,0,19,19,19,1,1,310.07665600000473,None,['3'],1,[0.5073655999876792],310.07665600000473,None,test1,001,2022_May_05_1316,TMT_practice,2021.2.3,144.98216720532972,
11,['1'],1,TMTstop-B_1_plinestimulus18.png,TMTstop-B_1_pgreenlinestimulus18.png,TMTstop-B_1_predlinestimulus18.png,None,,,,,,,,,0,20,20,20,1,1,310.7041775999969,None,['1'],1,[1.829036899987841],310.7041775999969,None,test1,001,2022_May_05_1316,TMT_practice,2021.2.3,144.98216720532972,
K,['3'],3,TMTstop-B_1_plinestimulus19.png,TMTstop-B_1_pgreenlinestimulus19.png,TMTstop-B_1_predlinestimulus19.png,None,,,,,,,,,0,21,21,21,1,1,312.61866089999967,None,['3'],1,[1.2382538999954704],312.61866089999967,None,test1,001,2022_May_05_1316,TMT_practice,2021.2.3,144.98216720532972,
12,['1'],1,TMTstop-B_1_plinestimulus20.png,TMTstop-B_1_pgreenlinestimulus20.png,TMTstop-B_1_predlinestimulus20.png,None,,,,,,,,,0,22,22,22,1,1,313.9387346000003,None,['1'],1,[2.6065859999944223],313.9387346000003,None,test1,001,2022_May_05_1316,TMT_practice,2021.2.3,144.98216720532972,
L,['2'],2,TMTstop-B_1_plinestimulus21.png,TMTstop-B_1_pgreenlinestimulus21.png,TMTstop-B_1_predlinestimulus21.png,None,,,,,,,,,0,23,23,23,1,1,316.6384585999913,None,['2'],1,[0.49946779999299906],316.6384585999913,None,test1,001,2022_May_05_1316,TMT_practice,2021.2.3,144.98216720532972,
13,['3'],3,TMTstop-B_1_plinestimulus22.png,TMTstop-B_1_pgreenlinestimulus22.png,TMTstop-B_1_predlinestimulus22.png,None,,,,,,,,,0,24,24,24,1,1,317.25134740000067,None,['3'],1,[0.31225519999861717],317.25134740000067,None,test1,001,2022_May_05_1316,TMT_practice,2021.2.3,144.98216720532972,
None,None,None,TMTstop-B_1_plinestimulus23.png,TMTstop-B_1_pgreenlinestimulus23.png,TMTstop-B_1_predlinestimulus23.png,None,,,,,,,,,0,25,25,25,0,0,317.6514423000044,None,None,1,,317.6514423000044,None,test1,001,2022_May_05_1316,TMT_practice,2021.2.3,144.98216720532972,
