Block_file,Condition_rows,NumberLetter,corrAns,Correct,StimFile,Correct_StimFile,False_StimFile,Block,TrialNumber_session,restartpractice.thisRepN,restartpractice.thisTrialN,restartpractice.thisN,restartpractice.thisIndex,trials_practice.thisRepN,trials_practice.thisTrialN,trials_practice.thisN,trials_practice.thisIndex,Blocks_loop.thisRepN,Blocks_loop.thisTrialN,Blocks_loop.thisN,Blocks_loop.thisIndex,trials.thisRepN,trials.thisTrialN,trials.thisN,trials.thisIndex,Attempts,First_attempt,Stim.started,Stim.stopped,key_resp_2.keys,key_resp_2.corr,key_resp_2.rt,key_resp_2.started,key_resp_2.stopped,participant,session,date,expName,psychopyVersion,frameRate,
TMTstop-B_1_1.xlsx,0:26,1,['2'],2,TMTstop-B_1_1.png,TMTstop-B_1_1.png,TMTstop-B_1_1.png,1,1,,,,,,,,,0,0,0,0,0,0,0,0,2,0,20.150816300185397,None,"['3', '2']",1,"[0.664995800005272, 0.6990700999740511]",20.150816300185397,None,,001,2022_Feb_02_1545,TMTAB,2021.2.3,143.18175654909592,
TMTstop-B_1_1.xlsx,0:26,A,['1'],1,TMTstop-B_1_1.png,TMTstop-B_1_1firstgreen.png,TMTstop-B_1_1firstred.png,1,2,,,,,,,,,0,0,0,0,0,1,1,1,1,1,20.943237400148064,None,['1'],1,[-0.0006599999032914639],20.943237400148064,None,,001,2022_Feb_02_1545,TMTAB,2021.2.3,143.18175654909592,
TMTstop-B_1_1.xlsx,0:26,2,['2'],2,TMTstop-B_1_1linestimulus0.png,TMTstop-B_1_1greenlinestimulus0.png,TMTstop-B_1_1redlinestimulus0.png,1,3,,,,,,,,,0,0,0,0,0,2,2,2,2,0,21.01942150015384,None,"['3', '2']",1,"[0.07419629977084696, 0.08851729985326529]",21.01942150015384,None,,001,2022_Feb_02_1545,TMTAB,2021.2.3,143.18175654909592,
TMTstop-B_1_1.xlsx,0:26,B,['1'],1,TMTstop-B_1_1linestimulus1.png,TMTstop-B_1_1greenlinestimulus1.png,TMTstop-B_1_1redlinestimulus1.png,1,4,,,,,,,,,0,0,0,0,0,3,3,3,1,1,21.213559000054374,None,['1'],1,[0.04147040005773306],21.213559000054374,None,,001,2022_Feb_02_1545,TMTAB,2021.2.3,143.18175654909592,
TMTstop-B_1_1.xlsx,0:26,3,['3'],3,TMTstop-B_1_1linestimulus2.png,TMTstop-B_1_1greenlinestimulus2.png,TMTstop-B_1_1redlinestimulus2.png,1,5,,,,,,,,,0,0,0,0,0,4,4,4,1,1,21.332452400121838,None,['3'],1,[0.07515709986910224],21.332452400121838,None,,001,2022_Feb_02_1545,TMTAB,2021.2.3,143.18175654909592,
TMTstop-B_1_1.xlsx,0:26,C,['2'],2,TMTstop-B_1_1linestimulus3.png,TMTstop-B_1_1greenlinestimulus3.png,TMTstop-B_1_1redlinestimulus3.png,1,6,,,,,,,,,0,0,0,0,0,5,5,5,1,1,21.48481549997814,None,['2'],1,[-0.06081399996764958],21.48481549997814,None,,001,2022_Feb_02_1545,TMTAB,2021.2.3,143.18175654909592,
TMTstop-B_1_1.xlsx,0:26,4,['3'],3,TMTstop-B_1_1linestimulus4.png,TMTstop-B_1_1greenlinestimulus4.png,TMTstop-B_1_1redlinestimulus4.png,1,7,,,,,,,,,0,0,0,0,0,6,6,6,2,0,21.55390499997884,None,"['1', '3']",1,"[0.023171599954366684, 0.18780299997888505]",21.55390499997884,None,,001,2022_Feb_02_1545,TMTAB,2021.2.3,143.18175654909592,
TMTstop-B_1_1.xlsx,0:26,D,['1'],1,TMTstop-B_1_1linestimulus5.png,TMTstop-B_1_1greenlinestimulus5.png,TMTstop-B_1_1redlinestimulus5.png,1,8,,,,,,,,,0,0,0,0,0,7,7,7,2,0,21.824552800040692,None,"['2', '1']",1,"[-0.05790259991772473, 0.09854670008644462]",21.824552800040692,None,,001,2022_Feb_02_1545,TMTAB,2021.2.3,143.18175654909592,
TMTstop-B_1_1.xlsx,0:26,5,['2'],2,TMTstop-B_1_1linestimulus6.png,TMTstop-B_1_1greenlinestimulus6.png,TMTstop-B_1_1redlinestimulus6.png,1,9,,,,,,,,,0,0,0,0,0,8,8,8,2,0,22.02676360006444,None,"['3', '2']",1,"[0.05843829992227256, 0.0856840000487864]",22.02676360006444,None,,001,2022_Feb_02_1545,TMTAB,2021.2.3,143.18175654909592,
TMTstop-B_1_1.xlsx,0:26,E,['3'],3,TMTstop-B_1_1linestimulus7.png,TMTstop-B_1_1greenlinestimulus7.png,TMTstop-B_1_1redlinestimulus7.png,1,10,,,,,,,,,0,0,0,0,0,9,9,9,2,0,22.213756800163537,None,"['1', '3']",1,"[0.052547400118783116, 0.23169729998335242]",22.213756800163537,None,,001,2022_Feb_02_1545,TMTAB,2021.2.3,143.18175654909592,
TMTstop-B_1_1.xlsx,0:26,6,['1'],1,TMTstop-B_1_1linestimulus8.png,TMTstop-B_1_1greenlinestimulus8.png,TMTstop-B_1_1redlinestimulus8.png,1,11,,,,,,,,,0,0,0,0,0,10,10,10,2,0,22.527615800034255,None,"['2', '1']",1,"[-0.05266540008597076, 0.09653960005380213]",22.527615800034255,None,,001,2022_Feb_02_1545,TMTAB,2021.2.3,143.18175654909592,
TMTstop-B_1_1.xlsx,0:26,F,['2'],2,TMTstop-B_1_1linestimulus9.png,TMTstop-B_1_1greenlinestimulus9.png,TMTstop-B_1_1redlinestimulus9.png,1,12,,,,,,,,,0,0,0,0,0,11,11,11,2,0,22.728449600050226,None,"['3', '2']",1,"[0.08509250008501112, 0.10074790008366108]",22.728449600050226,None,,001,2022_Feb_02_1545,TMTAB,2021.2.3,143.18175654909592,
TMTstop-B_1_1.xlsx,0:26,7,['1'],1,TMTstop-B_1_1linestimulus10.png,TMTstop-B_1_1greenlinestimulus10.png,TMTstop-B_1_1redlinestimulus10.png,1,13,,,,,,,,,0,0,0,0,0,12,12,12,1,1,22.94339959998615,None,['1'],1,[0.04375039995647967],22.94339959998615,None,,001,2022_Feb_02_1545,TMTAB,2021.2.3,143.18175654909592,
TMTstop-B_1_1.xlsx,0:26,G,['2'],2,TMTstop-B_1_1linestimulus11.png,TMTstop-B_1_1greenlinestimulus11.png,TMTstop-B_1_1redlinestimulus11.png,1,14,,,,,,,,,0,0,0,0,0,13,13,13,2,0,23.075437700143084,None,"['3', '2']",1,"[0.06142879999242723, 0.08121920004487038]",23.075437700143084,None,,001,2022_Feb_02_1545,TMTAB,2021.2.3,143.18175654909592,
TMTstop-B_1_1.xlsx,0:26,8,['1'],1,TMTstop-B_1_1linestimulus12.png,TMTstop-B_1_1greenlinestimulus12.png,TMTstop-B_1_1redlinestimulus12.png,1,15,,,,,,,,,0,0,0,0,0,14,14,14,1,1,23.276239200029522,None,['1'],1,[0.027303099865093827],23.276239200029522,None,,001,2022_Feb_02_1545,TMTAB,2021.2.3,143.18175654909592,
TMTstop-B_1_1.xlsx,0:26,H,['2'],2,TMTstop-B_1_1linestimulus13.png,TMTstop-B_1_1greenlinestimulus13.png,TMTstop-B_1_1redlinestimulus13.png,1,16,,,,,,,,,0,0,0,0,0,15,15,15,2,0,23.395227700006217,None,"['3', '2']",1,"[0.058289699954912066, 0.07834349991753697]",23.395227700006217,None,,001,2022_Feb_02_1545,TMTAB,2021.2.3,143.18175654909592,
TMTstop-B_1_1.xlsx,0:26,9,['3'],3,TMTstop-B_1_1linestimulus14.png,TMTstop-B_1_1greenlinestimulus14.png,TMTstop-B_1_1redlinestimulus14.png,1,17,,,,,,,,,0,0,0,0,0,16,16,16,5,0,23.581476600142196,None,"['1', '3', '2', '1', '3']",1,"[0.04301090002991259, 0.193062299862504, 0.21228149998933077, 0.3668336998671293, 0.5041501999367028]",23.581476600142196,None,,001,2022_Feb_02_1545,TMTAB,2021.2.3,143.18175654909592,
TMTstop-B_1_1.xlsx,0:26,I,['1'],1,TMTstop-B_1_1linestimulus15.png,TMTstop-B_1_1greenlinestimulus15.png,TMTstop-B_1_1redlinestimulus15.png,1,18,,,,,,,,,0,0,0,0,0,17,17,17,2,0,24.172476900042966,None,"['2', '1']",1,"[-0.0653271998744458, 0.120240299962461]",24.172476900042966,None,,001,2022_Feb_02_1545,TMTAB,2021.2.3,143.18175654909592,
TMTstop-B_1_1.xlsx,0:26,10,['2'],2,TMTstop-B_1_1linestimulus16.png,TMTstop-B_1_1greenlinestimulus16.png,TMTstop-B_1_1redlinestimulus16.png,1,19,,,,,,,,,0,0,0,0,0,18,18,18,2,0,24.37664939998649,None,"['3', '2']",1,"[0.06621030019596219, 0.0882137999869883]",24.37664939998649,None,,001,2022_Feb_02_1545,TMTAB,2021.2.3,143.18175654909592,
TMTstop-B_1_1.xlsx,0:26,J,['1'],1,TMTstop-B_1_1linestimulus17.png,TMTstop-B_1_1greenlinestimulus17.png,TMTstop-B_1_1redlinestimulus17.png,1,20,,,,,,,,,0,0,0,0,0,19,19,19,1,1,24.595429199980572,None,['1'],1,[0.055832500103861094],24.595429199980572,None,,001,2022_Feb_02_1545,TMTAB,2021.2.3,143.18175654909592,
TMTstop-B_1_1.xlsx,0:26,11,['2'],2,TMTstop-B_1_1linestimulus18.png,TMTstop-B_1_1greenlinestimulus18.png,TMTstop-B_1_1redlinestimulus18.png,1,21,,,,,,,,,0,0,0,0,0,20,20,20,2,0,24.720412299968302,None,"['3', '2']",1,"[0.0776275999378413, 0.10540189989842474]",24.720412299968302,None,,001,2022_Feb_02_1545,TMTAB,2021.2.3,143.18175654909592,
TMTstop-B_1_1.xlsx,0:26,K,['3'],3,TMTstop-B_1_1linestimulus19.png,TMTstop-B_1_1greenlinestimulus19.png,TMTstop-B_1_1redlinestimulus19.png,1,22,,,,,,,,,0,0,0,0,0,21,21,21,2,0,24.921752100111917,None,"['1', '3']",1,"[0.08951110020279884, 0.2240325000602752]",24.921752100111917,None,,001,2022_Feb_02_1545,TMTAB,2021.2.3,143.18175654909592,
TMTstop-B_1_1.xlsx,0:26,12,['1'],1,TMTstop-B_1_1linestimulus20.png,TMTstop-B_1_1greenlinestimulus20.png,TMTstop-B_1_1redlinestimulus20.png,1,23,,,,,,,,,0,0,0,0,0,22,22,22,2,0,25.256209400016814,None,"['2', '1']",1,"[-0.06716519990004599, 0.11598789994604886]",25.256209400016814,None,,001,2022_Feb_02_1545,TMTAB,2021.2.3,143.18175654909592,
TMTstop-B_1_1.xlsx,0:26,L,['3'],3,TMTstop-B_1_1linestimulus21.png,TMTstop-B_1_1greenlinestimulus21.png,TMTstop-B_1_1redlinestimulus21.png,1,24,,,,,,,,,0,0,0,0,0,23,23,23,1,1,25.500109300017357,None,['3'],1,[0.01919150003232062],25.500109300017357,None,,001,2022_Feb_02_1545,TMTAB,2021.2.3,143.18175654909592,
TMTstop-B_1_1.xlsx,0:26,13,['2'],2,TMTstop-B_1_1linestimulus22.png,TMTstop-B_1_1greenlinestimulus22.png,TMTstop-B_1_1redlinestimulus22.png,1,25,,,,,,,,,0,0,0,0,0,24,24,24,1,1,25.610848900163546,None,['2'],1,[-0.05145639996044338],25.610848900163546,None,,001,2022_Feb_02_1545,TMTAB,2021.2.3,143.18175654909592,
TMTstop-B_1_1.xlsx,0:26,None,None,None,TMTstop-B_1_1linestimulus23.png,TMTstop-B_1_1greenlinestimulus23.png,TMTstop-B_1_1redlinestimulus23.png,1,Feedback_last,,,,,,,,,0,0,0,0,0,25,25,25,1,1,25.694229300133884,None,['1'],0,[0.07968850014731288],25.694229300133884,None,,001,2022_Feb_02_1545,TMTAB,2021.2.3,143.18175654909592,
TMTstop-B_1_2.xlsx,26:52,1,['2'],2,TMTstop-B_1_2.png,TMTstop-B_1_2.png,TMTstop-B_1_2.png,2,26,,,,,,,,,0,1,1,1,0,0,0,0,2,0,29.8170690999832,None,"['3', '2']",1,"[0.5161977000534534, 0.532310500042513]",29.8170690999832,None,,001,2022_Feb_02_1545,TMTAB,2021.2.3,143.18175654909592,
TMTstop-B_1_2.xlsx,26:52,A,['3'],3,TMTstop-B_1_2.png,TMTstop-B_1_2firstgreen.png,TMTstop-B_1_2firstred.png,2,27,,,,,,,,,0,1,1,1,0,1,1,1,2,0,30.442647700197995,None,"['1', '3']",1,"[0.11055000009946525, 0.2915664999745786]",30.442647700197995,None,,001,2022_Feb_02_1545,TMTAB,2021.2.3,143.18175654909592,
TMTstop-B_1_2.xlsx,26:52,2,['1'],1,TMTstop-B_1_2linestimulus0.png,TMTstop-B_1_2greenlinestimulus0.png,TMTstop-B_1_2redlinestimulus0.png,2,28,,,,,,,,,0,1,1,1,0,2,2,2,2,0,30.81735510006547,None,"['2', '1']",1,"[-0.06589349987916648, 0.15886870003305376]",30.81735510006547,None,,001,2022_Feb_02_1545,TMTAB,2021.2.3,143.18175654909592,
TMTstop-B_1_2.xlsx,26:52,B,['2'],2,TMTstop-B_1_2linestimulus1.png,TMTstop-B_1_2greenlinestimulus1.png,TMTstop-B_1_2redlinestimulus1.png,2,29,,,,,,,,,0,1,1,1,0,3,3,3,2,0,31.060777000151575,None,"['3', '2']",1,"[0.11606270004995167, 0.12989010009914637]",31.060777000151575,None,,001,2022_Feb_02_1545,TMTAB,2021.2.3,143.18175654909592,
TMTstop-B_1_2.xlsx,26:52,3,['3'],3,TMTstop-B_1_2linestimulus2.png,TMTstop-B_1_2greenlinestimulus2.png,TMTstop-B_1_2redlinestimulus2.png,2,30,,,,,,,,,0,1,1,1,0,4,4,4,5,0,31.31092320010066,None,"['1', '3', '2', '1', '3']",1,"[0.09029529988765717, 0.2688066998962313, 0.2794441001024097, 0.48008739994838834, 0.6959611000493169]",31.31092320010066,None,,001,2022_Feb_02_1545,TMTAB,2021.2.3,143.18175654909592,
TMTstop-B_1_2.xlsx,26:52,C,['1'],1,TMTstop-B_1_2linestimulus3.png,TMTstop-B_1_2greenlinestimulus3.png,TMTstop-B_1_2redlinestimulus3.png,2,31,,,,,,,,,0,1,1,1,0,5,5,5,2,0,32.095273500075564,None,"['2', '1']",1,"[-0.020424399990588427, 0.18119910010136664]",32.095273500075564,None,,001,2022_Feb_02_1545,TMTAB,2021.2.3,143.18175654909592,
TMTstop-B_1_2.xlsx,26:52,4,['2'],2,TMTstop-B_1_2linestimulus4.png,TMTstop-B_1_2greenlinestimulus4.png,TMTstop-B_1_2redlinestimulus4.png,2,32,,,,,,,,,0,1,1,1,0,6,6,6,1,1,32.373906600056216,None,['2'],1,[0.17755619995296001],32.373906600056216,None,,001,2022_Feb_02_1545,TMTAB,2021.2.3,143.18175654909592,
TMTstop-B_1_2.xlsx,26:52,D,['3'],3,TMTstop-B_1_2linestimulus5.png,TMTstop-B_1_2greenlinestimulus5.png,TMTstop-B_1_2redlinestimulus5.png,2,33,,,,,,,,,0,1,1,1,0,7,7,7,3,0,32.63086440018378,None,"['1', '2', '3']",1,"[-0.01303550018928945, 0.3476166999898851, 0.36026469990611076]",32.63086440018378,None,,001,2022_Feb_02_1545,TMTAB,2021.2.3,143.18175654909592,
TMTstop-B_1_2.xlsx,26:52,5,['2'],2,TMTstop-B_1_2linestimulus6.png,TMTstop-B_1_2greenlinestimulus6.png,TMTstop-B_1_2redlinestimulus6.png,2,34,,,,,,,,,0,1,1,1,0,8,8,8,3,0,33.06174030015245,None,"['1', '3', '2']",1,"[0.08866220014169812, 0.2576450000051409, 0.2737424001097679]",33.06174030015245,None,,001,2022_Feb_02_1545,TMTAB,2021.2.3,143.18175654909592,
TMTstop-B_1_2.xlsx,26:52,E,['1'],1,TMTstop-B_1_2linestimulus7.png,TMTstop-B_1_2greenlinestimulus7.png,TMTstop-B_1_2redlinestimulus7.png,2,35,,,,,,,,,0,1,1,1,0,9,9,9,1,1,33.443574600154534,None,['1'],1,[0.05901420000009239],33.443574600154534,None,,001,2022_Feb_02_1545,TMTAB,2021.2.3,143.18175654909592,
TMTstop-B_1_2.xlsx,26:52,6,['3'],3,TMTstop-B_1_2linestimulus8.png,TMTstop-B_1_2greenlinestimulus8.png,TMTstop-B_1_2redlinestimulus8.png,2,36,,,,,,,,,0,1,1,1,0,10,10,10,1,1,33.58240390010178,None,['3'],1,[0.0946074000094086],33.58240390010178,None,,001,2022_Feb_02_1545,TMTAB,2021.2.3,143.18175654909592,
TMTstop-B_1_2.xlsx,26:52,F,['1'],1,TMTstop-B_1_2linestimulus9.png,TMTstop-B_1_2greenlinestimulus9.png,TMTstop-B_1_2redlinestimulus9.png,2,37,,,,,,,,,0,1,1,1,0,11,11,11,2,0,33.7480729999952,None,"['2', '1']",1,"[-0.058568499982357025, 0.10956349992193282]",33.7480729999952,None,,001,2022_Feb_02_1545,TMTAB,2021.2.3,143.18175654909592,
TMTstop-B_1_2.xlsx,26:52,7,['3'],3,TMTstop-B_1_2linestimulus10.png,TMTstop-B_1_2greenlinestimulus10.png,TMTstop-B_1_2redlinestimulus10.png,2,38,,,,,,,,,0,1,1,1,0,12,12,12,4,0,33.93659200007096,None,"['3', '2', '1', '3']",1,"[0.08952759997919202, 0.09328279993496835, 0.26740929996594787, 0.4182460999581963]",33.93659200007096,None,,001,2022_Feb_02_1545,TMTAB,2021.2.3,143.18175654909592,
TMTstop-B_1_2.xlsx,26:52,G,['2'],2,TMTstop-B_1_2linestimulus11.png,TMTstop-B_1_2greenlinestimulus11.png,TMTstop-B_1_2redlinestimulus11.png,2,39,,,,,,,,,0,1,1,1,0,13,13,13,1,1,34.435475800186396,None,['2'],1,[-0.0524384998716414],34.435475800186396,None,,001,2022_Feb_02_1545,TMTAB,2021.2.3,143.18175654909592,
TMTstop-B_1_2.xlsx,26:52,8,['3'],3,TMTstop-B_1_2linestimulus12.png,TMTstop-B_1_2greenlinestimulus12.png,TMTstop-B_1_2redlinestimulus12.png,2,40,,,,,,,,,0,1,1,1,0,14,14,14,2,0,34.50515550002456,None,"['1', '3']",1,"[0.029368799878284335, 0.21692819986492395]",34.50515550002456,None,,001,2022_Feb_02_1545,TMTAB,2021.2.3,143.18175654909592,
TMTstop-B_1_2.xlsx,26:52,H,['2'],2,TMTstop-B_1_2linestimulus13.png,TMTstop-B_1_2greenlinestimulus13.png,TMTstop-B_1_2redlinestimulus13.png,2,41,,,,,,,,,0,1,1,1,0,15,15,15,1,1,34.80352750001475,None,['2'],1,[-0.050379900028929114],34.80352750001475,None,,001,2022_Feb_02_1545,TMTAB,2021.2.3,143.18175654909592,
TMTstop-B_1_2.xlsx,26:52,9,['3'],3,TMTstop-B_1_2linestimulus14.png,TMTstop-B_1_2greenlinestimulus14.png,TMTstop-B_1_2redlinestimulus14.png,2,42,,,,,,,,,0,1,1,1,0,16,16,16,2,0,34.874098300002515,None,"['1', '3']",1,"[0.06404780014418066, 0.19090620009228587]",34.874098300002515,None,,001,2022_Feb_02_1545,TMTAB,2021.2.3,143.18175654909592,
TMTstop-B_1_2.xlsx,26:52,I,['1'],1,TMTstop-B_1_2linestimulus15.png,TMTstop-B_1_2greenlinestimulus15.png,TMTstop-B_1_2redlinestimulus15.png,2,43,,,,,,,,,0,1,1,1,0,17,17,17,2,0,35.14408910018392,None,"['2', '1']",1,"[-0.06485110009089112, 0.11698169982992113]",35.14408910018392,None,,001,2022_Feb_02_1545,TMTAB,2021.2.3,143.18175654909592,
TMTstop-B_1_2.xlsx,26:52,10,['2'],2,TMTstop-B_1_2linestimulus16.png,TMTstop-B_1_2greenlinestimulus16.png,TMTstop-B_1_2redlinestimulus16.png,2,44,,,,,,,,,0,1,1,1,0,18,18,18,2,0,35.345214900095016,None,"['3', '2']",1,"[0.09044370008632541, 0.12254770006984472]",35.345214900095016,None,,001,2022_Feb_02_1545,TMTAB,2021.2.3,143.18175654909592,
TMTstop-B_1_2.xlsx,26:52,J,['3'],3,TMTstop-B_1_2linestimulus17.png,TMTstop-B_1_2greenlinestimulus17.png,TMTstop-B_1_2redlinestimulus17.png,2,45,,,,,,,,,0,1,1,1,0,19,19,19,11,0,35.54656040016562,None,"['1', '3', '2', '1', '3', '2', '1', '3', '2', '1', '3']",1,"[0.0954821000341326, 0.2555297000799328, 0.2698842999525368, 0.4556108000688255, 0.6394625999964774, 0.667343300068751, 0.8554378999397159, 1.1149830999784172, 1.133382699918002, 2.648766699945554, 3.273102100007236]",35.54656040016562,None,,001,2022_Feb_02_1545,TMTAB,2021.2.3,143.18175654909592,
TMTstop-B_1_2.xlsx,26:52,11,['2'],2,TMTstop-B_1_2linestimulus18.png,TMTstop-B_1_2greenlinestimulus18.png,TMTstop-B_1_2redlinestimulus18.png,2,46,,,,,,,,,0,1,1,1,0,20,20,20,2,0,38.90801830007695,None,"['3', '2']",1,"[0.4313572000246495, 0.6750905001536012]",38.90801830007695,None,,001,2022_Feb_02_1545,TMTAB,2021.2.3,143.18175654909592,
TMTstop-B_1_2.xlsx,26:52,K,['3'],3,TMTstop-B_1_2linestimulus19.png,TMTstop-B_1_2greenlinestimulus19.png,TMTstop-B_1_2redlinestimulus19.png,2,47,,,,,,,,,0,1,1,1,0,21,21,21,3,0,39.66460200003348,None,"['1', '2', '3']",1,"[-0.04489889997057617, 0.17768810014240444, 0.20107059995643795]",39.66460200003348,None,,001,2022_Feb_02_1545,TMTAB,2021.2.3,143.18175654909592,
TMTstop-B_1_2.xlsx,26:52,12,['1'],1,TMTstop-B_1_2linestimulus20.png,TMTstop-B_1_2greenlinestimulus20.png,TMTstop-B_1_2redlinestimulus20.png,2,48,,,,,,,,,0,1,1,1,0,22,22,22,1,1,39.9428290000651,None,['1'],1,[0.08388209994882345],39.9428290000651,None,,001,2022_Feb_02_1545,TMTAB,2021.2.3,143.18175654909592,
TMTstop-B_1_2.xlsx,26:52,L,['2'],2,TMTstop-B_1_2linestimulus21.png,TMTstop-B_1_2greenlinestimulus21.png,TMTstop-B_1_2redlinestimulus21.png,2,49,,,,,,,,,0,1,1,1,0,23,23,23,2,0,40.11286470014602,None,"['3', '2']",1,"[0.07856720010749996, 0.4365618999581784]",40.11286470014602,None,,001,2022_Feb_02_1545,TMTAB,2021.2.3,143.18175654909592,
TMTstop-B_1_2.xlsx,26:52,13,['3'],3,TMTstop-B_1_2linestimulus22.png,TMTstop-B_1_2greenlinestimulus22.png,TMTstop-B_1_2redlinestimulus22.png,2,50,,,,,,,,,0,1,1,1,0,24,24,24,2,0,40.650645200163126,None,"['1', '3']",1,"[0.046644399873912334, 0.30381800001487136]",40.650645200163126,None,,001,2022_Feb_02_1545,TMTAB,2021.2.3,143.18175654909592,
TMTstop-B_1_2.xlsx,26:52,None,None,None,TMTstop-B_1_2linestimulus23.png,TMTstop-B_1_2greenlinestimulus23.png,TMTstop-B_1_2redlinestimulus23.png,2,Feedback_last,,,,,,,,,0,1,1,1,0,25,25,25,2,0,41.040521200047806,None,"['2', '1']",0,"[-0.027007299941033125, 0.15128999995067716]",41.040521200047806,None,,001,2022_Feb_02_1545,TMTAB,2021.2.3,143.18175654909592,
TMTstop-B_1_3.xlsx,52:78,1,['3'],3,TMTstop-B_1_3.png,TMTstop-B_1_3.png,TMTstop-B_1_3.png,3,51,,,,,,,,,0,2,2,2,0,0,0,0,3,0,45.13624950009398,None,"['2', '1', '3']",1,"[0.5361061999574304, 0.5401747000869364, 0.7180759999901056]",45.13624950009398,None,,001,2022_Feb_02_1545,TMTAB,2021.2.3,143.18175654909592,
TMTstop-B_1_3.xlsx,52:78,A,['2'],2,TMTstop-B_1_3.png,TMTstop-B_1_3firstgreen.png,TMTstop-B_1_3firstred.png,3,52,,,,,,,,,0,2,2,2,0,1,1,1,2,0,45.964139000047,None,"['1', '2']",1,"[0.01123060006648302, 0.051926800049841404]",45.964139000047,None,,001,2022_Feb_02_1545,TMTAB,2021.2.3,143.18175654909592,
TMTstop-B_1_3.xlsx,52:78,2,['3'],3,TMTstop-B_1_3linestimulus0.png,TMTstop-B_1_3greenlinestimulus0.png,TMTstop-B_1_3redlinestimulus0.png,3,53,,,,,,,,,0,2,2,2,0,2,2,2,1,1,46.1167737999931,None,['3'],1,[0.02111149998381734],46.1167737999931,None,,001,2022_Feb_02_1545,TMTAB,2021.2.3,143.18175654909592,
TMTstop-B_1_3.xlsx,52:78,B,['2'],2,TMTstop-B_1_3linestimulus1.png,TMTstop-B_1_3greenlinestimulus1.png,TMTstop-B_1_3redlinestimulus1.png,3,54,,,,,,,,,0,2,2,2,0,3,3,3,2,0,46.22390040010214,None,"['1', '2']",1,"[0.09828460006974638, 0.1948923000600189]",46.22390040010214,None,,001,2022_Feb_02_1545,TMTAB,2021.2.3,143.18175654909592,
TMTstop-B_1_3.xlsx,52:78,3,['3'],3,TMTstop-B_1_3linestimulus2.png,TMTstop-B_1_3greenlinestimulus2.png,TMTstop-B_1_3redlinestimulus2.png,3,55,,,,,,,,,0,2,2,2,0,4,4,4,1,1,46.49868700001389,None,['3'],1,[-0.018430700059980154],46.49868700001389,None,,001,2022_Feb_02_1545,TMTAB,2021.2.3,143.18175654909592,
TMTstop-B_1_3.xlsx,52:78,C,['1'],1,TMTstop-B_1_3linestimulus3.png,TMTstop-B_1_3greenlinestimulus3.png,TMTstop-B_1_3redlinestimulus3.png,3,56,,,,,,,,,0,2,2,2,0,5,5,5,1,1,46.582279900088906,None,['1'],1,[0.04311600001528859],46.582279900088906,None,,001,2022_Feb_02_1545,TMTAB,2021.2.3,143.18175654909592,
TMTstop-B_1_3.xlsx,52:78,4,['2'],2,TMTstop-B_1_3linestimulus4.png,TMTstop-B_1_3greenlinestimulus4.png,TMTstop-B_1_3redlinestimulus4.png,3,57,,,,,,,,,0,2,2,2,0,6,6,6,1,1,46.72121990006417,None,['2'],1,[-0.04351789993233979],46.72121990006417,None,,001,2022_Feb_02_1545,TMTAB,2021.2.3,143.18175654909592,
TMTstop-B_1_3.xlsx,52:78,D,['3'],3,TMTstop-B_1_3linestimulus5.png,TMTstop-B_1_3greenlinestimulus5.png,TMTstop-B_1_3redlinestimulus5.png,3,58,,,,,,,,,0,2,2,2,0,7,7,7,1,1,46.80327700008638,None,['3'],1,[-0.03267749981023371],46.80327700008638,None,,001,2022_Feb_02_1545,TMTAB,2021.2.3,143.18175654909592,
TMTstop-B_1_3.xlsx,52:78,5,['2'],2,TMTstop-B_1_3linestimulus6.png,TMTstop-B_1_3greenlinestimulus6.png,TMTstop-B_1_3redlinestimulus6.png,3,59,,,,,,,,,0,2,2,2,0,8,8,8,2,0,46.87964850012213,None,"['1', '2']",1,"[0.02234949986450374, 0.10246129985898733]",46.87964850012213,None,,001,2022_Feb_02_1545,TMTAB,2021.2.3,143.18175654909592,
TMTstop-B_1_3.xlsx,52:78,E,['3'],3,TMTstop-B_1_3linestimulus7.png,TMTstop-B_1_3greenlinestimulus7.png,TMTstop-B_1_3redlinestimulus7.png,3,60,,,,,,,,,0,2,2,2,0,9,9,9,1,1,47.07403810019605,None,['3'],1,[0.029729099944233894],47.07403810019605,None,,001,2022_Feb_02_1545,TMTAB,2021.2.3,143.18175654909592,
TMTstop-B_1_3.xlsx,52:78,6,['1'],1,TMTstop-B_1_3linestimulus8.png,TMTstop-B_1_3greenlinestimulus8.png,TMTstop-B_1_3redlinestimulus8.png,3,61,,,,,,,,,0,2,2,2,0,10,10,10,1,1,47.17868660017848,None,['1'],1,[0.06096899998374283],47.17868660017848,None,,001,2022_Feb_02_1545,TMTAB,2021.2.3,143.18175654909592,
TMTstop-B_1_3.xlsx,52:78,F,['3'],3,TMTstop-B_1_3linestimulus9.png,TMTstop-B_1_3greenlinestimulus9.png,TMTstop-B_1_3redlinestimulus9.png,3,62,,,,,,,,,0,2,2,2,0,11,11,11,2,0,47.310024900129065,None,"['2', '3']",1,"[-0.005137900123372674, 0.1099626999348402]",47.310024900129065,None,,001,2022_Feb_02_1545,TMTAB,2021.2.3,143.18175654909592,
TMTstop-B_1_3.xlsx,52:78,7,['1'],1,TMTstop-B_1_3linestimulus10.png,TMTstop-B_1_3greenlinestimulus10.png,TMTstop-B_1_3redlinestimulus10.png,3,63,,,,,,,,,0,2,2,2,0,12,12,12,1,1,47.49750960012898,None,['1'],1,[0.07881840015761554],47.49750960012898,None,,001,2022_Feb_02_1545,TMTAB,2021.2.3,143.18175654909592,
TMTstop-B_1_3.xlsx,52:78,G,['3'],3,TMTstop-B_1_3linestimulus11.png,TMTstop-B_1_3greenlinestimulus11.png,TMTstop-B_1_3redlinestimulus11.png,3,64,,,,,,,,,0,2,2,2,0,13,13,13,2,0,47.650777200004086,None,"['2', '3']",1,"[-0.011003599967807531, 0.09165120008401573]",47.650777200004086,None,,001,2022_Feb_02_1545,TMTAB,2021.2.3,143.18175654909592,
TMTstop-B_1_3.xlsx,52:78,8,['2'],2,TMTstop-B_1_3linestimulus12.png,TMTstop-B_1_3greenlinestimulus12.png,TMTstop-B_1_3redlinestimulus12.png,3,65,,,,,,,,,0,2,2,2,0,14,14,14,2,0,47.84491330012679,None,"['1', '2']",1,"[0.037155200028792024, 0.100853499956429]",47.84491330012679,None,,001,2022_Feb_02_1545,TMTAB,2021.2.3,143.18175654909592,
TMTstop-B_1_3.xlsx,52:78,H,['3'],3,TMTstop-B_1_3linestimulus13.png,TMTstop-B_1_3greenlinestimulus13.png,TMTstop-B_1_3redlinestimulus13.png,3,66,,,,,,,,,0,2,2,2,0,15,15,15,1,1,48.04607850010507,None,['3'],1,[0.008176299976184964],48.04607850010507,None,,001,2022_Feb_02_1545,TMTAB,2021.2.3,143.18175654909592,
TMTstop-B_1_3.xlsx,52:78,9,['1'],1,TMTstop-B_1_3linestimulus14.png,TMTstop-B_1_3greenlinestimulus14.png,TMTstop-B_1_3redlinestimulus14.png,3,67,,,,,,,,,0,2,2,2,0,16,16,16,1,1,48.13814040017314,None,['1'],1,[0.06520200008526444],48.13814040017314,None,,001,2022_Feb_02_1545,TMTAB,2021.2.3,143.18175654909592,
TMTstop-B_1_3.xlsx,52:78,I,['2'],2,TMTstop-B_1_3linestimulus15.png,TMTstop-B_1_3greenlinestimulus15.png,TMTstop-B_1_3redlinestimulus15.png,3,68,,,,,,,,,0,2,2,2,0,17,17,17,1,1,48.27532450016588,None,['2'],1,[-0.006228399928659201],48.27532450016588,None,,001,2022_Feb_02_1545,TMTAB,2021.2.3,143.18175654909592,
TMTstop-B_1_3.xlsx,52:78,10,['3'],3,TMTstop-B_1_3linestimulus16.png,TMTstop-B_1_3greenlinestimulus16.png,TMTstop-B_1_3redlinestimulus16.png,3,69,,,,,,,,,0,2,2,2,0,18,18,18,1,1,48.34543240000494,None,['3'],1,[0.06874760007485747],48.34543240000494,None,,001,2022_Feb_02_1545,TMTAB,2021.2.3,143.18175654909592,
TMTstop-B_1_3.xlsx,52:78,J,['1'],1,TMTstop-B_1_3linestimulus17.png,TMTstop-B_1_3greenlinestimulus17.png,TMTstop-B_1_3redlinestimulus17.png,3,70,,,,,,,,,0,2,2,2,0,19,19,19,1,1,48.49053960014135,None,['1'],1,[0.07701679994352162],48.49053960014135,None,,001,2022_Feb_02_1545,TMTAB,2021.2.3,143.18175654909592,
TMTstop-B_1_3.xlsx,52:78,11,['3'],3,TMTstop-B_1_3linestimulus18.png,TMTstop-B_1_3greenlinestimulus18.png,TMTstop-B_1_3redlinestimulus18.png,3,71,,,,,,,,,0,2,2,2,0,20,20,20,2,0,48.6372251000721,None,"['2', '3']",1,"[-0.014791799942031503, 0.1082423001062125]",48.6372251000721,None,,001,2022_Feb_02_1545,TMTAB,2021.2.3,143.18175654909592,
TMTstop-B_1_3.xlsx,52:78,K,['1'],1,TMTstop-B_1_3linestimulus19.png,TMTstop-B_1_3greenlinestimulus19.png,TMTstop-B_1_3redlinestimulus19.png,3,72,,,,,,,,,0,2,2,2,0,21,21,21,1,1,48.83093799999915,None,['1'],1,[0.09793879999779165],48.83093799999915,None,,001,2022_Feb_02_1545,TMTAB,2021.2.3,143.18175654909592,
TMTstop-B_1_3.xlsx,52:78,12,['2'],2,TMTstop-B_1_3linestimulus20.png,TMTstop-B_1_3greenlinestimulus20.png,TMTstop-B_1_3redlinestimulus20.png,3,73,,,,,,,,,0,2,2,2,0,22,22,22,1,1,49.011454900028184,None,['2'],1,[-0.007055699825286865],49.011454900028184,None,,001,2022_Feb_02_1545,TMTAB,2021.2.3,143.18175654909592,
TMTstop-B_1_3.xlsx,52:78,L,['1'],1,TMTstop-B_1_3linestimulus21.png,TMTstop-B_1_3greenlinestimulus21.png,TMTstop-B_1_3redlinestimulus21.png,3,74,,,,,,,,,0,2,2,2,0,23,23,23,2,0,49.08822869998403,None,"['3', '1']",1,"[0.004523899871855974, 0.17416170006617904]",49.08822869998403,None,,001,2022_Feb_02_1545,TMTAB,2021.2.3,143.18175654909592,
TMTstop-B_1_3.xlsx,52:78,13,['3'],3,TMTstop-B_1_3linestimulus22.png,TMTstop-B_1_3greenlinestimulus22.png,TMTstop-B_1_3redlinestimulus22.png,3,75,,,,,,,,,0,2,2,2,0,24,24,24,3,0,49.34508250001818,None,"['1', '2', '3']",1,"[1.0367801999673247, 1.0972006998490542, 1.2160801000427455]",49.34508250001818,None,,001,2022_Feb_02_1545,TMTAB,2021.2.3,143.18175654909592,
TMTstop-B_1_3.xlsx,52:78,None,None,None,TMTstop-B_1_3linestimulus23.png,TMTstop-B_1_3greenlinestimulus23.png,TMTstop-B_1_3redlinestimulus23.png,3,Feedback_last,,,,,,,,,0,2,2,2,0,25,25,25,0,0,50.6294501000084,None,None,1,,50.6294501000084,None,,001,2022_Feb_02_1545,TMTAB,2021.2.3,143.18175654909592,
TMTstop-B_1_4.xlsx,78:104,1,['1'],1,TMTstop-B_1_4.png,TMTstop-B_1_4.png,TMTstop-B_1_4.png,4,76,,,,,,,,,0,3,3,3,0,0,0,0,1,1,54.72665309999138,None,['1'],1,[0.5055789998732507],54.72665309999138,None,,001,2022_Feb_02_1545,TMTAB,2021.2.3,143.18175654909592,
TMTstop-B_1_4.xlsx,78:104,A,['2'],2,TMTstop-B_1_4.png,TMTstop-B_1_4firstgreen.png,TMTstop-B_1_4firstred.png,4,77,,,,,,,,,0,3,3,3,0,1,1,1,1,1,55.30287650017999,None,['2'],1,[0.021239300025627017],55.30287650017999,None,,001,2022_Feb_02_1545,TMTAB,2021.2.3,143.18175654909592,
TMTstop-B_1_4.xlsx,78:104,2,['1'],1,TMTstop-B_1_4linestimulus0.png,TMTstop-B_1_4greenlinestimulus0.png,TMTstop-B_1_4redlinestimulus0.png,4,78,,,,,,,,,0,3,3,3,0,2,2,2,2,0,55.39328960003331,None,"['3', '1']",1,"[0.02811489999294281, 0.19840829982422292]",55.39328960003331,None,,001,2022_Feb_02_1545,TMTAB,2021.2.3,143.18175654909592,
TMTstop-B_1_4.xlsx,78:104,B,['2'],2,TMTstop-B_1_4linestimulus1.png,TMTstop-B_1_4greenlinestimulus1.png,TMTstop-B_1_4redlinestimulus1.png,4,79,,,,,,,,,0,3,3,3,0,3,3,3,1,1,55.68494940013625,None,['2'],1,[-0.061954300152137876],55.68494940013625,None,,001,2022_Feb_02_1545,TMTAB,2021.2.3,143.18175654909592,
TMTstop-B_1_4.xlsx,78:104,3,['3'],3,TMTstop-B_1_4linestimulus2.png,TMTstop-B_1_4greenlinestimulus2.png,TMTstop-B_1_4redlinestimulus2.png,4,80,,,,,,,,,0,3,3,3,0,4,4,4,1,1,55.761290800059214,None,['3'],1,[-0.022023400058969855],55.761290800059214,None,,001,2022_Feb_02_1545,TMTAB,2021.2.3,143.18175654909592,
TMTstop-B_1_4.xlsx,78:104,C,['2'],2,TMTstop-B_1_4linestimulus3.png,TMTstop-B_1_4greenlinestimulus3.png,TMTstop-B_1_4redlinestimulus3.png,4,81,,,,,,,,,0,3,3,3,0,5,5,5,2,0,55.83099940000102,None,"['1', '2']",1,"[0.043899400159716606, 0.1263580999802798]",55.83099940000102,None,,001,2022_Feb_02_1545,TMTAB,2021.2.3,143.18175654909592,
TMTstop-B_1_4.xlsx,78:104,4,['3'],3,TMTstop-B_1_4linestimulus4.png,TMTstop-B_1_4greenlinestimulus4.png,TMTstop-B_1_4redlinestimulus4.png,4,82,,,,,,,,,0,3,3,3,0,6,6,6,1,1,56.03280939999968,None,['3'],1,[0.005848800064995885],56.03280939999968,None,,001,2022_Feb_02_1545,TMTAB,2021.2.3,143.18175654909592,
TMTstop-B_1_4.xlsx,78:104,D,['1'],1,TMTstop-B_1_4linestimulus5.png,TMTstop-B_1_4greenlinestimulus5.png,TMTstop-B_1_4redlinestimulus5.png,4,83,,,,,,,,,0,3,3,3,0,7,7,7,1,1,56.115370500134304,None,['1'],1,[0.0783315000589937],56.115370500134304,None,,001,2022_Feb_02_1545,TMTAB,2021.2.3,143.18175654909592,
TMTstop-B_1_4.xlsx,78:104,5,['2'],2,TMTstop-B_1_4linestimulus6.png,TMTstop-B_1_4greenlinestimulus6.png,TMTstop-B_1_4redlinestimulus6.png,4,84,,,,,,,,,0,3,3,3,0,8,8,8,1,1,56.268451699987054,None,['2'],1,[-0.018747200025245547],56.268451699987054,None,,001,2022_Feb_02_1545,TMTAB,2021.2.3,143.18175654909592,
TMTstop-B_1_4.xlsx,78:104,E,['3'],3,TMTstop-B_1_4linestimulus7.png,TMTstop-B_1_4greenlinestimulus7.png,TMTstop-B_1_4redlinestimulus7.png,4,85,,,,,,,,,0,3,3,3,0,9,9,9,1,1,56.3391838001553,None,['3'],1,[-0.0012330999597907066],56.3391838001553,None,,001,2022_Feb_02_1545,TMTAB,2021.2.3,143.18175654909592,
TMTstop-B_1_4.xlsx,78:104,6,['1'],1,TMTstop-B_1_4linestimulus8.png,TMTstop-B_1_4greenlinestimulus8.png,TMTstop-B_1_4redlinestimulus8.png,4,86,,,,,,,,,0,3,3,3,0,10,10,10,1,1,56.40716820000671,None,['1'],1,[0.09040270000696182],56.40716820000671,None,,001,2022_Feb_02_1545,TMTAB,2021.2.3,143.18175654909592,
TMTstop-B_1_4.xlsx,78:104,F,['3'],3,TMTstop-B_1_4linestimulus9.png,TMTstop-B_1_4greenlinestimulus9.png,TMTstop-B_1_4redlinestimulus9.png,4,87,,,,,,,,,0,3,3,3,0,11,11,11,2,0,56.56818160018884,None,"['2', '3']",1,"[-0.024248499888926744, 0.08042049990035594]",56.56818160018884,None,,001,2022_Feb_02_1545,TMTAB,2021.2.3,143.18175654909592,
TMTstop-B_1_4.xlsx,78:104,7,['1'],1,TMTstop-B_1_4linestimulus10.png,TMTstop-B_1_4greenlinestimulus10.png,TMTstop-B_1_4redlinestimulus10.png,4,88,,,,,,,,,0,3,3,3,0,12,12,12,1,1,56.74731620005332,None,['1'],1,[0.0640020000282675],56.74731620005332,None,,001,2022_Feb_02_1545,TMTAB,2021.2.3,143.18175654909592,
TMTstop-B_1_4.xlsx,78:104,G,['3'],3,TMTstop-B_1_4linestimulus11.png,TMTstop-B_1_4greenlinestimulus11.png,TMTstop-B_1_4redlinestimulus11.png,4,89,,,,,,,,,0,3,3,3,0,13,13,13,2,0,56.90133080002852,None,"['2', '3']",1,"[0.030832800082862377, 0.09496679995208979]",56.90133080002852,None,,001,2022_Feb_02_1545,TMTAB,2021.2.3,143.18175654909592,
TMTstop-B_1_4.xlsx,78:104,8,['2'],2,TMTstop-B_1_4linestimulus12.png,TMTstop-B_1_4greenlinestimulus12.png,TMTstop-B_1_4redlinestimulus12.png,4,90,,,,,,,,,0,3,3,3,0,14,14,14,2,0,57.11654640012421,None,"['1', '2']",1,"[0.05061189993284643, 0.11525529995560646]",57.11654640012421,None,,001,2022_Feb_02_1545,TMTAB,2021.2.3,143.18175654909592,
TMTstop-B_1_4.xlsx,78:104,H,['3'],3,TMTstop-B_1_4linestimulus13.png,TMTstop-B_1_4greenlinestimulus13.png,TMTstop-B_1_4redlinestimulus13.png,4,91,,,,,,,,,0,3,3,3,0,15,15,15,1,1,57.34481150005013,None,['3'],1,[0.008879699977114797],57.34481150005013,None,,001,2022_Feb_02_1545,TMTAB,2021.2.3,143.18175654909592,
TMTstop-B_1_4.xlsx,78:104,9,['2'],2,TMTstop-B_1_4linestimulus14.png,TMTstop-B_1_4greenlinestimulus14.png,TMTstop-B_1_4redlinestimulus14.png,4,92,,,,,,,,,0,3,3,3,0,16,16,16,2,0,57.42848140001297,None,"['1', '2']",1,"[0.09461260004900396, 0.16696409997530282]",57.42848140001297,None,,001,2022_Feb_02_1545,TMTAB,2021.2.3,143.18175654909592,
TMTstop-B_1_4.xlsx,78:104,I,['1'],1,TMTstop-B_1_4linestimulus15.png,TMTstop-B_1_4greenlinestimulus15.png,TMTstop-B_1_4redlinestimulus15.png,4,93,,,,,,,,,0,3,3,3,0,17,17,17,2,0,57.67105950019322,None,"['3', '1']",1,"[0.03280879999510944, 0.22020719991996884]",57.67105950019322,None,,001,2022_Feb_02_1545,TMTAB,2021.2.3,143.18175654909592,
TMTstop-B_1_4.xlsx,78:104,10,['3'],3,TMTstop-B_1_4linestimulus16.png,TMTstop-B_1_4greenlinestimulus16.png,TMTstop-B_1_4redlinestimulus16.png,4,94,,,,,,,,,0,3,3,3,0,18,18,18,2,0,57.9838374000974,None,"['2', '3']",1,"[-0.047496499959379435, 0.07614980009384453]",57.9838374000974,None,,001,2022_Feb_02_1545,TMTAB,2021.2.3,143.18175654909592,
TMTstop-B_1_4.xlsx,78:104,J,['1'],1,TMTstop-B_1_4linestimulus17.png,TMTstop-B_1_4greenlinestimulus17.png,TMTstop-B_1_4redlinestimulus17.png,4,95,,,,,,,,,0,3,3,3,0,19,19,19,1,1,58.12920240010135,None,['1'],1,[0.10424400004558265],58.12920240010135,None,,001,2022_Feb_02_1545,TMTAB,2021.2.3,143.18175654909592,
TMTstop-B_1_4.xlsx,78:104,11,['3'],3,TMTstop-B_1_4linestimulus18.png,TMTstop-B_1_4greenlinestimulus18.png,TMTstop-B_1_4redlinestimulus18.png,4,96,,,,,,,,,0,3,3,3,0,20,20,20,2,0,58.310084600001574,None,"['2', '3']",1,"[-0.02762429998256266, 0.10661440016701818]",58.310084600001574,None,,001,2022_Feb_02_1545,TMTAB,2021.2.3,143.18175654909592,
TMTstop-B_1_4.xlsx,78:104,K,['2'],2,TMTstop-B_1_4linestimulus19.png,TMTstop-B_1_4greenlinestimulus19.png,TMTstop-B_1_4redlinestimulus19.png,4,97,,,,,,,,,0,3,3,3,0,21,21,21,2,0,58.506182400044054,None,"['1', '2']",1,"[0.3333152001723647, 0.4108639000914991]",58.506182400044054,None,,001,2022_Feb_02_1545,TMTAB,2021.2.3,143.18175654909592,
TMTstop-B_1_4.xlsx,78:104,12,['3'],3,TMTstop-B_1_4linestimulus20.png,TMTstop-B_1_4greenlinestimulus20.png,TMTstop-B_1_4redlinestimulus20.png,4,98,,,,,,,,,0,3,3,3,0,22,22,22,1,1,58.997570500010625,None,['3'],1,[0.026256500044837594],58.997570500010625,None,,001,2022_Feb_02_1545,TMTAB,2021.2.3,143.18175654909592,
TMTstop-B_1_4.xlsx,78:104,L,['2'],2,TMTstop-B_1_4linestimulus21.png,TMTstop-B_1_4greenlinestimulus21.png,TMTstop-B_1_4redlinestimulus21.png,4,99,,,,,,,,,0,3,3,3,0,23,23,23,1,1,59.09460730012506,None,['2'],1,[0.6256774999201298],59.09460730012506,None,,001,2022_Feb_02_1545,TMTAB,2021.2.3,143.18175654909592,
TMTstop-B_1_4.xlsx,78:104,13,['3'],3,TMTstop-B_1_4linestimulus22.png,TMTstop-B_1_4greenlinestimulus22.png,TMTstop-B_1_4redlinestimulus22.png,4,100,,,,,,,,,0,3,3,3,0,24,24,24,1,1,59.7962414000649,None,['3'],1,[0.10969529999420047],59.7962414000649,None,,001,2022_Feb_02_1545,TMTAB,2021.2.3,143.18175654909592,
TMTstop-B_1_4.xlsx,78:104,None,None,None,TMTstop-B_1_4linestimulus23.png,TMTstop-B_1_4greenlinestimulus23.png,TMTstop-B_1_4redlinestimulus23.png,4,Feedback_last,,,,,,,,,0,3,3,3,0,25,25,25,0,0,59.987014500191435,None,None,1,,59.987014500191435,None,,001,2022_Feb_02_1545,TMTAB,2021.2.3,143.18175654909592,
TMTstop-B_1_5.xlsx,104:130,1,['1'],1,TMTstop-B_1_5.png,TMTstop-B_1_5.png,TMTstop-B_1_5.png,5,101,,,,,,,,,0,4,4,4,0,0,0,0,1,1,64.07430320000276,None,['1'],1,[0.4287026000674814],64.07430320000276,None,,001,2022_Feb_02_1545,TMTAB,2021.2.3,143.18175654909592,
TMTstop-B_1_5.xlsx,104:130,A,['2'],2,TMTstop-B_1_5.png,TMTstop-B_1_5firstgreen.png,TMTstop-B_1_5firstred.png,5,102,,,,,,,,,0,4,4,4,0,1,1,1,1,1,64.5806199000217,None,['2'],1,[0.012589399935677648],64.5806199000217,None,,001,2022_Feb_02_1545,TMTAB,2021.2.3,143.18175654909592,
TMTstop-B_1_5.xlsx,104:130,2,['1'],1,TMTstop-B_1_5linestimulus0.png,TMTstop-B_1_5greenlinestimulus0.png,TMTstop-B_1_5redlinestimulus0.png,5,103,,,,,,,,,0,4,4,4,0,2,2,2,2,0,64.66403880016878,None,"['3', '1']",1,"[0.02080329996533692, 0.1919005000963807]",64.66403880016878,None,,001,2022_Feb_02_1545,TMTAB,2021.2.3,143.18175654909592,
TMTstop-B_1_5.xlsx,104:130,B,['3'],3,TMTstop-B_1_5linestimulus1.png,TMTstop-B_1_5greenlinestimulus1.png,TMTstop-B_1_5redlinestimulus1.png,5,104,,,,,,,,,0,4,4,4,0,3,3,3,2,0,64.95556770008989,None,"['2', '3']",1,"[-0.045037199975922704, 0.04674660018645227]",64.95556770008989,None,,001,2022_Feb_02_1545,TMTAB,2021.2.3,143.18175654909592,
TMTstop-B_1_5.xlsx,104:130,3,['1'],1,TMTstop-B_1_5linestimulus2.png,TMTstop-B_1_5greenlinestimulus2.png,TMTstop-B_1_5redlinestimulus2.png,5,105,,,,,,,,,0,4,4,4,0,4,4,4,1,1,65.11528769996949,None,['1'],1,[0.020241300109773874],65.11528769996949,None,,001,2022_Feb_02_1545,TMTAB,2021.2.3,143.18175654909592,
TMTstop-B_1_5.xlsx,104:130,C,['3'],3,TMTstop-B_1_5linestimulus3.png,TMTstop-B_1_5greenlinestimulus3.png,TMTstop-B_1_5redlinestimulus3.png,5,106,,,,,,,,,0,4,4,4,0,5,5,5,2,0,65.21412930008955,None,"['2', '3']",1,"[-0.005365999881178141, 0.07664050022140145]",65.21412930008955,None,,001,2022_Feb_02_1545,TMTAB,2021.2.3,143.18175654909592,
TMTstop-B_1_5.xlsx,104:130,4,['1'],1,TMTstop-B_1_5linestimulus4.png,TMTstop-B_1_5greenlinestimulus4.png,TMTstop-B_1_5redlinestimulus4.png,5,107,,,,,,,,,0,4,4,4,0,6,6,6,1,1,65.36671360000037,None,['1'],1,[0.06701999995857477],65.36671360000037,None,,001,2022_Feb_02_1545,TMTAB,2021.2.3,143.18175654909592,
TMTstop-B_1_5.xlsx,104:130,D,['3'],3,TMTstop-B_1_5linestimulus5.png,TMTstop-B_1_5greenlinestimulus5.png,TMTstop-B_1_5redlinestimulus5.png,5,108,,,,,,,,,0,4,4,4,0,7,7,7,2,0,65.5179793999996,None,"['2', '3']",1,"[-0.0299622998572886, 0.047570900060236454]",65.5179793999996,None,,001,2022_Feb_02_1545,TMTAB,2021.2.3,143.18175654909592,
TMTstop-B_1_5.xlsx,104:130,5,['2'],2,TMTstop-B_1_5linestimulus6.png,TMTstop-B_1_5greenlinestimulus6.png,TMTstop-B_1_5redlinestimulus6.png,5,109,,,,,,,,,0,4,4,4,0,8,8,8,2,0,65.67082080012187,None,"['1', '2']",1,"[0.05107420007698238, 0.11429849988780916]",65.67082080012187,None,,001,2022_Feb_02_1545,TMTAB,2021.2.3,143.18175654909592,
TMTstop-B_1_5.xlsx,104:130,E,['3'],3,TMTstop-B_1_5linestimulus7.png,TMTstop-B_1_5greenlinestimulus7.png,TMTstop-B_1_5redlinestimulus7.png,5,110,,,,,,,,,0,4,4,4,0,9,9,9,1,1,65.87904480006546,None,['3'],1,[-0.0026569999754428864],65.87904480006546,None,,001,2022_Feb_02_1545,TMTAB,2021.2.3,143.18175654909592,
TMTstop-B_1_5.xlsx,104:130,6,['2'],2,TMTstop-B_1_5linestimulus8.png,TMTstop-B_1_5greenlinestimulus8.png,TMTstop-B_1_5redlinestimulus8.png,5,111,,,,,,,,,0,4,4,4,0,10,10,10,1,1,65.94901710003614,None,['2'],1,[0.11175530008040369],65.94901710003614,None,,001,2022_Feb_02_1545,TMTAB,2021.2.3,143.18175654909592,
TMTstop-B_1_5.xlsx,104:130,F,['3'],3,TMTstop-B_1_5linestimulus9.png,TMTstop-B_1_5greenlinestimulus9.png,TMTstop-B_1_5redlinestimulus9.png,5,112,,,,,,,,,0,4,4,4,0,11,11,11,1,1,66.1369641001802,None,['3'],1,[0.04810379981063306],66.1369641001802,None,,001,2022_Feb_02_1545,TMTAB,2021.2.3,143.18175654909592,
TMTstop-B_1_5.xlsx,104:130,7,['1'],1,TMTstop-B_1_5linestimulus10.png,TMTstop-B_1_5greenlinestimulus10.png,TMTstop-B_1_5redlinestimulus10.png,5,113,,,,,,,,,0,4,4,4,0,12,12,12,1,1,66.26119890017435,None,['1'],1,[0.0557305000256747],66.26119890017435,None,,001,2022_Feb_02_1545,TMTAB,2021.2.3,143.18175654909592,
TMTstop-B_1_5.xlsx,104:130,G,['3'],3,TMTstop-B_1_5linestimulus11.png,TMTstop-B_1_5greenlinestimulus11.png,TMTstop-B_1_5redlinestimulus11.png,5,114,,,,,,,,,0,4,4,4,0,13,13,13,2,0,66.39318830007687,None,"['2', '3']",1,"[-0.002849699929356575, 0.10285250004380941]",66.39318830007687,None,,001,2022_Feb_02_1545,TMTAB,2021.2.3,143.18175654909592,
TMTstop-B_1_5.xlsx,104:130,8,['1'],1,TMTstop-B_1_5linestimulus12.png,TMTstop-B_1_5greenlinestimulus12.png,TMTstop-B_1_5redlinestimulus12.png,5,115,,,,,,,,,0,4,4,4,0,14,14,14,1,1,66.60914640012197,None,['1'],1,[0.004335399949923158],66.60914640012197,None,,001,2022_Feb_02_1545,TMTAB,2021.2.3,143.18175654909592,
TMTstop-B_1_5.xlsx,104:130,H,['2'],2,TMTstop-B_1_5linestimulus13.png,TMTstop-B_1_5greenlinestimulus13.png,TMTstop-B_1_5redlinestimulus13.png,5,116,,,,,,,,,0,4,4,4,0,15,15,15,1,1,66.69848720007576,None,['2'],1,[0.00729249999858439],66.69848720007576,None,,001,2022_Feb_02_1545,TMTAB,2021.2.3,143.18175654909592,
TMTstop-B_1_5.xlsx,104:130,9,['3'],3,TMTstop-B_1_5linestimulus14.png,TMTstop-B_1_5greenlinestimulus14.png,TMTstop-B_1_5redlinestimulus14.png,5,117,,,,,,,,,0,4,4,4,0,16,16,16,1,1,66.78899720008485,None,['3'],1,[0.00613359990529716],66.78899720008485,None,,001,2022_Feb_02_1545,TMTAB,2021.2.3,143.18175654909592,
TMTstop-B_1_5.xlsx,104:130,I,['1'],1,TMTstop-B_1_5linestimulus15.png,TMTstop-B_1_5greenlinestimulus15.png,TMTstop-B_1_5redlinestimulus15.png,5,118,,,,,,,,,0,4,4,4,0,17,17,17,1,1,66.87981509999372,None,['1'],1,[0.07794540002942085],66.87981509999372,None,,001,2022_Feb_02_1545,TMTAB,2021.2.3,143.18175654909592,
TMTstop-B_1_5.xlsx,104:130,10,['3'],3,TMTstop-B_1_5linestimulus16.png,TMTstop-B_1_5greenlinestimulus16.png,TMTstop-B_1_5redlinestimulus16.png,5,119,,,,,,,,,0,4,4,4,0,18,18,18,2,0,67.03939600009471,None,"['2', '3']",1,"[-0.035379100125283, 0.08185760001651943]",67.03939600009471,None,,001,2022_Feb_02_1545,TMTAB,2021.2.3,143.18175654909592,
TMTstop-B_1_5.xlsx,104:130,J,['2'],2,TMTstop-B_1_5linestimulus17.png,TMTstop-B_1_5greenlinestimulus17.png,TMTstop-B_1_5redlinestimulus17.png,5,120,,,,,,,,,0,4,4,4,0,19,19,19,2,0,67.19177190004848,None,"['1', '2']",1,"[0.05335450009442866, 0.1549565999303013]",67.19177190004848,None,,001,2022_Feb_02_1545,TMTAB,2021.2.3,143.18175654909592,
TMTstop-B_1_5.xlsx,104:130,11,['1'],1,TMTstop-B_1_5linestimulus18.png,TMTstop-B_1_5greenlinestimulus18.png,TMTstop-B_1_5redlinestimulus18.png,5,121,,,,,,,,,0,4,4,4,0,20,20,20,2,0,67.47806890006177,None,"['3', '1']",1,"[-0.011598800076171756, 0.1669028999749571]",67.47806890006177,None,,001,2022_Feb_02_1545,TMTAB,2021.2.3,143.18175654909592,
TMTstop-B_1_5.xlsx,104:130,K,['2'],2,TMTstop-B_1_5linestimulus19.png,TMTstop-B_1_5greenlinestimulus19.png,TMTstop-B_1_5redlinestimulus19.png,5,122,,,,,,,,,0,4,4,4,0,21,21,21,1,1,67.77779560000636,None,['2'],1,[-0.0727764000184834],67.77779560000636,None,,001,2022_Feb_02_1545,TMTAB,2021.2.3,143.18175654909592,
TMTstop-B_1_5.xlsx,104:130,12,['3'],3,TMTstop-B_1_5linestimulus20.png,TMTstop-B_1_5greenlinestimulus20.png,TMTstop-B_1_5redlinestimulus20.png,5,123,,,,,,,,,0,4,4,4,0,22,22,22,1,1,67.86537900008261,None,['3'],1,[0.09183299983851612],67.86537900008261,None,,001,2022_Feb_02_1545,TMTAB,2021.2.3,143.18175654909592,
TMTstop-B_1_5.xlsx,104:130,L,['1'],1,TMTstop-B_1_5linestimulus21.png,TMTstop-B_1_5greenlinestimulus21.png,TMTstop-B_1_5redlinestimulus21.png,5,124,,,,,,,,,0,4,4,4,0,23,23,23,1,1,68.03889620001428,None,['1'],1,[0.18257570010609925],68.03889620001428,None,,001,2022_Feb_02_1545,TMTAB,2021.2.3,143.18175654909592,
TMTstop-B_1_5.xlsx,104:130,13,['3'],3,TMTstop-B_1_5linestimulus22.png,TMTstop-B_1_5greenlinestimulus22.png,TMTstop-B_1_5redlinestimulus22.png,5,125,,,,,,,,,0,4,4,4,0,24,24,24,1,1,68.3033310000319,None,['3'],1,[0.947166700148955],68.3033310000319,None,,001,2022_Feb_02_1545,TMTAB,2021.2.3,143.18175654909592,
TMTstop-B_1_5.xlsx,104:130,None,None,None,TMTstop-B_1_5linestimulus23.png,TMTstop-B_1_5greenlinestimulus23.png,TMTstop-B_1_5redlinestimulus23.png,5,Feedback_last,,,,,,,,,0,4,4,4,0,25,25,25,0,0,69.33128030016087,None,None,1,,69.33128030016087,None,,001,2022_Feb_02_1545,TMTAB,2021.2.3,143.18175654909592,
