Block_file,Condition_rows,NumberLetter,corrAns,Correct,StimFile,Correct_StimFile,False_StimFile,Block,TrialNumber_session,restartpractice.thisRepN,restartpractice.thisTrialN,restartpractice.thisN,restartpractice.thisIndex,trials_practice.thisRepN,trials_practice.thisTrialN,trials_practice.thisN,trials_practice.thisIndex,Blocks_loop.thisRepN,Blocks_loop.thisTrialN,Blocks_loop.thisN,Blocks_loop.thisIndex,trials.thisRepN,trials.thisTrialN,trials.thisN,trials.thisIndex,Attempts,First_attempt,Stim.started,Stim.stopped,key_resp_2.keys,key_resp_2.corr,key_resp_2.rt,key_resp_2.started,key_resp_2.stopped,participant,session,date,expName,psychopyVersion,frameRate,
TMTstop-B_1_1.xlsx,0:26,1,['2'],2,TMTstop-B_1_1.png,TMTstop-B_1_1.png,TMTstop-B_1_1.png,1,1,,,,,,,,,0,0,0,0,0,0,0,0,2,0,17.585428199963644,None,"['1', '2']",1,"[0.5138764998409897, 0.5899079998489469]",17.585428199963644,None,,001,2022_Feb_02_1551,TMTAB,2021.2.3,143.45802719841947,
TMTstop-B_1_1.xlsx,0:26,A,['1'],1,TMTstop-B_1_1.png,TMTstop-B_1_1firstgreen.png,TMTstop-B_1_1firstred.png,1,2,,,,,,,,,0,0,0,0,0,1,1,1,2,0,18.25917679979466,None,"['3', '1']",1,"[0.018760500010102987, 0.17440390004776418]",18.25917679979466,None,,001,2022_Feb_02_1551,TMTAB,2021.2.3,143.45802719841947,
TMTstop-B_1_1.xlsx,0:26,2,['2'],2,TMTstop-B_1_1linestimulus0.png,TMTstop-B_1_1greenlinestimulus0.png,TMTstop-B_1_1redlinestimulus0.png,1,3,,,,,,,,,0,0,0,0,0,2,2,2,1,1,18.523182699922472,None,['2'],1,[-0.04429290001280606],18.523182699922472,None,,001,2022_Feb_02_1551,TMTAB,2021.2.3,143.45802719841947,
TMTstop-B_1_1.xlsx,0:26,B,['1'],1,TMTstop-B_1_1linestimulus1.png,TMTstop-B_1_1greenlinestimulus1.png,TMTstop-B_1_1redlinestimulus1.png,1,4,,,,,,,,,0,0,0,0,0,3,3,3,2,0,18.59941489994526,None,"['3', '1']",1,"[-0.0012254000175744295, 0.13243429991416633]",18.59941489994526,None,,001,2022_Feb_02_1551,TMTAB,2021.2.3,143.45802719841947,
TMTstop-B_1_1.xlsx,0:26,3,['3'],3,TMTstop-B_1_1linestimulus2.png,TMTstop-B_1_1greenlinestimulus2.png,TMTstop-B_1_1redlinestimulus2.png,1,5,,,,,,,,,0,0,0,0,0,4,4,4,2,0,18.843035199912265,None,"['2', '3']",1,"[-0.052847000071778893, 0.05772299994714558]",18.843035199912265,None,,001,2022_Feb_02_1551,TMTAB,2021.2.3,143.45802719841947,
TMTstop-B_1_1.xlsx,0:26,C,['2'],2,TMTstop-B_1_1linestimulus3.png,TMTstop-B_1_1greenlinestimulus3.png,TMTstop-B_1_1redlinestimulus3.png,1,6,,,,,,,,,0,0,0,0,0,5,5,5,2,0,19.002546799834818,None,"['1', '2']",1,"[0.058995299972593784, 0.09841610002331436]",19.002546799834818,None,,001,2022_Feb_02_1551,TMTAB,2021.2.3,143.45802719841947,
TMTstop-B_1_1.xlsx,0:26,4,['3'],3,TMTstop-B_1_1linestimulus4.png,TMTstop-B_1_1greenlinestimulus4.png,TMTstop-B_1_1redlinestimulus4.png,1,7,,,,,,,,,0,0,0,0,0,6,6,6,1,1,19.189648399828002,None,['3'],1,[0.04227559990249574],19.189648399828002,None,,001,2022_Feb_02_1551,TMTAB,2021.2.3,143.45802719841947,
TMTstop-B_1_1.xlsx,0:26,D,['1'],1,TMTstop-B_1_1linestimulus5.png,TMTstop-B_1_1greenlinestimulus5.png,TMTstop-B_1_1redlinestimulus5.png,1,8,,,,,,,,,0,0,0,0,0,7,7,7,1,1,19.32239819993265,None,['1'],1,[0.0446259998716414],19.32239819993265,None,,001,2022_Feb_02_1551,TMTAB,2021.2.3,143.45802719841947,
TMTstop-B_1_1.xlsx,0:26,5,['2'],2,TMTstop-B_1_1linestimulus6.png,TMTstop-B_1_1greenlinestimulus6.png,TMTstop-B_1_1redlinestimulus6.png,1,9,,,,,,,,,0,0,0,0,0,8,8,8,1,1,19.448798399884254,None,['2'],1,[-0.012152599869295955],19.448798399884254,None,,001,2022_Feb_02_1551,TMTAB,2021.2.3,143.45802719841947,
TMTstop-B_1_1.xlsx,0:26,E,['3'],3,TMTstop-B_1_1linestimulus7.png,TMTstop-B_1_1greenlinestimulus7.png,TMTstop-B_1_1redlinestimulus7.png,1,10,,,,,,,,,0,0,0,0,0,9,9,9,1,1,19.523864399874583,None,['3'],1,[0.03266739984974265],19.523864399874583,None,,001,2022_Feb_02_1551,TMTAB,2021.2.3,143.45802719841947,
TMTstop-B_1_1.xlsx,0:26,6,['1'],1,TMTstop-B_1_1linestimulus8.png,TMTstop-B_1_1greenlinestimulus8.png,TMTstop-B_1_1redlinestimulus8.png,1,11,,,,,,,,,0,0,0,0,0,10,10,10,3,0,19.64184259995818,None,"['2', '3', '1']",1,"[0.11136380000971258, 0.2448229999281466, 0.3841531998477876]",19.64184259995818,None,,001,2022_Feb_02_1551,TMTAB,2021.2.3,143.45802719841947,
TMTstop-B_1_1.xlsx,0:26,F,['2'],2,TMTstop-B_1_1linestimulus9.png,TMTstop-B_1_1greenlinestimulus9.png,TMTstop-B_1_1redlinestimulus9.png,1,12,,,,,,,,,0,0,0,0,0,11,11,11,1,1,20.12089159991592,None,['2'],1,[-0.03851959994062781],20.12089159991592,None,,001,2022_Feb_02_1551,TMTAB,2021.2.3,143.45802719841947,
TMTstop-B_1_1.xlsx,0:26,7,['1'],1,TMTstop-B_1_1linestimulus10.png,TMTstop-B_1_1greenlinestimulus10.png,TMTstop-B_1_1redlinestimulus10.png,1,13,,,,,,,,,0,0,0,0,0,12,12,12,2,0,20.196943399962038,None,"['3', '1']",1,"[0.00898470007814467, 0.1375335999764502]",20.196943399962038,None,,001,2022_Feb_02_1551,TMTAB,2021.2.3,143.45802719841947,
TMTstop-B_1_1.xlsx,0:26,G,['2'],2,TMTstop-B_1_1linestimulus11.png,TMTstop-B_1_1greenlinestimulus11.png,TMTstop-B_1_1redlinestimulus11.png,1,14,,,,,,,,,0,0,0,0,0,13,13,13,1,1,20.412801899947226,None,['2'],1,[-0.033292399952188134],20.412801899947226,None,,001,2022_Feb_02_1551,TMTAB,2021.2.3,143.45802719841947,
TMTstop-B_1_1.xlsx,0:26,8,['1'],1,TMTstop-B_1_1linestimulus12.png,TMTstop-B_1_1greenlinestimulus12.png,TMTstop-B_1_1redlinestimulus12.png,1,15,,,,,,,,,0,0,0,0,0,14,14,14,2,0,20.49526229989715,None,"['3', '1']",1,"[0.028550300048664212, 0.1646479000337422]",20.49526229989715,None,,001,2022_Feb_02_1551,TMTAB,2021.2.3,143.45802719841947,
TMTstop-B_1_1.xlsx,0:26,H,['2'],2,TMTstop-B_1_1linestimulus13.png,TMTstop-B_1_1greenlinestimulus13.png,TMTstop-B_1_1redlinestimulus13.png,1,16,,,,,,,,,0,0,0,0,0,15,15,15,1,1,20.73835979984142,None,['2'],1,[-0.01993479998782277],20.73835979984142,None,,001,2022_Feb_02_1551,TMTAB,2021.2.3,143.45802719841947,
TMTstop-B_1_1.xlsx,0:26,9,['3'],3,TMTstop-B_1_1linestimulus14.png,TMTstop-B_1_1greenlinestimulus14.png,TMTstop-B_1_1redlinestimulus14.png,1,17,,,,,,,,,0,0,0,0,0,16,16,16,1,1,20.80844619986601,None,['3'],1,[0.0396745998878032],20.80844619986601,None,,001,2022_Feb_02_1551,TMTAB,2021.2.3,143.45802719841947,
TMTstop-B_1_1.xlsx,0:26,I,['1'],1,TMTstop-B_1_1linestimulus15.png,TMTstop-B_1_1greenlinestimulus15.png,TMTstop-B_1_1redlinestimulus15.png,1,18,,,,,,,,,0,0,0,0,0,17,17,17,1,1,20.933255899930373,None,['1'],1,[0.052886500023305416],20.933255899930373,None,,001,2022_Feb_02_1551,TMTAB,2021.2.3,143.45802719841947,
TMTstop-B_1_1.xlsx,0:26,10,['2'],2,TMTstop-B_1_1linestimulus16.png,TMTstop-B_1_1greenlinestimulus16.png,TMTstop-B_1_1redlinestimulus16.png,1,19,,,,,,,,,0,0,0,0,0,18,18,18,1,1,21.064769399818033,None,['2'],1,[-0.011140399845317006],21.064769399818033,None,,001,2022_Feb_02_1551,TMTAB,2021.2.3,143.45802719841947,
TMTstop-B_1_1.xlsx,0:26,J,['1'],1,TMTstop-B_1_1linestimulus17.png,TMTstop-B_1_1greenlinestimulus17.png,TMTstop-B_1_1redlinestimulus17.png,1,20,,,,,,,,,0,0,0,0,0,19,19,19,2,0,21.14122419990599,None,"['3', '1']",1,"[0.02783329994417727, 0.15904029994271696]",21.14122419990599,None,,001,2022_Feb_02_1551,TMTAB,2021.2.3,143.45802719841947,
TMTstop-B_1_1.xlsx,0:26,11,['2'],2,TMTstop-B_1_1linestimulus18.png,TMTstop-B_1_1greenlinestimulus18.png,TMTstop-B_1_1redlinestimulus18.png,1,21,,,,,,,,,0,0,0,0,0,20,20,20,1,1,21.378015299793333,None,['2'],1,[0.015486599877476692],21.378015299793333,None,,001,2022_Feb_02_1551,TMTAB,2021.2.3,143.45802719841947,
TMTstop-B_1_1.xlsx,0:26,K,['3'],3,TMTstop-B_1_1linestimulus19.png,TMTstop-B_1_1greenlinestimulus19.png,TMTstop-B_1_1redlinestimulus19.png,1,22,,,,,,,,,0,0,0,0,0,21,21,21,1,1,21.474219899857417,None,['3'],1,[0.033332099905237556],21.474219899857417,None,,001,2022_Feb_02_1551,TMTAB,2021.2.3,143.45802719841947,
TMTstop-B_1_1.xlsx,0:26,12,['1'],1,TMTstop-B_1_1linestimulus20.png,TMTstop-B_1_1greenlinestimulus20.png,TMTstop-B_1_1redlinestimulus20.png,1,23,,,,,,,,,0,0,0,0,0,22,22,22,1,1,21.62717889994383,None,['1'],1,[0.020586499944329262],21.62717889994383,None,,001,2022_Feb_02_1551,TMTAB,2021.2.3,143.45802719841947,
TMTstop-B_1_1.xlsx,0:26,L,['3'],3,TMTstop-B_1_1linestimulus21.png,TMTstop-B_1_1greenlinestimulus21.png,TMTstop-B_1_1redlinestimulus21.png,1,24,,,,,,,,,0,0,0,0,0,23,23,23,2,0,21.731717999791726,None,"['2', '3']",1,"[-0.016787799773737788, 0.12323190015740693]",21.731717999791726,None,,001,2022_Feb_02_1551,TMTAB,2021.2.3,143.45802719841947,
TMTstop-B_1_1.xlsx,0:26,13,['2'],2,TMTstop-B_1_1linestimulus22.png,TMTstop-B_1_1greenlinestimulus22.png,TMTstop-B_1_1redlinestimulus22.png,1,25,,,,,,,,,0,0,0,0,0,24,24,24,2,0,21.93377979984507,None,"['1', '2']",1,"[0.025735200149938464, 0.10937930014915764]",21.93377979984507,None,,001,2022_Feb_02_1551,TMTAB,2021.2.3,143.45802719841947,
TMTstop-B_1_1.xlsx,0:26,None,None,None,TMTstop-B_1_1linestimulus23.png,TMTstop-B_1_1greenlinestimulus23.png,TMTstop-B_1_1redlinestimulus23.png,1,Feedback_last,,,,,,,,,0,0,0,0,0,25,25,25,2,0,22.12729709991254,None,"['3', '1']",0,"[0.059841200010851026, 0.15494040003977716]",22.12729709991254,None,,001,2022_Feb_02_1551,TMTAB,2021.2.3,143.45802719841947,
TMTstop-B_1_2.xlsx,26:52,1,['2'],2,TMTstop-B_1_2.png,TMTstop-B_1_2.png,TMTstop-B_1_2.png,2,26,,,,,,,,,0,1,1,1,0,0,0,0,2,0,26.251795999938622,None,"['1', '2']",1,"[0.5112267001532018, 0.6615288001485169]",26.251795999938622,None,,001,2022_Feb_02_1551,TMTAB,2021.2.3,143.45802719841947,
TMTstop-B_1_2.xlsx,26:52,A,['3'],3,TMTstop-B_1_2.png,TMTstop-B_1_2firstgreen.png,TMTstop-B_1_2firstred.png,2,27,,,,,,,,,0,1,1,1,0,1,1,1,1,1,26.995556199923158,None,['3'],1,[-0.042205499950796366],26.995556199923158,None,,001,2022_Feb_02_1551,TMTAB,2021.2.3,143.45802719841947,
TMTstop-B_1_2.xlsx,26:52,2,['1'],1,TMTstop-B_1_2linestimulus0.png,TMTstop-B_1_2greenlinestimulus0.png,TMTstop-B_1_2redlinestimulus0.png,2,28,,,,,,,,,0,1,1,1,0,2,2,2,1,1,27.07316689984873,None,['1'],1,[0.03259499999694526],27.07316689984873,None,,001,2022_Feb_02_1551,TMTAB,2021.2.3,143.45802719841947,
TMTstop-B_1_2.xlsx,26:52,B,['2'],2,TMTstop-B_1_2linestimulus1.png,TMTstop-B_1_2greenlinestimulus1.png,TMTstop-B_1_2redlinestimulus1.png,2,29,,,,,,,,,0,1,1,1,0,3,3,3,1,1,27.198015599977225,None,['2'],1,[-0.029345900053158402],27.198015599977225,None,,001,2022_Feb_02_1551,TMTAB,2021.2.3,143.45802719841947,
TMTstop-B_1_2.xlsx,26:52,3,['3'],3,TMTstop-B_1_2linestimulus2.png,TMTstop-B_1_2greenlinestimulus2.png,TMTstop-B_1_2redlinestimulus2.png,2,30,,,,,,,,,0,1,1,1,0,4,4,4,1,1,27.280874099815264,None,['3'],1,[-0.010144400177523494],27.280874099815264,None,,001,2022_Feb_02_1551,TMTAB,2021.2.3,143.45802719841947,
TMTstop-B_1_2.xlsx,26:52,C,['1'],1,TMTstop-B_1_2linestimulus3.png,TMTstop-B_1_2greenlinestimulus3.png,TMTstop-B_1_2redlinestimulus3.png,2,31,,,,,,,,,0,1,1,1,0,5,5,5,1,1,27.372024099808186,None,['1'],1,[0.022158300038427114],27.372024099808186,None,,001,2022_Feb_02_1551,TMTAB,2021.2.3,143.45802719841947,
TMTstop-B_1_2.xlsx,26:52,4,['2'],2,TMTstop-B_1_2linestimulus4.png,TMTstop-B_1_2greenlinestimulus4.png,TMTstop-B_1_2redlinestimulus4.png,2,32,,,,,,,,,0,1,1,1,0,6,6,6,1,1,27.490076399873942,None,['2'],1,[-0.028250099858269095],27.490076399873942,None,,001,2022_Feb_02_1551,TMTAB,2021.2.3,143.45802719841947,
TMTstop-B_1_2.xlsx,26:52,D,['3'],3,TMTstop-B_1_2linestimulus5.png,TMTstop-B_1_2greenlinestimulus5.png,TMTstop-B_1_2redlinestimulus5.png,2,33,,,,,,,,,0,1,1,1,0,7,7,7,1,1,27.571446100017056,None,['3'],1,[-0.00777359982021153],27.571446100017056,None,,001,2022_Feb_02_1551,TMTAB,2021.2.3,143.45802719841947,
TMTstop-B_1_2.xlsx,26:52,5,['2'],2,TMTstop-B_1_2linestimulus6.png,TMTstop-B_1_2greenlinestimulus6.png,TMTstop-B_1_2redlinestimulus6.png,2,34,,,,,,,,,0,1,1,1,0,8,8,8,2,0,27.647817599819973,None,"['1', '2']",1,"[0.029489999869838357, 0.15819029998965561]",27.647817599819973,None,,001,2022_Feb_02_1551,TMTAB,2021.2.3,143.45802719841947,
TMTstop-B_1_2.xlsx,26:52,E,['1'],1,TMTstop-B_1_2linestimulus7.png,TMTstop-B_1_2greenlinestimulus7.png,TMTstop-B_1_2redlinestimulus7.png,2,35,,,,,,,,,0,1,1,1,0,9,9,9,2,0,27.890861299820244,None,"['3', '1']",1,"[-0.025751400040462613, 0.11709919990971684]",27.890861299820244,None,,001,2022_Feb_02_1551,TMTAB,2021.2.3,143.45802719841947,
TMTstop-B_1_2.xlsx,26:52,6,['3'],3,TMTstop-B_1_2linestimulus8.png,TMTstop-B_1_2greenlinestimulus8.png,TMTstop-B_1_2redlinestimulus8.png,2,36,,,,,,,,,0,1,1,1,0,10,10,10,2,0,28.092339699855074,None,"['2', '3']",1,"[-0.010506800143048167, 0.08551779994741082]",28.092339699855074,None,,001,2022_Feb_02_1551,TMTAB,2021.2.3,143.45802719841947,
TMTstop-B_1_2.xlsx,26:52,F,['1'],1,TMTstop-B_1_2linestimulus9.png,TMTstop-B_1_2greenlinestimulus9.png,TMTstop-B_1_2redlinestimulus9.png,2,37,,,,,,,,,0,1,1,1,0,11,11,11,1,1,28.287833499955013,None,['1'],1,[0.02713089995086193],28.287833499955013,None,,001,2022_Feb_02_1551,TMTAB,2021.2.3,143.45802719841947,
TMTstop-B_1_2.xlsx,26:52,7,['3'],3,TMTstop-B_1_2linestimulus10.png,TMTstop-B_1_2greenlinestimulus10.png,TMTstop-B_1_2redlinestimulus10.png,2,38,,,,,,,,,0,1,1,1,0,12,12,12,1,1,28.39172809990123,None,['3'],1,[0.1308616001624614],28.39172809990123,None,,001,2022_Feb_02_1551,TMTAB,2021.2.3,143.45802719841947,
TMTstop-B_1_2.xlsx,26:52,G,['2'],2,TMTstop-B_1_2linestimulus11.png,TMTstop-B_1_2greenlinestimulus11.png,TMTstop-B_1_2redlinestimulus11.png,2,39,,,,,,,,,0,1,1,1,0,13,13,13,2,0,28.599150099791586,None,"['1', '2']",1,"[0.14140939991921186, 0.2362746000289917]",28.599150099791586,None,,001,2022_Feb_02_1551,TMTAB,2021.2.3,143.45802719841947,
TMTstop-B_1_2.xlsx,26:52,8,['3'],3,TMTstop-B_1_2linestimulus12.png,TMTstop-B_1_2greenlinestimulus12.png,TMTstop-B_1_2redlinestimulus12.png,2,40,,,,,,,,,0,1,1,1,0,14,14,14,1,1,28.94673560000956,None,['3'],1,[-0.009180900175124407],28.94673560000956,None,,001,2022_Feb_02_1551,TMTAB,2021.2.3,143.45802719841947,
TMTstop-B_1_2.xlsx,26:52,H,['2'],2,TMTstop-B_1_2linestimulus13.png,TMTstop-B_1_2greenlinestimulus13.png,TMTstop-B_1_2redlinestimulus13.png,2,41,,,,,,,,,0,1,1,1,0,15,15,15,2,0,29.023201199946925,None,"['1', '2']",1,"[0.06931290007196367, 0.13954480015672743]",29.023201199946925,None,,001,2022_Feb_02_1551,TMTAB,2021.2.3,143.45802719841947,
TMTstop-B_1_2.xlsx,26:52,9,['3'],3,TMTstop-B_1_2linestimulus14.png,TMTstop-B_1_2greenlinestimulus14.png,TMTstop-B_1_2redlinestimulus14.png,2,42,,,,,,,,,0,1,1,1,0,16,16,16,1,1,29.252218599896878,None,['3'],1,[0.015264500165358186],29.252218599896878,None,,001,2022_Feb_02_1551,TMTAB,2021.2.3,143.45802719841947,
TMTstop-B_1_2.xlsx,26:52,I,['1'],1,TMTstop-B_1_2linestimulus15.png,TMTstop-B_1_2greenlinestimulus15.png,TMTstop-B_1_2redlinestimulus15.png,2,43,,,,,,,,,0,1,1,1,0,17,17,17,1,1,29.34942889981903,None,['1'],1,[0.04221260012127459],29.34942889981903,None,,001,2022_Feb_02_1551,TMTAB,2021.2.3,143.45802719841947,
TMTstop-B_1_2.xlsx,26:52,10,['2'],2,TMTstop-B_1_2linestimulus16.png,TMTstop-B_1_2greenlinestimulus16.png,TMTstop-B_1_2redlinestimulus16.png,2,44,,,,,,,,,0,1,1,1,0,18,18,18,1,1,29.48123069992289,None,['2'],1,[-0.006241999799385667],29.48123069992289,None,,001,2022_Feb_02_1551,TMTAB,2021.2.3,143.45802719841947,
TMTstop-B_1_2.xlsx,26:52,J,['3'],3,TMTstop-B_1_2linestimulus17.png,TMTstop-B_1_2greenlinestimulus17.png,TMTstop-B_1_2redlinestimulus17.png,2,45,,,,,,,,,0,1,1,1,0,19,19,19,1,1,29.55064839986153,None,['3'],1,[0.05840790015645325],29.55064839986153,None,,001,2022_Feb_02_1551,TMTAB,2021.2.3,143.45802719841947,
TMTstop-B_1_2.xlsx,26:52,11,['2'],2,TMTstop-B_1_2linestimulus18.png,TMTstop-B_1_2greenlinestimulus18.png,TMTstop-B_1_2redlinestimulus18.png,2,46,,,,,,,,,0,1,1,1,0,20,20,20,2,0,29.689682699972764,None,"['1', '2']",1,"[0.0297475999686867, 0.09390159999020398]",29.689682699972764,None,,001,2022_Feb_02_1551,TMTAB,2021.2.3,143.45802719841947,
TMTstop-B_1_2.xlsx,26:52,K,['3'],3,TMTstop-B_1_2linestimulus19.png,TMTstop-B_1_2greenlinestimulus19.png,TMTstop-B_1_2redlinestimulus19.png,2,47,,,,,,,,,0,1,1,1,0,21,21,21,1,1,29.883905299939215,None,['3'],1,[0.01157859992235899],29.883905299939215,None,,001,2022_Feb_02_1551,TMTAB,2021.2.3,143.45802719841947,
TMTstop-B_1_2.xlsx,26:52,12,['1'],1,TMTstop-B_1_2linestimulus20.png,TMTstop-B_1_2greenlinestimulus20.png,TMTstop-B_1_2redlinestimulus20.png,2,48,,,,,,,,,0,1,1,1,0,22,22,22,1,1,29.9745606998913,None,['1'],1,[0.05401769978925586],29.9745606998913,None,,001,2022_Feb_02_1551,TMTAB,2021.2.3,143.45802719841947,
TMTstop-B_1_2.xlsx,26:52,L,['2'],2,TMTstop-B_1_2linestimulus21.png,TMTstop-B_1_2greenlinestimulus21.png,TMTstop-B_1_2redlinestimulus21.png,2,49,,,,,,,,,0,1,1,1,0,23,23,23,1,1,30.113233499927446,None,['2'],1,[0.02401809999719262],30.113233499927446,None,,001,2022_Feb_02_1551,TMTAB,2021.2.3,143.45802719841947,
TMTstop-B_1_2.xlsx,26:52,13,['3'],3,TMTstop-B_1_2linestimulus22.png,TMTstop-B_1_2greenlinestimulus22.png,TMTstop-B_1_2redlinestimulus22.png,2,50,,,,,,,,,0,1,1,1,0,24,24,24,1,1,30.218189699808136,None,['3'],1,[0.015921799931675196],30.218189699808136,None,,001,2022_Feb_02_1551,TMTAB,2021.2.3,143.45802719841947,
TMTstop-B_1_2.xlsx,26:52,None,None,None,TMTstop-B_1_2linestimulus23.png,TMTstop-B_1_2greenlinestimulus23.png,TMTstop-B_1_2redlinestimulus23.png,2,Feedback_last,,,,,,,,,0,1,1,1,0,25,25,25,6,0,30.31504899985157,None,"['1', '2', '3', '1', '2', '3']",0,"[0.029269699938595295, 0.12491449993103743, 0.22117520007304847, 0.3401888001244515, 0.408916600048542, 0.5500148001592606]",30.31504899985157,None,,001,2022_Feb_02_1551,TMTAB,2021.2.3,143.45802719841947,
TMTstop-B_1_3.xlsx,52:78,1,['3'],3,TMTstop-B_1_3.png,TMTstop-B_1_3.png,TMTstop-B_1_3.png,3,51,,,,,,,,,0,2,2,2,0,0,0,0,3,0,34.432059000013396,None,"['1', '2', '3']",1,"[0.6229689999017864, 0.6873496000189334, 0.8037390001118183]",34.432059000013396,None,,001,2022_Feb_02_1551,TMTAB,2021.2.3,143.45802719841947,
TMTstop-B_1_3.xlsx,52:78,A,['2'],2,TMTstop-B_1_3.png,TMTstop-B_1_3firstgreen.png,TMTstop-B_1_3firstred.png,3,52,,,,,,,,,0,2,2,2,0,1,1,1,2,0,35.341987599851564,None,"['1', '2']",1,"[0.03820159984752536, 0.12670889985747635]",35.341987599851564,None,,001,2022_Feb_02_1551,TMTAB,2021.2.3,143.45802719841947,
TMTstop-B_1_3.xlsx,52:78,2,['3'],3,TMTstop-B_1_3linestimulus0.png,TMTstop-B_1_3greenlinestimulus0.png,TMTstop-B_1_3redlinestimulus0.png,3,53,,,,,,,,,0,2,2,2,0,2,2,2,1,1,35.543934299843386,None,['3'],1,[0.01744839991442859],35.543934299843386,None,,001,2022_Feb_02_1551,TMTAB,2021.2.3,143.45802719841947,
TMTstop-B_1_3.xlsx,52:78,B,['2'],2,TMTstop-B_1_3linestimulus1.png,TMTstop-B_1_3greenlinestimulus1.png,TMTstop-B_1_3redlinestimulus1.png,3,54,,,,,,,,,0,2,2,2,0,3,3,3,2,0,35.633801699848846,None,"['1', '2']",1,"[0.05373160005547106, 0.12973399995826185]",35.633801699848846,None,,001,2022_Feb_02_1551,TMTAB,2021.2.3,143.45802719841947,
TMTstop-B_1_3.xlsx,52:78,3,['3'],3,TMTstop-B_1_3linestimulus2.png,TMTstop-B_1_3greenlinestimulus2.png,TMTstop-B_1_3redlinestimulus2.png,3,55,,,,,,,,,0,2,2,2,0,4,4,4,1,1,35.84908719989471,None,['3'],1,[0.01830909983254969],35.84908719989471,None,,001,2022_Feb_02_1551,TMTAB,2021.2.3,143.45802719841947,
TMTstop-B_1_3.xlsx,52:78,C,['1'],1,TMTstop-B_1_3linestimulus3.png,TMTstop-B_1_3greenlinestimulus3.png,TMTstop-B_1_3redlinestimulus3.png,3,56,,,,,,,,,0,2,2,2,0,5,5,5,1,1,35.948964699869975,None,['1'],1,[0.0781252000015229],35.948964699869975,None,,001,2022_Feb_02_1551,TMTAB,2021.2.3,143.45802719841947,
TMTstop-B_1_3.xlsx,52:78,4,['2'],2,TMTstop-B_1_3linestimulus4.png,TMTstop-B_1_3greenlinestimulus4.png,TMTstop-B_1_3redlinestimulus4.png,3,57,,,,,,,,,0,2,2,2,0,6,6,6,1,1,36.1023877998814,None,['2'],1,[-0.03394540003500879],36.1023877998814,None,,001,2022_Feb_02_1551,TMTAB,2021.2.3,143.45802719841947,
TMTstop-B_1_3.xlsx,52:78,D,['3'],3,TMTstop-B_1_3linestimulus5.png,TMTstop-B_1_3greenlinestimulus5.png,TMTstop-B_1_3redlinestimulus5.png,3,58,,,,,,,,,0,2,2,2,0,7,7,7,1,1,36.178646999876946,None,['3'],1,[0.028920899843797088],36.178646999876946,None,,001,2022_Feb_02_1551,TMTAB,2021.2.3,143.45802719841947,
TMTstop-B_1_3.xlsx,52:78,5,['2'],2,TMTstop-B_1_3linestimulus6.png,TMTstop-B_1_3greenlinestimulus6.png,TMTstop-B_1_3redlinestimulus6.png,3,59,,,,,,,,,0,2,2,2,0,8,8,8,2,0,36.28653099993244,None,"['1', '2']",1,"[0.04932160000316799, 0.125957400072366]",36.28653099993244,None,,001,2022_Feb_02_1551,TMTAB,2021.2.3,143.45802719841947,
TMTstop-B_1_3.xlsx,52:78,E,['3'],3,TMTstop-B_1_3linestimulus7.png,TMTstop-B_1_3greenlinestimulus7.png,TMTstop-B_1_3redlinestimulus7.png,3,60,,,,,,,,,0,2,2,2,0,9,9,9,1,1,36.50223089987412,None,['3'],1,[0.016263199970126152],36.50223089987412,None,,001,2022_Feb_02_1551,TMTAB,2021.2.3,143.45802719841947,
TMTstop-B_1_3.xlsx,52:78,6,['1'],1,TMTstop-B_1_3linestimulus8.png,TMTstop-B_1_3greenlinestimulus8.png,TMTstop-B_1_3redlinestimulus8.png,3,61,,,,,,,,,0,2,2,2,0,10,10,10,1,1,36.60693429992534,None,['1'],1,[0.08021749998442829],36.60693429992534,None,,001,2022_Feb_02_1551,TMTAB,2021.2.3,143.45802719841947,
TMTstop-B_1_3.xlsx,52:78,F,['3'],3,TMTstop-B_1_3linestimulus9.png,TMTstop-B_1_3greenlinestimulus9.png,TMTstop-B_1_3redlinestimulus9.png,3,62,,,,,,,,,0,2,2,2,0,11,11,11,2,0,36.765604299958795,None,"['2', '3']",1,"[0.014631099998950958, 0.11910649994388223]",36.765604299958795,None,,001,2022_Feb_02_1551,TMTAB,2021.2.3,143.45802719841947,
TMTstop-B_1_3.xlsx,52:78,7,['1'],1,TMTstop-B_1_3linestimulus10.png,TMTstop-B_1_3greenlinestimulus10.png,TMTstop-B_1_3redlinestimulus10.png,3,63,,,,,,,,,0,2,2,2,0,12,12,12,1,1,36.994844399858266,None,['1'],1,[0.10149069991894066],36.994844399858266,None,,001,2022_Feb_02_1551,TMTAB,2021.2.3,143.45802719841947,
TMTstop-B_1_3.xlsx,52:78,G,['3'],3,TMTstop-B_1_3linestimulus11.png,TMTstop-B_1_3greenlinestimulus11.png,TMTstop-B_1_3redlinestimulus11.png,3,64,,,,,,,,,0,2,2,2,0,13,13,13,2,0,37.176264700014144,None,"['2', '3']",1,"[-0.04001639992929995, 0.10238870000466704]",37.176264700014144,None,,001,2022_Feb_02_1551,TMTAB,2021.2.3,143.45802719841947,
TMTstop-B_1_3.xlsx,52:78,8,['2'],2,TMTstop-B_1_3linestimulus12.png,TMTstop-B_1_3greenlinestimulus12.png,TMTstop-B_1_3redlinestimulus12.png,3,65,,,,,,,,,0,2,2,2,0,14,14,14,2,0,37.377089799847454,None,"['1', '2']",1,"[0.05333020002581179, 0.13817719998769462]",37.377089799847454,None,,001,2022_Feb_02_1551,TMTAB,2021.2.3,143.45802719841947,
TMTstop-B_1_3.xlsx,52:78,H,['3'],3,TMTstop-B_1_3linestimulus13.png,TMTstop-B_1_3greenlinestimulus13.png,TMTstop-B_1_3redlinestimulus13.png,3,66,,,,,,,,,0,2,2,2,0,15,15,15,1,1,37.59355779993348,None,['3'],1,[0.021240000147372484],37.59355779993348,None,,001,2022_Feb_02_1551,TMTAB,2021.2.3,143.45802719841947,
TMTstop-B_1_3.xlsx,52:78,9,['1'],1,TMTstop-B_1_3linestimulus14.png,TMTstop-B_1_3greenlinestimulus14.png,TMTstop-B_1_3redlinestimulus14.png,3,67,,,,,,,,,0,2,2,2,0,16,16,16,1,1,37.71161449979991,None,['1'],1,[0.039150399854406714],37.71161449979991,None,,001,2022_Feb_02_1551,TMTAB,2021.2.3,143.45802719841947,
TMTstop-B_1_3.xlsx,52:78,I,['2'],2,TMTstop-B_1_3linestimulus15.png,TMTstop-B_1_3greenlinestimulus15.png,TMTstop-B_1_3redlinestimulus15.png,3,68,,,,,,,,,0,2,2,2,0,17,17,17,1,1,37.84309649979696,None,['2'],1,[0.007871299982070923],37.84309649979696,None,,001,2022_Feb_02_1551,TMTAB,2021.2.3,143.45802719841947,
TMTstop-B_1_3.xlsx,52:78,10,['3'],3,TMTstop-B_1_3linestimulus16.png,TMTstop-B_1_3greenlinestimulus16.png,TMTstop-B_1_3redlinestimulus16.png,3,69,,,,,,,,,0,2,2,2,0,18,18,18,1,1,37.9408902998548,None,['3'],1,[-0.0013731999788433313],37.9408902998548,None,,001,2022_Feb_02_1551,TMTAB,2021.2.3,143.45802719841947,
TMTstop-B_1_3.xlsx,52:78,J,['1'],1,TMTstop-B_1_3linestimulus17.png,TMTstop-B_1_3greenlinestimulus17.png,TMTstop-B_1_3redlinestimulus17.png,3,70,,,,,,,,,0,2,2,2,0,19,19,19,1,1,38.031203099992126,None,['1'],1,[0.03532020002603531],38.031203099992126,None,,001,2022_Feb_02_1551,TMTAB,2021.2.3,143.45802719841947,
TMTstop-B_1_3.xlsx,52:78,11,['3'],3,TMTstop-B_1_3linestimulus18.png,TMTstop-B_1_3greenlinestimulus18.png,TMTstop-B_1_3redlinestimulus18.png,3,71,,,,,,,,,0,2,2,2,0,20,20,20,2,0,38.147909899940714,None,"['2', '3']",1,"[0.007802700158208609, 0.12117650010623038]",38.147909899940714,None,,001,2022_Feb_02_1551,TMTAB,2021.2.3,143.45802719841947,
TMTstop-B_1_3.xlsx,52:78,K,['1'],1,TMTstop-B_1_3linestimulus19.png,TMTstop-B_1_3greenlinestimulus19.png,TMTstop-B_1_3redlinestimulus19.png,3,72,,,,,,,,,0,2,2,2,0,21,21,21,1,1,38.36344449990429,None,['1'],1,[0.03049269993789494],38.36344449990429,None,,001,2022_Feb_02_1551,TMTAB,2021.2.3,143.45802719841947,
TMTstop-B_1_3.xlsx,52:78,12,['2'],2,TMTstop-B_1_3linestimulus20.png,TMTstop-B_1_3greenlinestimulus20.png,TMTstop-B_1_3redlinestimulus20.png,3,73,,,,,,,,,0,2,2,2,0,22,22,22,1,1,38.47636999981478,None,['2'],1,[0.0026220001745969057],38.47636999981478,None,,001,2022_Feb_02_1551,TMTAB,2021.2.3,143.45802719841947,
TMTstop-B_1_3.xlsx,52:78,L,['1'],1,TMTstop-B_1_3linestimulus21.png,TMTstop-B_1_3greenlinestimulus21.png,TMTstop-B_1_3redlinestimulus21.png,3,74,,,,,,,,,0,2,2,2,0,23,23,23,2,0,38.5643027999904,None,"['3', '1']",1,"[0.02711050002835691, 0.15964549989439547]",38.5643027999904,None,,001,2022_Feb_02_1551,TMTAB,2021.2.3,143.45802719841947,
TMTstop-B_1_3.xlsx,52:78,13,['3'],3,TMTstop-B_1_3linestimulus22.png,TMTstop-B_1_3greenlinestimulus22.png,TMTstop-B_1_3redlinestimulus22.png,3,75,,,,,,,,,0,2,2,2,0,24,24,24,2,0,38.82813409995288,None,"['2', '3']",1,"[0.0016334999818354845, 0.10552570014260709]",38.82813409995288,None,,001,2022_Feb_02_1551,TMTAB,2021.2.3,143.45802719841947,
TMTstop-B_1_3.xlsx,52:78,None,None,None,TMTstop-B_1_3linestimulus23.png,TMTstop-B_1_3greenlinestimulus23.png,TMTstop-B_1_3redlinestimulus23.png,3,Feedback_last,,,,,,,,,0,2,2,2,0,25,25,25,2,0,39.043429099954665,None,"['1', '2']",0,"[0.05407249997369945, 0.11386060016229749]",39.043429099954665,None,,001,2022_Feb_02_1551,TMTAB,2021.2.3,143.45802719841947,
TMTstop-B_1_4.xlsx,78:104,1,['1'],1,TMTstop-B_1_4.png,TMTstop-B_1_4.png,TMTstop-B_1_4.png,4,76,,,,,,,,,0,3,3,3,0,0,0,0,1,1,43.15406829980202,None,['1'],1,[1.197456399910152],43.15406829980202,None,,001,2022_Feb_02_1551,TMTAB,2021.2.3,143.45802719841947,
TMTstop-B_1_4.xlsx,78:104,A,['2'],2,TMTstop-B_1_4.png,TMTstop-B_1_4firstgreen.png,TMTstop-B_1_4firstred.png,4,77,,,,,,,,,0,3,3,3,0,1,1,1,1,1,44.4252300998196,None,['2'],1,[0.045320200035348535],44.4252300998196,None,,001,2022_Feb_02_1551,TMTAB,2021.2.3,143.45802719841947,
TMTstop-B_1_4.xlsx,78:104,2,['1'],1,TMTstop-B_1_4linestimulus0.png,TMTstop-B_1_4greenlinestimulus0.png,TMTstop-B_1_4redlinestimulus0.png,4,78,,,,,,,,,0,3,3,3,0,2,2,2,2,0,44.544080999912694,None,"['3', '1']",1,"[0.034570999909192324, 0.2926753000356257]",44.544080999912694,None,,001,2022_Feb_02_1551,TMTAB,2021.2.3,143.45802719841947,
TMTstop-B_1_4.xlsx,78:104,B,['2'],2,TMTstop-B_1_4linestimulus1.png,TMTstop-B_1_4greenlinestimulus1.png,TMTstop-B_1_4redlinestimulus1.png,4,79,,,,,,,,,0,3,3,3,0,3,3,3,1,1,44.91121990000829,None,['2'],1,[-0.04859530017711222],44.91121990000829,None,,001,2022_Feb_02_1551,TMTAB,2021.2.3,143.45802719841947,
TMTstop-B_1_4.xlsx,78:104,3,['3'],3,TMTstop-B_1_4linestimulus2.png,TMTstop-B_1_4greenlinestimulus2.png,TMTstop-B_1_4redlinestimulus2.png,4,80,,,,,,,,,0,3,3,3,0,4,4,4,1,1,44.98076989990659,None,['3'],1,[0.017914000200107694],44.98076989990659,None,,001,2022_Feb_02_1551,TMTAB,2021.2.3,143.45802719841947,
TMTstop-B_1_4.xlsx,78:104,C,['2'],2,TMTstop-B_1_4linestimulus3.png,TMTstop-B_1_4greenlinestimulus3.png,TMTstop-B_1_4redlinestimulus3.png,4,81,,,,,,,,,0,3,3,3,0,5,5,5,2,0,45.071124400012195,None,"['1', '2']",1,"[0.2644344998989254, 0.35985709982924163]",45.071124400012195,None,,001,2022_Feb_02_1551,TMTAB,2021.2.3,143.45802719841947,
TMTstop-B_1_4.xlsx,78:104,4,['3'],3,TMTstop-B_1_4linestimulus4.png,TMTstop-B_1_4greenlinestimulus4.png,TMTstop-B_1_4redlinestimulus4.png,4,82,,,,,,,,,0,3,3,3,0,6,6,6,1,1,45.536560099804774,None,['3'],1,[-0.009104999946430326],45.536560099804774,None,,001,2022_Feb_02_1551,TMTAB,2021.2.3,143.45802719841947,
TMTstop-B_1_4.xlsx,78:104,D,['1'],1,TMTstop-B_1_4linestimulus5.png,TMTstop-B_1_4greenlinestimulus5.png,TMTstop-B_1_4redlinestimulus5.png,4,83,,,,,,,,,0,3,3,3,0,7,7,7,1,1,45.613569299923256,None,['1'],1,[0.09181830007582903],45.613569299923256,None,,001,2022_Feb_02_1551,TMTAB,2021.2.3,143.45802719841947,
TMTstop-B_1_4.xlsx,78:104,5,['2'],2,TMTstop-B_1_4linestimulus6.png,TMTstop-B_1_4greenlinestimulus6.png,TMTstop-B_1_4redlinestimulus6.png,4,84,,,,,,,,,0,3,3,3,0,8,8,8,1,1,45.78628809982911,None,['2'],1,[0.005494900047779083],45.78628809982911,None,,001,2022_Feb_02_1551,TMTAB,2021.2.3,143.45802719841947,
TMTstop-B_1_4.xlsx,78:104,E,['3'],3,TMTstop-B_1_4linestimulus7.png,TMTstop-B_1_4greenlinestimulus7.png,TMTstop-B_1_4redlinestimulus7.png,4,85,,,,,,,,,0,3,3,3,0,9,9,9,1,1,45.86954789981246,None,['3'],1,[0.028528800001367927],45.86954789981246,None,,001,2022_Feb_02_1551,TMTAB,2021.2.3,143.45802719841947,
TMTstop-B_1_4.xlsx,78:104,6,['1'],1,TMTstop-B_1_4linestimulus8.png,TMTstop-B_1_4greenlinestimulus8.png,TMTstop-B_1_4redlinestimulus8.png,4,86,,,,,,,,,0,3,3,3,0,10,10,10,1,1,45.973729899851605,None,['1'],1,[0.09970590006560087],45.973729899851605,None,,001,2022_Feb_02_1551,TMTAB,2021.2.3,143.45802719841947,
TMTstop-B_1_4.xlsx,78:104,F,['3'],3,TMTstop-B_1_4linestimulus9.png,TMTstop-B_1_4greenlinestimulus9.png,TMTstop-B_1_4redlinestimulus9.png,4,87,,,,,,,,,0,3,3,3,0,11,11,11,2,0,46.14738219999708,None,"['2', '3']",1,"[0.0067968000657856464, 0.14392840000800788]",46.14738219999708,None,,001,2022_Feb_02_1551,TMTAB,2021.2.3,143.45802719841947,
TMTstop-B_1_4.xlsx,78:104,7,['1'],1,TMTstop-B_1_4linestimulus10.png,TMTstop-B_1_4greenlinestimulus10.png,TMTstop-B_1_4redlinestimulus10.png,4,88,,,,,,,,,0,3,3,3,0,12,12,12,1,1,46.39943789993413,None,['1'],1,[0.3910846000071615],46.39943789993413,None,,001,2022_Feb_02_1551,TMTAB,2021.2.3,143.45802719841947,
TMTstop-B_1_4.xlsx,78:104,G,['3'],3,TMTstop-B_1_4linestimulus11.png,TMTstop-B_1_4greenlinestimulus11.png,TMTstop-B_1_4redlinestimulus11.png,4,89,,,,,,,,,0,3,3,3,0,13,13,13,1,1,46.86293979990296,None,['3'],1,[0.21718350006267428],46.86293979990296,None,,001,2022_Feb_02_1551,TMTAB,2021.2.3,143.45802719841947,
TMTstop-B_1_4.xlsx,78:104,8,['2'],2,TMTstop-B_1_4linestimulus12.png,TMTstop-B_1_4greenlinestimulus12.png,TMTstop-B_1_4redlinestimulus12.png,4,90,,,,,,,,,0,3,3,3,0,14,14,14,2,0,47.15462899999693,None,"['1', '2']",1,"[0.5053928999695927, 0.5593099999241531]",47.15462899999693,None,,001,2022_Feb_02_1551,TMTAB,2021.2.3,143.45802719841947,
TMTstop-B_1_4.xlsx,78:104,H,['3'],3,TMTstop-B_1_4linestimulus13.png,TMTstop-B_1_4greenlinestimulus13.png,TMTstop-B_1_4redlinestimulus13.png,4,91,,,,,,,,,0,3,3,3,0,15,15,15,1,1,47.81430529989302,None,['3'],1,[0.061072700191289186],47.81430529989302,None,,001,2022_Feb_02_1551,TMTAB,2021.2.3,143.45802719841947,
TMTstop-B_1_4.xlsx,78:104,9,['2'],2,TMTstop-B_1_4linestimulus14.png,TMTstop-B_1_4greenlinestimulus14.png,TMTstop-B_1_4redlinestimulus14.png,4,92,,,,,,,,,0,3,3,3,0,16,16,16,2,0,47.953533299965784,None,"['1', '2']",1,"[0.07877389993518591, 0.1551931998692453]",47.953533299965784,None,,001,2022_Feb_02_1551,TMTAB,2021.2.3,143.45802719841947,
TMTstop-B_1_4.xlsx,78:104,I,['1'],1,TMTstop-B_1_4linestimulus15.png,TMTstop-B_1_4greenlinestimulus15.png,TMTstop-B_1_4redlinestimulus15.png,4,93,,,,,,,,,0,3,3,3,0,17,17,17,2,0,48.20388319995254,None,"['3', '1']",1,"[0.007398700108751655, 0.17137419991195202]",48.20388319995254,None,,001,2022_Feb_02_1551,TMTAB,2021.2.3,143.45802719841947,
TMTstop-B_1_4.xlsx,78:104,10,['3'],3,TMTstop-B_1_4linestimulus16.png,TMTstop-B_1_4greenlinestimulus16.png,TMTstop-B_1_4redlinestimulus16.png,4,94,,,,,,,,,0,3,3,3,0,18,18,18,2,0,48.495905899908394,None,"['2', '3']",1,"[-0.06018069991841912, 0.09542210004292428]",48.495905899908394,None,,001,2022_Feb_02_1551,TMTAB,2021.2.3,143.45802719841947,
TMTstop-B_1_4.xlsx,78:104,J,['1'],1,TMTstop-B_1_4linestimulus17.png,TMTstop-B_1_4greenlinestimulus17.png,TMTstop-B_1_4redlinestimulus17.png,4,95,,,,,,,,,0,3,3,3,0,19,19,19,1,1,48.66815839987248,None,['1'],1,[0.05036819982342422],48.66815839987248,None,,001,2022_Feb_02_1551,TMTAB,2021.2.3,143.45802719841947,
TMTstop-B_1_4.xlsx,78:104,11,['3'],3,TMTstop-B_1_4linestimulus18.png,TMTstop-B_1_4greenlinestimulus18.png,TMTstop-B_1_4redlinestimulus18.png,4,96,,,,,,,,,0,3,3,3,0,20,20,20,2,0,48.80091300001368,None,"['2', '3']",1,"[0.0052325997967273, 0.1425142998341471]",48.80091300001368,None,,001,2022_Feb_02_1551,TMTAB,2021.2.3,143.45802719841947,
TMTstop-B_1_4.xlsx,78:104,K,['2'],2,TMTstop-B_1_4linestimulus19.png,TMTstop-B_1_4greenlinestimulus19.png,TMTstop-B_1_4redlinestimulus19.png,4,97,,,,,,,,,0,3,3,3,0,21,21,21,2,0,49.04358549998142,None,"['1', '2']",1,"[0.31666740006767213, 0.40770510002039373]",49.04358549998142,None,,001,2022_Feb_02_1551,TMTAB,2021.2.3,143.45802719841947,
TMTstop-B_1_4.xlsx,78:104,12,['3'],3,TMTstop-B_1_4linestimulus20.png,TMTstop-B_1_4greenlinestimulus20.png,TMTstop-B_1_4redlinestimulus20.png,4,98,,,,,,,,,0,3,3,3,0,22,22,22,1,1,49.52326109982096,None,['3'],1,[0.04212280013598502],49.52326109982096,None,,001,2022_Feb_02_1551,TMTAB,2021.2.3,143.45802719841947,
TMTstop-B_1_4.xlsx,78:104,L,['2'],2,TMTstop-B_1_4linestimulus21.png,TMTstop-B_1_4greenlinestimulus21.png,TMTstop-B_1_4redlinestimulus21.png,4,99,,,,,,,,,0,3,3,3,0,23,23,23,2,0,49.634206000017,None,"['1', '2']",1,"[0.14212529989890754, 0.2169979999307543]",49.634206000017,None,,001,2022_Feb_02_1551,TMTAB,2021.2.3,143.45802719841947,
TMTstop-B_1_4.xlsx,78:104,13,['3'],3,TMTstop-B_1_4linestimulus22.png,TMTstop-B_1_4greenlinestimulus22.png,TMTstop-B_1_4redlinestimulus22.png,4,100,,,,,,,,,0,3,3,3,0,24,24,24,1,1,49.939657300012186,None,['3'],1,[0.03281739982776344],49.939657300012186,None,,001,2022_Feb_02_1551,TMTAB,2021.2.3,143.45802719841947,
TMTstop-B_1_4.xlsx,78:104,None,None,None,TMTstop-B_1_4linestimulus23.png,TMTstop-B_1_4greenlinestimulus23.png,TMTstop-B_1_4redlinestimulus23.png,4,Feedback_last,,,,,,,,,0,3,3,3,0,25,25,25,0,0,50.050161299994215,None,None,1,,50.050161299994215,None,,001,2022_Feb_02_1551,TMTAB,2021.2.3,143.45802719841947,
TMTstop-B_1_5.xlsx,104:130,1,['1'],1,TMTstop-B_1_5.png,TMTstop-B_1_5.png,TMTstop-B_1_5.png,5,101,,,,,,,,,0,4,4,4,0,0,0,0,1,1,54.14812329993583,None,['1'],1,[0.388727999990806],54.14812329993583,None,,001,2022_Feb_02_1551,TMTAB,2021.2.3,143.45802719841947,
TMTstop-B_1_5.xlsx,104:130,A,['2'],2,TMTstop-B_1_5.png,TMTstop-B_1_5firstgreen.png,TMTstop-B_1_5firstred.png,5,102,,,,,,,,,0,4,4,4,0,1,1,1,1,1,54.605678599793464,None,['2'],1,[0.07267470005899668],54.605678599793464,None,,001,2022_Feb_02_1551,TMTAB,2021.2.3,143.45802719841947,
TMTstop-B_1_5.xlsx,104:130,2,['1'],1,TMTstop-B_1_5linestimulus0.png,TMTstop-B_1_5greenlinestimulus0.png,TMTstop-B_1_5redlinestimulus0.png,5,103,,,,,,,,,0,4,4,4,0,2,2,2,2,0,54.75184579985216,None,"['3', '1']",1,"[-0.031379299936816096, 0.1388209001161158]",54.75184579985216,None,,001,2022_Feb_02_1551,TMTAB,2021.2.3,143.45802719841947,
TMTstop-B_1_5.xlsx,104:130,B,['3'],3,TMTstop-B_1_5linestimulus1.png,TMTstop-B_1_5greenlinestimulus1.png,TMTstop-B_1_5redlinestimulus1.png,5,104,,,,,,,,,0,4,4,4,0,3,3,3,2,0,54.98743899981491,None,"['2', '3']",1,"[0.02803779998794198, 0.08126670005731285]",54.98743899981491,None,,001,2022_Feb_02_1551,TMTAB,2021.2.3,143.45802719841947,
TMTstop-B_1_5.xlsx,104:130,3,['1'],1,TMTstop-B_1_5linestimulus2.png,TMTstop-B_1_5greenlinestimulus2.png,TMTstop-B_1_5redlinestimulus2.png,5,105,,,,,,,,,0,4,4,4,0,4,4,4,1,1,55.17505119997077,None,['1'],1,[0.05582460016012192],55.17505119997077,None,,001,2022_Feb_02_1551,TMTAB,2021.2.3,143.45802719841947,
TMTstop-B_1_5.xlsx,104:130,C,['3'],3,TMTstop-B_1_5linestimulus3.png,TMTstop-B_1_5greenlinestimulus3.png,TMTstop-B_1_5redlinestimulus3.png,5,106,,,,,,,,,0,4,4,4,0,5,5,5,2,0,55.30006829998456,None,"['2', '3']",1,"[-0.011770199984312057, 0.1084332000464201]",55.30006829998456,None,,001,2022_Feb_02_1551,TMTAB,2021.2.3,143.45802719841947,
TMTstop-B_1_5.xlsx,104:130,4,['1'],1,TMTstop-B_1_5linestimulus4.png,TMTstop-B_1_5greenlinestimulus4.png,TMTstop-B_1_5redlinestimulus4.png,5,107,,,,,,,,,0,4,4,4,0,6,6,6,1,1,55.50212419987656,None,['1'],1,[0.03198129986412823],55.50212419987656,None,,001,2022_Feb_02_1551,TMTAB,2021.2.3,143.45802719841947,
TMTstop-B_1_5.xlsx,104:130,D,['3'],3,TMTstop-B_1_5linestimulus5.png,TMTstop-B_1_5greenlinestimulus5.png,TMTstop-B_1_5redlinestimulus5.png,5,108,,,,,,,,,0,4,4,4,0,7,7,7,2,0,55.605687599861994,None,"['2', '3']",1,"[-0.0007189000025391579, 0.13718830002471805]",55.605687599861994,None,,001,2022_Feb_02_1551,TMTAB,2021.2.3,143.45802719841947,
TMTstop-B_1_5.xlsx,104:130,5,['2'],2,TMTstop-B_1_5linestimulus6.png,TMTstop-B_1_5greenlinestimulus6.png,TMTstop-B_1_5redlinestimulus6.png,5,109,,,,,,,,,0,4,4,4,0,8,8,8,2,0,55.848554299911484,None,"['1', '2']",1,"[0.06049649999476969, 0.10588159994222224]",55.848554299911484,None,,001,2022_Feb_02_1551,TMTAB,2021.2.3,143.45802719841947,
TMTstop-B_1_5.xlsx,104:130,E,['3'],3,TMTstop-B_1_5linestimulus7.png,TMTstop-B_1_5greenlinestimulus7.png,TMTstop-B_1_5redlinestimulus7.png,5,110,,,,,,,,,0,4,4,4,0,9,9,9,1,1,56.03603309998289,None,['3'],1,[0.06877249991521239],56.03603309998289,None,,001,2022_Feb_02_1551,TMTAB,2021.2.3,143.45802719841947,
TMTstop-B_1_5.xlsx,104:130,6,['2'],2,TMTstop-B_1_5linestimulus8.png,TMTstop-B_1_5greenlinestimulus8.png,TMTstop-B_1_5redlinestimulus8.png,5,111,,,,,,,,,0,4,4,4,0,10,10,10,2,0,56.17524779983796,None,"['1', '2']",1,"[0.052821600111201406, 0.131913400022313]",56.17524779983796,None,,001,2022_Feb_02_1551,TMTAB,2021.2.3,143.45802719841947,
TMTstop-B_1_5.xlsx,104:130,F,['3'],3,TMTstop-B_1_5linestimulus9.png,TMTstop-B_1_5greenlinestimulus9.png,TMTstop-B_1_5redlinestimulus9.png,5,112,,,,,,,,,0,4,4,4,0,11,11,11,1,1,56.39014989999123,None,['3'],1,[0.07744739996269345],56.39014989999123,None,,001,2022_Feb_02_1551,TMTAB,2021.2.3,143.45802719841947,
TMTstop-B_1_5.xlsx,104:130,7,['1'],1,TMTstop-B_1_5linestimulus10.png,TMTstop-B_1_5greenlinestimulus10.png,TMTstop-B_1_5redlinestimulus10.png,5,113,,,,,,,,,0,4,4,4,0,12,12,12,1,1,56.557423799997196,None,['1'],1,[0.03338149981573224],56.557423799997196,None,,001,2022_Feb_02_1551,TMTAB,2021.2.3,143.45802719841947,
TMTstop-B_1_5.xlsx,104:130,G,['3'],3,TMTstop-B_1_5linestimulus11.png,TMTstop-B_1_5greenlinestimulus11.png,TMTstop-B_1_5redlinestimulus11.png,5,114,,,,,,,,,0,4,4,4,0,13,13,13,2,0,56.66794279986061,None,"['2', '3']",1,"[-0.014374500140547752, 0.11801069998182356]",56.66794279986061,None,,001,2022_Feb_02_1551,TMTAB,2021.2.3,143.45802719841947,
TMTstop-B_1_5.xlsx,104:130,8,['1'],1,TMTstop-B_1_5linestimulus12.png,TMTstop-B_1_5greenlinestimulus12.png,TMTstop-B_1_5redlinestimulus12.png,5,115,,,,,,,,,0,4,4,4,0,14,14,14,1,1,56.87630969984457,None,['1'],1,[0.048471400048583746],56.87630969984457,None,,001,2022_Feb_02_1551,TMTAB,2021.2.3,143.45802719841947,
TMTstop-B_1_5.xlsx,104:130,H,['2'],2,TMTstop-B_1_5linestimulus13.png,TMTstop-B_1_5greenlinestimulus13.png,TMTstop-B_1_5redlinestimulus13.png,5,116,,,,,,,,,0,4,4,4,0,15,15,15,1,1,57.001294599846005,None,['2'],1,[-0.01591939991340041],57.001294599846005,None,,001,2022_Feb_02_1551,TMTAB,2021.2.3,143.45802719841947,
TMTstop-B_1_5.xlsx,104:130,9,['3'],3,TMTstop-B_1_5linestimulus14.png,TMTstop-B_1_5greenlinestimulus14.png,TMTstop-B_1_5redlinestimulus14.png,5,117,,,,,,,,,0,4,4,4,0,16,16,16,1,1,57.09141799993813,None,['3'],1,[0.016475799959152937],57.09141799993813,None,,001,2022_Feb_02_1551,TMTAB,2021.2.3,143.45802719841947,
TMTstop-B_1_5.xlsx,104:130,I,['1'],1,TMTstop-B_1_5linestimulus15.png,TMTstop-B_1_5greenlinestimulus15.png,TMTstop-B_1_5redlinestimulus15.png,5,118,,,,,,,,,0,4,4,4,0,17,17,17,1,1,57.19601790001616,None,['1'],1,[0.06252519995905459],57.19601790001616,None,,001,2022_Feb_02_1551,TMTAB,2021.2.3,143.45802719841947,
TMTstop-B_1_5.xlsx,104:130,10,['3'],3,TMTstop-B_1_5linestimulus16.png,TMTstop-B_1_5greenlinestimulus16.png,TMTstop-B_1_5redlinestimulus16.png,5,119,,,,,,,,,0,4,4,4,0,18,18,18,2,0,57.34409699984826,None,"['2', '3']",1,"[-0.013819899875670671, 0.12126050004735589]",57.34409699984826,None,,001,2022_Feb_02_1551,TMTAB,2021.2.3,143.45802719841947,
TMTstop-B_1_5.xlsx,104:130,J,['2'],2,TMTstop-B_1_5linestimulus17.png,TMTstop-B_1_5greenlinestimulus17.png,TMTstop-B_1_5redlinestimulus17.png,5,120,,,,,,,,,0,4,4,4,0,19,19,19,2,0,57.55174789996818,None,"['1', '2']",1,"[0.09369900007732213, 0.16757220006547868]",57.55174789996818,None,,001,2022_Feb_02_1551,TMTAB,2021.2.3,143.45802719841947,
TMTstop-B_1_5.xlsx,104:130,11,['1'],1,TMTstop-B_1_5linestimulus18.png,TMTstop-B_1_5greenlinestimulus18.png,TMTstop-B_1_5redlinestimulus18.png,5,121,,,,,,,,,0,4,4,4,0,20,20,20,2,0,57.820635400014,None,"['3', '1']",1,"[0.03872480010613799, 0.3042433001101017]",57.820635400014,None,,001,2022_Feb_02_1551,TMTAB,2021.2.3,143.45802719841947,
TMTstop-B_1_5.xlsx,104:130,K,['2'],2,TMTstop-B_1_5linestimulus19.png,TMTstop-B_1_5greenlinestimulus19.png,TMTstop-B_1_5redlinestimulus19.png,5,122,,,,,,,,,0,4,4,4,0,21,21,21,1,1,58.202745399903506,None,['2'],1,[-0.05907560000196099],58.202745399903506,None,,001,2022_Feb_02_1551,TMTAB,2021.2.3,143.45802719841947,
TMTstop-B_1_5.xlsx,104:130,12,['3'],3,TMTstop-B_1_5linestimulus20.png,TMTstop-B_1_5greenlinestimulus20.png,TMTstop-B_1_5redlinestimulus20.png,5,123,,,,,,,,,0,4,4,4,0,22,22,22,1,1,58.27914429991506,None,['3'],1,[-0.004954400006681681],58.27914429991506,None,,001,2022_Feb_02_1551,TMTAB,2021.2.3,143.45802719841947,
TMTstop-B_1_5.xlsx,104:130,L,['1'],1,TMTstop-B_1_5linestimulus21.png,TMTstop-B_1_5greenlinestimulus21.png,TMTstop-B_1_5redlinestimulus21.png,5,124,,,,,,,,,0,4,4,4,0,23,23,23,1,1,58.35549189988524,None,['1'],1,[0.40240129991434515],58.35549189988524,None,,001,2022_Feb_02_1551,TMTAB,2021.2.3,143.45802719841947,
TMTstop-B_1_5.xlsx,104:130,13,['3'],3,TMTstop-B_1_5linestimulus22.png,TMTstop-B_1_5greenlinestimulus22.png,TMTstop-B_1_5redlinestimulus22.png,5,125,,,,,,,,,0,4,4,4,0,24,24,24,2,0,58.857001499971375,None,"['2', '3']",1,"[-0.08892520004883409, 0.9694215999916196]",58.857001499971375,None,,001,2022_Feb_02_1551,TMTAB,2021.2.3,143.45802719841947,
TMTstop-B_1_5.xlsx,104:130,None,None,None,TMTstop-B_1_5linestimulus23.png,TMTstop-B_1_5greenlinestimulus23.png,TMTstop-B_1_5redlinestimulus23.png,5,Feedback_last,,,,,,,,,0,4,4,4,0,25,25,25,0,0,59.90452929981984,None,None,1,,59.90452929981984,None,,001,2022_Feb_02_1551,TMTAB,2021.2.3,143.45802719841947,
