Block_file,Condition_rows,NumberLetter,corrAns,Correct,StimFile,Correct_StimFile,False_StimFile,Block,TrialNumber_session,restartpractice.thisRepN,restartpractice.thisTrialN,restartpractice.thisN,restartpractice.thisIndex,trials_practice.thisRepN,trials_practice.thisTrialN,trials_practice.thisN,trials_practice.thisIndex,Blocks_loop.thisRepN,Blocks_loop.thisTrialN,Blocks_loop.thisN,Blocks_loop.thisIndex,trials.thisRepN,trials.thisTrialN,trials.thisN,trials.thisIndex,Attempts,First_attempt,Stim.started,Stim.stopped,key_resp_2.keys,key_resp_2.corr,key_resp_2.rt,key_resp_2.started,key_resp_2.stopped,participant,session,date,expName,psychopyVersion,frameRate,
TMTstop-B_1_1.xlsx,0:26,1,['2'],2,TMTstop-B_1_1.png,TMTstop-B_1_1.png,TMTstop-B_1_1.png,1,1,,,,,,,,,0,0,0,0,0,0,0,0,1,1,20.53086240007542,None,['2'],1,[0.39230559999123216],20.53086240007542,None,,001,2022_Feb_02_1535,TMTAB,2021.2.3,145.71163379566985,
TMTstop-B_1_1.xlsx,0:26,A,['1'],1,TMTstop-B_1_1.png,TMTstop-B_1_1firstgreen.png,TMTstop-B_1_1firstred.png,1,2,,,,,,,,,0,0,0,0,0,1,1,1,1,1,21.003911099862307,None,['1'],1,[0.30465060006827116],21.003911099862307,None,,001,2022_Feb_02_1535,TMTAB,2021.2.3,145.71163379566985,
TMTstop-B_1_1.xlsx,0:26,2,['2'],2,TMTstop-B_1_1linestimulus0.png,TMTstop-B_1_1greenlinestimulus0.png,TMTstop-B_1_1redlinestimulus0.png,1,3,,,,,,,,,0,0,0,0,0,2,2,2,1,1,21.385224199853837,None,['2'],1,[0.028708399971947074],21.385224199853837,None,,001,2022_Feb_02_1535,TMTAB,2021.2.3,145.71163379566985,
TMTstop-B_1_1.xlsx,0:26,B,['1'],1,TMTstop-B_1_1linestimulus1.png,TMTstop-B_1_1greenlinestimulus1.png,TMTstop-B_1_1redlinestimulus1.png,1,4,,,,,,,,,0,0,0,0,0,3,3,3,2,0,21.496803499991074,None,"['3', '1']",1,"[-0.0010275999084115028, 0.16492740018293262]",21.496803499991074,None,,001,2022_Feb_02_1535,TMTAB,2021.2.3,145.71163379566985,
TMTstop-B_1_1.xlsx,0:26,3,['3'],3,TMTstop-B_1_1linestimulus2.png,TMTstop-B_1_1greenlinestimulus2.png,TMTstop-B_1_1redlinestimulus2.png,1,5,,,,,,,,,0,0,0,0,0,4,4,4,2,0,21.73955349996686,None,"['2', '3']",1,"[-0.009029400069266558, 0.09528620005585253]",21.73955349996686,None,,001,2022_Feb_02_1535,TMTAB,2021.2.3,145.71163379566985,
TMTstop-B_1_1.xlsx,0:26,C,['2'],2,TMTstop-B_1_1linestimulus3.png,TMTstop-B_1_1greenlinestimulus3.png,TMTstop-B_1_1redlinestimulus3.png,1,6,,,,,,,,,0,0,0,0,0,5,5,5,2,0,21.94130970002152,None,"['1', '2']",1,"[0.10866609984077513, 0.15265359985642135]",21.94130970002152,None,,001,2022_Feb_02_1535,TMTAB,2021.2.3,145.71163379566985,
TMTstop-B_1_1.xlsx,0:26,4,['3'],3,TMTstop-B_1_1linestimulus4.png,TMTstop-B_1_1greenlinestimulus4.png,TMTstop-B_1_1redlinestimulus4.png,1,7,,,,,,,,,0,0,0,0,0,6,6,6,1,1,22.178149400046095,None,['3'],1,[0.05640210001729429],22.178149400046095,None,,001,2022_Feb_02_1535,TMTAB,2021.2.3,145.71163379566985,
TMTstop-B_1_1.xlsx,0:26,D,['1'],1,TMTstop-B_1_1linestimulus5.png,TMTstop-B_1_1greenlinestimulus5.png,TMTstop-B_1_1redlinestimulus5.png,1,8,,,,,,,,,0,0,0,0,0,7,7,7,1,1,22.312843200052157,None,['1'],1,[0.07599239982664585],22.312843200052157,None,,001,2022_Feb_02_1535,TMTAB,2021.2.3,145.71163379566985,
TMTstop-B_1_1.xlsx,0:26,5,['2'],2,TMTstop-B_1_1linestimulus6.png,TMTstop-B_1_1greenlinestimulus6.png,TMTstop-B_1_1redlinestimulus6.png,1,9,,,,,,,,,0,0,0,0,0,8,8,8,1,1,22.465202399995178,None,['2'],1,[0.05668370006605983],22.465202399995178,None,,001,2022_Feb_02_1535,TMTAB,2021.2.3,145.71163379566985,
TMTstop-B_1_1.xlsx,0:26,E,['3'],3,TMTstop-B_1_1linestimulus7.png,TMTstop-B_1_1greenlinestimulus7.png,TMTstop-B_1_1redlinestimulus7.png,1,10,,,,,,,,,0,0,0,0,0,9,9,9,1,1,22.601006499957293,None,['3'],1,[0.19041269994340837],22.601006499957293,None,,001,2022_Feb_02_1535,TMTAB,2021.2.3,145.71163379566985,
TMTstop-B_1_1.xlsx,0:26,6,['1'],1,TMTstop-B_1_1linestimulus8.png,TMTstop-B_1_1greenlinestimulus8.png,TMTstop-B_1_1redlinestimulus8.png,1,11,,,,,,,,,0,0,0,0,0,10,10,10,1,1,22.86485949996859,None,['1'],1,[-0.06318690022453666],22.86485949996859,None,,001,2022_Feb_02_1535,TMTAB,2021.2.3,145.71163379566985,
TMTstop-B_1_1.xlsx,0:26,F,['2'],2,TMTstop-B_1_1linestimulus9.png,TMTstop-B_1_1greenlinestimulus9.png,TMTstop-B_1_1redlinestimulus9.png,1,12,,,,,,,,,0,0,0,0,0,11,11,11,1,1,22.947622299892828,None,['2'],1,[-0.05805299989879131],22.947622299892828,None,,001,2022_Feb_02_1535,TMTAB,2021.2.3,145.71163379566985,
TMTstop-B_1_1.xlsx,0:26,7,['1'],1,TMTstop-B_1_1linestimulus10.png,TMTstop-B_1_1greenlinestimulus10.png,TMTstop-B_1_1redlinestimulus10.png,1,13,,,,,,,,,0,0,0,0,0,12,12,12,2,0,23.02409299998544,None,"['3', '1']",1,"[-0.004953700117766857, 0.1428884998895228]",23.02409299998544,None,,001,2022_Feb_02_1535,TMTAB,2021.2.3,145.71163379566985,
TMTstop-B_1_1.xlsx,0:26,G,['2'],2,TMTstop-B_1_1linestimulus11.png,TMTstop-B_1_1greenlinestimulus11.png,TMTstop-B_1_1redlinestimulus11.png,1,14,,,,,,,,,0,0,0,0,0,13,13,13,1,1,23.267138299997896,None,['2'],1,[-0.011284800013527274],23.267138299997896,None,,001,2022_Feb_02_1535,TMTAB,2021.2.3,145.71163379566985,
TMTstop-B_1_1.xlsx,0:26,8,['1'],1,TMTstop-B_1_1linestimulus12.png,TMTstop-B_1_1greenlinestimulus12.png,TMTstop-B_1_1redlinestimulus12.png,1,15,,,,,,,,,0,0,0,0,0,14,14,14,2,0,23.344283499987796,None,"['3', '1']",1,"[0.007343000033870339, 0.17976549989543855]",23.344283499987796,None,,001,2022_Feb_02_1535,TMTAB,2021.2.3,145.71163379566985,
TMTstop-B_1_1.xlsx,0:26,H,['2'],2,TMTstop-B_1_1linestimulus13.png,TMTstop-B_1_1greenlinestimulus13.png,TMTstop-B_1_1redlinestimulus13.png,1,16,,,,,,,,,0,0,0,0,0,15,15,15,1,1,23.601483599981293,None,['2'],1,[-0.01610400015488267],23.601483599981293,None,,001,2022_Feb_02_1535,TMTAB,2021.2.3,145.71163379566985,
TMTstop-B_1_1.xlsx,0:26,9,['3'],3,TMTstop-B_1_1linestimulus14.png,TMTstop-B_1_1greenlinestimulus14.png,TMTstop-B_1_1redlinestimulus14.png,1,17,,,,,,,,,0,0,0,0,0,16,16,16,1,1,23.690693499986082,None,['3'],1,[-0.0010351999662816525],23.690693499986082,None,,001,2022_Feb_02_1535,TMTAB,2021.2.3,145.71163379566985,
TMTstop-B_1_1.xlsx,0:26,I,['1'],1,TMTstop-B_1_1linestimulus15.png,TMTstop-B_1_1greenlinestimulus15.png,TMTstop-B_1_1redlinestimulus15.png,1,18,,,,,,,,,0,0,0,0,0,17,17,17,1,1,23.77547280001454,None,['1'],1,[0.05692670005373657],23.77547280001454,None,,001,2022_Feb_02_1535,TMTAB,2021.2.3,145.71163379566985,
TMTstop-B_1_1.xlsx,0:26,10,['2'],2,TMTstop-B_1_1linestimulus16.png,TMTstop-B_1_1greenlinestimulus16.png,TMTstop-B_1_1redlinestimulus16.png,1,19,,,,,,,,,0,0,0,0,0,18,18,18,1,1,23.93519019987434,None,['2'],1,[-0.04189750016666949],23.93519019987434,None,,001,2022_Feb_02_1535,TMTAB,2021.2.3,145.71163379566985,
TMTstop-B_1_1.xlsx,0:26,J,['1'],1,TMTstop-B_1_1linestimulus17.png,TMTstop-B_1_1greenlinestimulus17.png,TMTstop-B_1_1redlinestimulus17.png,1,20,,,,,,,,,0,0,0,0,0,19,19,19,2,0,24.025345699861646,None,"['3', '1']",1,"[-0.02885999996215105, 0.1086155001539737]",24.025345699861646,None,,001,2022_Feb_02_1535,TMTAB,2021.2.3,145.71163379566985,
TMTstop-B_1_1.xlsx,0:26,11,['2'],2,TMTstop-B_1_1linestimulus18.png,TMTstop-B_1_1greenlinestimulus18.png,TMTstop-B_1_1redlinestimulus18.png,1,21,,,,,,,,,0,0,0,0,0,20,20,20,1,1,24.23941779998131,None,['2'],1,[-0.027433699928224087],24.23941779998131,None,,001,2022_Feb_02_1535,TMTAB,2021.2.3,145.71163379566985,
TMTstop-B_1_1.xlsx,0:26,K,['3'],3,TMTstop-B_1_1linestimulus19.png,TMTstop-B_1_1greenlinestimulus19.png,TMTstop-B_1_1redlinestimulus19.png,1,22,,,,,,,,,0,0,0,0,0,21,21,21,1,1,24.31579659995623,None,['3'],1,[-0.0017158999107778072],24.31579659995623,None,,001,2022_Feb_02_1535,TMTAB,2021.2.3,145.71163379566985,
TMTstop-B_1_1.xlsx,0:26,12,['1'],1,TMTstop-B_1_1linestimulus20.png,TMTstop-B_1_1greenlinestimulus20.png,TMTstop-B_1_1redlinestimulus20.png,1,23,,,,,,,,,0,0,0,0,0,22,22,22,1,1,24.39252240001224,None,['1'],1,[0.04336629994213581],24.39252240001224,None,,001,2022_Feb_02_1535,TMTAB,2021.2.3,145.71163379566985,
TMTstop-B_1_1.xlsx,0:26,L,['3'],3,TMTstop-B_1_1linestimulus21.png,TMTstop-B_1_1greenlinestimulus21.png,TMTstop-B_1_1redlinestimulus21.png,1,24,,,,,,,,,0,0,0,0,0,23,23,23,2,0,24.55881329998374,None,"['2', '3']",1,"[-0.025162099860608578, 0.07424940005876124]",24.55881329998374,None,,001,2022_Feb_02_1535,TMTAB,2021.2.3,145.71163379566985,
TMTstop-B_1_1.xlsx,0:26,13,['2'],2,TMTstop-B_1_1linestimulus22.png,TMTstop-B_1_1greenlinestimulus22.png,TMTstop-B_1_1redlinestimulus22.png,1,25,,,,,,,,,0,0,0,0,0,24,24,24,2,0,24.718451299937442,None,"['1', '2']",1,"[0.05232669995166361, 0.1333753999788314]",24.718451299937442,None,,001,2022_Feb_02_1535,TMTAB,2021.2.3,145.71163379566985,
TMTstop-B_1_1.xlsx,0:26,None,None,None,TMTstop-B_1_1linestimulus23.png,TMTstop-B_1_1greenlinestimulus23.png,TMTstop-B_1_1redlinestimulus23.png,1,Feedback_last,,,,,,,,,0,0,0,0,0,25,25,25,1,1,24.941535099875182,None,['3'],0,[0.012706999899819493],24.941535099875182,None,,001,2022_Feb_02_1535,TMTAB,2021.2.3,145.71163379566985,
TMTstop-B_1_2.xlsx,26:52,1,['2'],2,TMTstop-B_1_2.png,TMTstop-B_1_2.png,TMTstop-B_1_2.png,2,26,,,,,,,,,0,1,1,1,0,0,0,0,1,1,29.065045499941334,None,['2'],1,[1.9476236999034882],29.065045499941334,None,,001,2022_Feb_02_1535,TMTAB,2021.2.3,145.71163379566985,
TMTstop-B_1_2.xlsx,26:52,A,['3'],3,TMTstop-B_1_2.png,TMTstop-B_1_2firstgreen.png,TMTstop-B_1_2firstred.png,2,27,,,,,,,,,0,1,1,1,0,1,1,1,1,1,31.095206399913877,None,['3'],1,[0.5933010999578983],31.095206399913877,None,,001,2022_Feb_02_1535,TMTAB,2021.2.3,145.71163379566985,
TMTstop-B_1_2.xlsx,26:52,2,['1'],1,TMTstop-B_1_2linestimulus0.png,TMTstop-B_1_2greenlinestimulus0.png,TMTstop-B_1_2redlinestimulus0.png,2,28,,,,,,,,,0,1,1,1,0,2,2,2,1,1,31.76804089988582,None,['1'],1,[0.6299949998501688],31.76804089988582,None,,001,2022_Feb_02_1535,TMTAB,2021.2.3,145.71163379566985,
TMTstop-B_1_2.xlsx,26:52,B,['2'],2,TMTstop-B_1_2linestimulus1.png,TMTstop-B_1_2greenlinestimulus1.png,TMTstop-B_1_2redlinestimulus1.png,2,29,,,,,,,,,0,1,1,1,0,3,3,3,1,1,32.47564910002984,None,['2'],1,[1.708505199989304],32.47564910002984,None,,001,2022_Feb_02_1535,TMTAB,2021.2.3,145.71163379566985,
TMTstop-B_1_2.xlsx,26:52,3,['3'],3,TMTstop-B_1_2linestimulus2.png,TMTstop-B_1_2greenlinestimulus2.png,TMTstop-B_1_2redlinestimulus2.png,2,30,,,,,,,,,0,1,1,1,0,4,4,4,1,1,34.274755199905485,None,['3'],1,[0.6361388999503106],34.274755199905485,None,,001,2022_Feb_02_1535,TMTAB,2021.2.3,145.71163379566985,
TMTstop-B_1_2.xlsx,26:52,C,['1'],1,TMTstop-B_1_2linestimulus3.png,TMTstop-B_1_2greenlinestimulus3.png,TMTstop-B_1_2redlinestimulus3.png,2,31,,,,,,,,,0,1,1,1,0,5,5,5,1,1,34.9821110998746,None,['1'],1,[1.1734419001732022],34.9821110998746,None,,001,2022_Feb_02_1535,TMTAB,2021.2.3,145.71163379566985,
TMTstop-B_1_2.xlsx,26:52,4,['2'],2,TMTstop-B_1_2linestimulus4.png,TMTstop-B_1_2greenlinestimulus4.png,TMTstop-B_1_2redlinestimulus4.png,2,32,,,,,,,,,0,1,1,1,0,6,6,6,1,1,36.23223409987986,None,['2'],1,[1.7043852000497282],36.23223409987986,None,,001,2022_Feb_02_1535,TMTAB,2021.2.3,145.71163379566985,
TMTstop-B_1_2.xlsx,26:52,D,['3'],3,TMTstop-B_1_2linestimulus5.png,TMTstop-B_1_2greenlinestimulus5.png,TMTstop-B_1_2redlinestimulus5.png,2,33,,,,,,,,,0,1,1,1,0,7,7,7,1,1,38.00976779987104,None,['3'],1,[0.5931710000149906],38.00976779987104,None,,001,2022_Feb_02_1535,TMTAB,2021.2.3,145.71163379566985,
TMTstop-B_1_2.xlsx,26:52,5,['2'],2,TMTstop-B_1_2linestimulus6.png,TMTstop-B_1_2greenlinestimulus6.png,TMTstop-B_1_2redlinestimulus6.png,2,34,,,,,,,,,0,1,1,1,0,8,8,8,1,1,38.68425839999691,None,['2'],1,[0.5923387999646366],38.68425839999691,None,,001,2022_Feb_02_1535,TMTAB,2021.2.3,145.71163379566985,
TMTstop-B_1_2.xlsx,26:52,E,['1'],1,TMTstop-B_1_2linestimulus7.png,TMTstop-B_1_2greenlinestimulus7.png,TMTstop-B_1_2redlinestimulus7.png,2,35,,,,,,,,,0,1,1,1,0,9,9,9,1,1,39.35719470004551,None,['1'],1,[0.6187150999903679],39.35719470004551,None,,001,2022_Feb_02_1535,TMTAB,2021.2.3,145.71163379566985,
TMTstop-B_1_2.xlsx,26:52,6,['3'],3,TMTstop-B_1_2linestimulus8.png,TMTstop-B_1_2greenlinestimulus8.png,TMTstop-B_1_2redlinestimulus8.png,2,36,,,,,,,,,0,1,1,1,0,10,10,10,1,1,40.051847900031134,None,['3'],1,[1.0790667000692338],40.051847900031134,None,,001,2022_Feb_02_1535,TMTAB,2021.2.3,145.71163379566985,
TMTstop-B_1_2.xlsx,26:52,F,['1'],1,TMTstop-B_1_2linestimulus9.png,TMTstop-B_1_2greenlinestimulus9.png,TMTstop-B_1_2redlinestimulus9.png,2,37,,,,,,,,,0,1,1,1,0,11,11,11,1,1,41.21115419990383,None,['1'],1,[3.3521416999865323],41.21115419990383,None,,001,2022_Feb_02_1535,TMTAB,2021.2.3,145.71163379566985,
TMTstop-B_1_2.xlsx,26:52,7,['3'],3,TMTstop-B_1_2linestimulus10.png,TMTstop-B_1_2greenlinestimulus10.png,TMTstop-B_1_2redlinestimulus10.png,2,38,,,,,,,,,0,1,1,1,0,12,12,12,1,1,44.641503300052136,None,['3'],1,[0.8964159998577088],44.641503300052136,None,,001,2022_Feb_02_1535,TMTAB,2021.2.3,145.71163379566985,
TMTstop-B_1_2.xlsx,26:52,G,['2'],2,TMTstop-B_1_2linestimulus11.png,TMTstop-B_1_2greenlinestimulus11.png,TMTstop-B_1_2redlinestimulus11.png,2,39,,,,,,,,,0,1,1,1,0,13,13,13,1,1,45.60691770003177,None,['2'],1,[0.6202064000535756],45.60691770003177,None,,001,2022_Feb_02_1535,TMTAB,2021.2.3,145.71163379566985,
TMTstop-B_1_2.xlsx,26:52,8,['3'],3,TMTstop-B_1_2linestimulus12.png,TMTstop-B_1_2greenlinestimulus12.png,TMTstop-B_1_2redlinestimulus12.png,2,40,,,,,,,,,0,1,1,1,0,14,14,14,1,1,46.31146089988761,None,['3'],1,[1.0364695000462234],46.31146089988761,None,,001,2022_Feb_02_1535,TMTAB,2021.2.3,145.71163379566985,
TMTstop-B_1_2.xlsx,26:52,H,['2'],2,TMTstop-B_1_2linestimulus13.png,TMTstop-B_1_2greenlinestimulus13.png,TMTstop-B_1_2redlinestimulus13.png,2,41,,,,,,,,,0,1,1,1,0,15,15,15,1,1,47.4202990999911,None,['2'],1,[0.6442982000298798],47.4202990999911,None,,001,2022_Feb_02_1535,TMTAB,2021.2.3,145.71163379566985,
TMTstop-B_1_2.xlsx,26:52,9,['3'],3,TMTstop-B_1_2linestimulus14.png,TMTstop-B_1_2greenlinestimulus14.png,TMTstop-B_1_2redlinestimulus14.png,2,42,,,,,,,,,0,1,1,1,0,16,16,16,1,1,48.143917199922726,None,['3'],1,[1.7596213999204338],48.143917199922726,None,,001,2022_Feb_02_1535,TMTAB,2021.2.3,145.71163379566985,
TMTstop-B_1_2.xlsx,26:52,I,['1'],1,TMTstop-B_1_2linestimulus15.png,TMTstop-B_1_2greenlinestimulus15.png,TMTstop-B_1_2redlinestimulus15.png,2,43,,,,,,,,,0,1,1,1,0,17,17,17,1,1,49.97910390002653,None,['1'],1,[1.650397300021723],49.97910390002653,None,,001,2022_Feb_02_1535,TMTAB,2021.2.3,145.71163379566985,
TMTstop-B_1_2.xlsx,26:52,10,['2'],2,TMTstop-B_1_2linestimulus16.png,TMTstop-B_1_2greenlinestimulus16.png,TMTstop-B_1_2redlinestimulus16.png,2,44,,,,,,,,,0,1,1,1,0,18,18,18,1,1,51.70412050001323,None,['2'],1,[1.4188862000592053],51.70412050001323,None,,001,2022_Feb_02_1535,TMTAB,2021.2.3,145.71163379566985,
TMTstop-B_1_2.xlsx,26:52,J,['3'],3,TMTstop-B_1_2linestimulus17.png,TMTstop-B_1_2greenlinestimulus17.png,TMTstop-B_1_2redlinestimulus17.png,2,45,,,,,,,,,0,1,1,1,0,19,19,19,1,1,53.20396189996973,None,['3'],1,[1.5104973998386413],53.20396189996973,None,,001,2022_Feb_02_1535,TMTAB,2021.2.3,145.71163379566985,
TMTstop-B_1_2.xlsx,26:52,11,['2'],2,TMTstop-B_1_2linestimulus18.png,TMTstop-B_1_2greenlinestimulus18.png,TMTstop-B_1_2redlinestimulus18.png,2,46,,,,,,,,,0,1,1,1,0,20,20,20,1,1,54.79433639999479,None,['2'],1,[1.1528838998638093],54.79433639999479,None,,001,2022_Feb_02_1535,TMTAB,2021.2.3,145.71163379566985,
TMTstop-B_1_2.xlsx,26:52,K,['3'],3,TMTstop-B_1_2linestimulus19.png,TMTstop-B_1_2greenlinestimulus19.png,TMTstop-B_1_2redlinestimulus19.png,2,47,,,,,,,,,0,1,1,1,0,21,21,21,1,1,56.02339980006218,None,['3'],1,[1.7801946999970824],56.02339980006218,None,,001,2022_Feb_02_1535,TMTAB,2021.2.3,145.71163379566985,
TMTstop-B_1_2.xlsx,26:52,12,['1'],1,TMTstop-B_1_2linestimulus20.png,TMTstop-B_1_2greenlinestimulus20.png,TMTstop-B_1_2redlinestimulus20.png,2,48,,,,,,,,,0,1,1,1,0,22,22,22,1,1,57.87739000003785,None,['1'],1,[1.2310260001104325],57.87739000003785,None,,001,2022_Feb_02_1535,TMTAB,2021.2.3,145.71163379566985,
TMTstop-B_1_2.xlsx,26:52,L,['2'],2,TMTstop-B_1_2linestimulus21.png,TMTstop-B_1_2greenlinestimulus21.png,TMTstop-B_1_2redlinestimulus21.png,2,49,,,,,,,,,0,1,1,1,0,23,23,23,1,1,59.18981710006483,None,['2'],1,[0.8692023998592049],59.18981710006483,None,,001,2022_Feb_02_1535,TMTAB,2021.2.3,145.71163379566985,
TMTstop-B_1_2.xlsx,26:52,13,['3'],3,TMTstop-B_1_2linestimulus22.png,TMTstop-B_1_2greenlinestimulus22.png,TMTstop-B_1_2redlinestimulus22.png,2,50,,,,,,,,,0,1,1,1,0,24,24,24,1,1,60.139317400055006,None,['3'],1,[0.6618915998842567],60.139317400055006,None,,001,2022_Feb_02_1535,TMTAB,2021.2.3,145.71163379566985,
TMTstop-B_1_2.xlsx,26:52,None,None,None,TMTstop-B_1_2linestimulus23.png,TMTstop-B_1_2greenlinestimulus23.png,TMTstop-B_1_2redlinestimulus23.png,2,Feedback_last,,,,,,,,,0,1,1,1,0,25,25,25,0,0,60.877374100033194,None,None,1,,60.877374100033194,None,,001,2022_Feb_02_1535,TMTAB,2021.2.3,145.71163379566985,
TMTstop-B_1_3.xlsx,52:78,1,['3'],3,TMTstop-B_1_3.png,TMTstop-B_1_3.png,TMTstop-B_1_3.png,3,51,,,,,,,,,0,2,2,2,0,0,0,0,3,0,64.97524559986778,None,"['1', '2', '3']",1,"[0.6812711998354644, 0.8003527999389917, 0.9173206000123173]",64.97524559986778,None,,001,2022_Feb_02_1535,TMTAB,2021.2.3,145.71163379566985,
TMTstop-B_1_3.xlsx,52:78,A,['2'],2,TMTstop-B_1_3.png,TMTstop-B_1_3firstgreen.png,TMTstop-B_1_3firstred.png,3,52,,,,,,,,,0,2,2,2,0,1,1,1,2,0,66.02459060004912,None,"['1', '2']",1,"[0.09107169997878373, 0.17479979991912842]",66.02459060004912,None,,001,2022_Feb_02_1535,TMTAB,2021.2.3,145.71163379566985,
TMTstop-B_1_3.xlsx,52:78,2,['3'],3,TMTstop-B_1_3linestimulus0.png,TMTstop-B_1_3greenlinestimulus0.png,TMTstop-B_1_3redlinestimulus0.png,3,53,,,,,,,,,0,2,2,2,0,2,2,2,1,1,66.2956705999095,None,['3'],1,[-0.005505899898707867],66.2956705999095,None,,001,2022_Feb_02_1535,TMTAB,2021.2.3,145.71163379566985,
TMTstop-B_1_3.xlsx,52:78,B,['2'],2,TMTstop-B_1_3linestimulus1.png,TMTstop-B_1_3greenlinestimulus1.png,TMTstop-B_1_3redlinestimulus1.png,3,54,,,,,,,,,0,2,2,2,0,3,3,3,2,0,66.38399920007214,None,"['1', '2']",1,"[0.08187370002269745, 0.1260840999893844]",66.38399920007214,None,,001,2022_Feb_02_1535,TMTAB,2021.2.3,145.71163379566985,
TMTstop-B_1_3.xlsx,52:78,3,['3'],3,TMTstop-B_1_3linestimulus2.png,TMTstop-B_1_3greenlinestimulus2.png,TMTstop-B_1_3redlinestimulus2.png,3,55,,,,,,,,,0,2,2,2,0,4,4,4,1,1,66.63132569985464,None,['3'],1,[0.0016614000778645277],66.63132569985464,None,,001,2022_Feb_02_1535,TMTAB,2021.2.3,145.71163379566985,
TMTstop-B_1_3.xlsx,52:78,C,['1'],1,TMTstop-B_1_3linestimulus3.png,TMTstop-B_1_3greenlinestimulus3.png,TMTstop-B_1_3redlinestimulus3.png,3,56,,,,,,,,,0,2,2,2,0,5,5,5,1,1,66.71750229992904,None,['1'],1,[0.05687150009907782],66.71750229992904,None,,001,2022_Feb_02_1535,TMTAB,2021.2.3,145.71163379566985,
TMTstop-B_1_3.xlsx,52:78,4,['2'],2,TMTstop-B_1_3linestimulus4.png,TMTstop-B_1_3greenlinestimulus4.png,TMTstop-B_1_3redlinestimulus4.png,3,57,,,,,,,,,0,2,2,2,0,6,6,6,1,1,66.86354009993374,None,['2'],1,[0.0018579999450594187],66.86354009993374,None,,001,2022_Feb_02_1535,TMTAB,2021.2.3,145.71163379566985,
TMTstop-B_1_3.xlsx,52:78,D,['3'],3,TMTstop-B_1_3linestimulus5.png,TMTstop-B_1_3greenlinestimulus5.png,TMTstop-B_1_3redlinestimulus5.png,3,58,,,,,,,,,0,2,2,2,0,7,7,7,1,1,66.95351159991696,None,['3'],1,[0.03728139982558787],66.95351159991696,None,,001,2022_Feb_02_1535,TMTAB,2021.2.3,145.71163379566985,
TMTstop-B_1_3.xlsx,52:78,5,['2'],2,TMTstop-B_1_3linestimulus6.png,TMTstop-B_1_3greenlinestimulus6.png,TMTstop-B_1_3redlinestimulus6.png,3,59,,,,,,,,,0,2,2,2,0,8,8,8,2,0,67.06631829985417,None,"['1', '2']",1,"[0.07092930004000664, 0.14418300008401275]",67.06631829985417,None,,001,2022_Feb_02_1535,TMTAB,2021.2.3,145.71163379566985,
TMTstop-B_1_3.xlsx,52:78,E,['3'],3,TMTstop-B_1_3linestimulus7.png,TMTstop-B_1_3greenlinestimulus7.png,TMTstop-B_1_3redlinestimulus7.png,3,60,,,,,,,,,0,2,2,2,0,9,9,9,1,1,67.30113300005905,None,['3'],1,[0.010218899929895997],67.30113300005905,None,,001,2022_Feb_02_1535,TMTAB,2021.2.3,145.71163379566985,
TMTstop-B_1_3.xlsx,52:78,6,['1'],1,TMTstop-B_1_3linestimulus8.png,TMTstop-B_1_3greenlinestimulus8.png,TMTstop-B_1_3redlinestimulus8.png,3,61,,,,,,,,,0,2,2,2,0,10,10,10,1,1,67.3928864998743,None,['1'],1,[0.09877480007708073],67.3928864998743,None,,001,2022_Feb_02_1535,TMTAB,2021.2.3,145.71163379566985,
TMTstop-B_1_3.xlsx,52:78,F,['3'],3,TMTstop-B_1_3linestimulus9.png,TMTstop-B_1_3greenlinestimulus9.png,TMTstop-B_1_3redlinestimulus9.png,3,62,,,,,,,,,0,2,2,2,0,11,11,11,2,0,67.57169850007631,None,"['2', '3']",1,"[-0.0035055000334978104, 0.12501839990727603]",67.57169850007631,None,,001,2022_Feb_02_1535,TMTAB,2021.2.3,145.71163379566985,
TMTstop-B_1_3.xlsx,52:78,7,['1'],1,TMTstop-B_1_3linestimulus10.png,TMTstop-B_1_3greenlinestimulus10.png,TMTstop-B_1_3redlinestimulus10.png,3,63,,,,,,,,,0,2,2,2,0,12,12,12,1,1,67.77712749992497,None,['1'],1,[0.0660774998832494],67.77712749992497,None,,001,2022_Feb_02_1535,TMTAB,2021.2.3,145.71163379566985,
TMTstop-B_1_3.xlsx,52:78,G,['3'],3,TMTstop-B_1_3linestimulus11.png,TMTstop-B_1_3greenlinestimulus11.png,TMTstop-B_1_3redlinestimulus11.png,3,64,,,,,,,,,0,2,2,2,0,13,13,13,2,0,67.9306387999095,None,"['2', '3']",1,"[0.0025504000950604677, 0.11015170020982623]",67.9306387999095,None,,001,2022_Feb_02_1535,TMTAB,2021.2.3,145.71163379566985,
TMTstop-B_1_3.xlsx,52:78,8,['2'],2,TMTstop-B_1_3linestimulus12.png,TMTstop-B_1_3greenlinestimulus12.png,TMTstop-B_1_3redlinestimulus12.png,3,65,,,,,,,,,0,2,2,2,0,14,14,14,2,0,68.14176919986494,None,"['1', '2']",1,"[0.07708220020867884, 0.17021080013364553]",68.14176919986494,None,,001,2022_Feb_02_1535,TMTAB,2021.2.3,145.71163379566985,
TMTstop-B_1_3.xlsx,52:78,H,['3'],3,TMTstop-B_1_3linestimulus13.png,TMTstop-B_1_3greenlinestimulus13.png,TMTstop-B_1_3redlinestimulus13.png,3,66,,,,,,,,,0,2,2,2,0,15,15,15,1,1,68.39152089995332,None,['3'],1,[0.03247360000386834],68.39152089995332,None,,001,2022_Feb_02_1535,TMTAB,2021.2.3,145.71163379566985,
TMTstop-B_1_3.xlsx,52:78,9,['1'],1,TMTstop-B_1_3linestimulus14.png,TMTstop-B_1_3greenlinestimulus14.png,TMTstop-B_1_3redlinestimulus14.png,3,67,,,,,,,,,0,2,2,2,0,16,16,16,1,1,68.50222919997759,None,['1'],1,[0.08904520003125072],68.50222919997759,None,,001,2022_Feb_02_1535,TMTAB,2021.2.3,145.71163379566985,
TMTstop-B_1_3.xlsx,52:78,I,['2'],2,TMTstop-B_1_3linestimulus15.png,TMTstop-B_1_3greenlinestimulus15.png,TMTstop-B_1_3redlinestimulus15.png,3,68,,,,,,,,,0,2,2,2,0,17,17,17,3,0,68.6623149998486,None,"['3', '1', '2']",1,"[0.14666060009039938, 0.3365096999332309, 0.39013030007481575]",68.6623149998486,None,,001,2022_Feb_02_1535,TMTAB,2021.2.3,145.71163379566985,
TMTstop-B_1_3.xlsx,52:78,10,['3'],3,TMTstop-B_1_3linestimulus16.png,TMTstop-B_1_3greenlinestimulus16.png,TMTstop-B_1_3redlinestimulus16.png,3,69,,,,,,,,,0,2,2,2,0,18,18,18,1,1,69.12965049990453,None,['3'],1,[0.0786071999464184],69.12965049990453,None,,001,2022_Feb_02_1535,TMTAB,2021.2.3,145.71163379566985,
TMTstop-B_1_3.xlsx,52:78,J,['1'],1,TMTstop-B_1_3linestimulus17.png,TMTstop-B_1_3greenlinestimulus17.png,TMTstop-B_1_3redlinestimulus17.png,3,70,,,,,,,,,0,2,2,2,0,19,19,19,1,1,69.29716509999707,None,['1'],1,[0.09445980004966259],69.29716509999707,None,,001,2022_Feb_02_1535,TMTAB,2021.2.3,145.71163379566985,
TMTstop-B_1_3.xlsx,52:78,11,['3'],3,TMTstop-B_1_3linestimulus18.png,TMTstop-B_1_3greenlinestimulus18.png,TMTstop-B_1_3redlinestimulus18.png,3,71,,,,,,,,,0,2,2,2,0,20,20,20,2,0,69.46792869991623,None,"['2', '3']",1,"[-0.03139199991710484, 0.10759259993210435]",69.46792869991623,None,,001,2022_Feb_02_1535,TMTAB,2021.2.3,145.71163379566985,
TMTstop-B_1_3.xlsx,52:78,K,['1'],1,TMTstop-B_1_3linestimulus19.png,TMTstop-B_1_3greenlinestimulus19.png,TMTstop-B_1_3redlinestimulus19.png,3,72,,,,,,,,,0,2,2,2,0,21,21,21,1,1,69.66236149985343,None,['1'],1,[0.06950189988128841],69.66236149985343,None,,001,2022_Feb_02_1535,TMTAB,2021.2.3,145.71163379566985,
TMTstop-B_1_3.xlsx,52:78,12,['2'],2,TMTstop-B_1_3linestimulus20.png,TMTstop-B_1_3greenlinestimulus20.png,TMTstop-B_1_3redlinestimulus20.png,3,73,,,,,,,,,0,2,2,2,0,22,22,22,1,1,69.81622789986432,None,['2'],1,[-0.017075099982321262],69.81622789986432,None,,001,2022_Feb_02_1535,TMTAB,2021.2.3,145.71163379566985,
TMTstop-B_1_3.xlsx,52:78,L,['1'],1,TMTstop-B_1_3linestimulus21.png,TMTstop-B_1_3greenlinestimulus21.png,TMTstop-B_1_3redlinestimulus21.png,3,74,,,,,,,,,0,2,2,2,0,23,23,23,2,0,69.89120429987088,None,"['3', '1']",1,"[0.028755299979820848, 0.17476189997978508]",69.89120429987088,None,,001,2022_Feb_02_1535,TMTAB,2021.2.3,145.71163379566985,
TMTstop-B_1_3.xlsx,52:78,13,['3'],3,TMTstop-B_1_3linestimulus22.png,TMTstop-B_1_3greenlinestimulus22.png,TMTstop-B_1_3redlinestimulus22.png,3,75,,,,,,,,,0,2,2,2,0,24,24,24,2,0,70.16893399995752,None,"['2', '3']",1,"[-0.033541500102728605, 0.07578069996088743]",70.16893399995752,None,,001,2022_Feb_02_1535,TMTAB,2021.2.3,145.71163379566985,
TMTstop-B_1_3.xlsx,52:78,None,None,None,TMTstop-B_1_3linestimulus23.png,TMTstop-B_1_3greenlinestimulus23.png,TMTstop-B_1_3redlinestimulus23.png,3,Feedback_last,,,,,,,,,0,2,2,2,0,25,25,25,3,0,70.32866750005633,None,"['1', '2', '3']",0,"[0.04937419993802905, 0.1037497001234442, 0.31863550003618]",70.32866750005633,None,,001,2022_Feb_02_1535,TMTAB,2021.2.3,145.71163379566985,
TMTstop-B_1_4.xlsx,78:104,1,['1'],1,TMTstop-B_1_4.png,TMTstop-B_1_4.png,TMTstop-B_1_4.png,4,76,,,,,,,,,0,3,3,3,0,0,0,0,1,1,74.46006409986876,None,['1'],1,[0.39652660000137985],74.46006409986876,None,,001,2022_Feb_02_1535,TMTAB,2021.2.3,145.71163379566985,
TMTstop-B_1_4.xlsx,78:104,A,['2'],2,TMTstop-B_1_4.png,TMTstop-B_1_4firstgreen.png,TMTstop-B_1_4firstred.png,4,77,,,,,,,,,0,3,3,3,0,1,1,1,1,1,74.93248960003257,None,['2'],1,[0.030125000048428774],74.93248960003257,None,,001,2022_Feb_02_1535,TMTAB,2021.2.3,145.71163379566985,
TMTstop-B_1_4.xlsx,78:104,2,['1'],1,TMTstop-B_1_4linestimulus0.png,TMTstop-B_1_4greenlinestimulus0.png,TMTstop-B_1_4redlinestimulus0.png,4,78,,,,,,,,,0,3,3,3,0,2,2,2,2,0,75.04375119996257,None,"['3', '1']",1,"[-0.005575699964538217, 0.16459880000911653]",75.04375119996257,None,,001,2022_Feb_02_1535,TMTAB,2021.2.3,145.71163379566985,
TMTstop-B_1_4.xlsx,78:104,B,['2'],2,TMTstop-B_1_4linestimulus1.png,TMTstop-B_1_4greenlinestimulus1.png,TMTstop-B_1_4redlinestimulus1.png,4,79,,,,,,,,,0,3,3,3,0,3,3,3,1,1,75.28032879997045,None,['2'],1,[0.009905199985951185],75.28032879997045,None,,001,2022_Feb_02_1535,TMTAB,2021.2.3,145.71163379566985,
TMTstop-B_1_4.xlsx,78:104,3,['3'],3,TMTstop-B_1_4linestimulus2.png,TMTstop-B_1_4greenlinestimulus2.png,TMTstop-B_1_4redlinestimulus2.png,4,80,,,,,,,,,0,3,3,3,0,4,4,4,1,1,75.36313669988886,None,['3'],1,[0.01957060000859201],75.36313669988886,None,,001,2022_Feb_02_1535,TMTAB,2021.2.3,145.71163379566985,
TMTstop-B_1_4.xlsx,78:104,C,['2'],2,TMTstop-B_1_4linestimulus3.png,TMTstop-B_1_4greenlinestimulus3.png,TMTstop-B_1_4redlinestimulus3.png,4,81,,,,,,,,,0,3,3,3,0,5,5,5,2,0,75.45383760007098,None,"['1', '2']",1,"[0.06185739999637008, 0.1571861000265926]",75.45383760007098,None,,001,2022_Feb_02_1535,TMTAB,2021.2.3,145.71163379566985,
TMTstop-B_1_4.xlsx,78:104,4,['3'],3,TMTstop-B_1_4linestimulus4.png,TMTstop-B_1_4greenlinestimulus4.png,TMTstop-B_1_4redlinestimulus4.png,4,82,,,,,,,,,0,3,3,3,0,6,6,6,1,1,75.7175481999293,None,['3'],1,[-0.016858600080013275],75.7175481999293,None,,001,2022_Feb_02_1535,TMTAB,2021.2.3,145.71163379566985,
TMTstop-B_1_4.xlsx,78:104,D,['1'],1,TMTstop-B_1_4linestimulus5.png,TMTstop-B_1_4greenlinestimulus5.png,TMTstop-B_1_4redlinestimulus5.png,4,83,,,,,,,,,0,3,3,3,0,7,7,7,1,1,75.7900145999156,None,['1'],1,[0.04982299986295402],75.7900145999156,None,,001,2022_Feb_02_1535,TMTAB,2021.2.3,145.71163379566985,
TMTstop-B_1_4.xlsx,78:104,5,['2'],2,TMTstop-B_1_4linestimulus6.png,TMTstop-B_1_4greenlinestimulus6.png,TMTstop-B_1_4redlinestimulus6.png,4,84,,,,,,,,,0,3,3,3,0,8,8,8,1,1,75.91874559991993,None,['2'],1,[-0.027099500177428126],75.91874559991993,None,,001,2022_Feb_02_1535,TMTAB,2021.2.3,145.71163379566985,
TMTstop-B_1_4.xlsx,78:104,E,['3'],3,TMTstop-B_1_4linestimulus7.png,TMTstop-B_1_4greenlinestimulus7.png,TMTstop-B_1_4redlinestimulus7.png,4,85,,,,,,,,,0,3,3,3,0,9,9,9,1,1,75.99490569997579,None,['3'],1,[-0.002671699970960617],75.99490569997579,None,,001,2022_Feb_02_1535,TMTAB,2021.2.3,145.71163379566985,
TMTstop-B_1_4.xlsx,78:104,6,['1'],1,TMTstop-B_1_4linestimulus8.png,TMTstop-B_1_4greenlinestimulus8.png,TMTstop-B_1_4redlinestimulus8.png,4,86,,,,,,,,,0,3,3,3,0,10,10,10,1,1,76.06486839987338,None,['1'],1,[0.06713559990748763],76.06486839987338,None,,001,2022_Feb_02_1535,TMTAB,2021.2.3,145.71163379566985,
TMTstop-B_1_4.xlsx,78:104,F,['3'],3,TMTstop-B_1_4linestimulus9.png,TMTstop-B_1_4greenlinestimulus9.png,TMTstop-B_1_4redlinestimulus9.png,4,87,,,,,,,,,0,3,3,3,0,11,11,11,2,0,76.20356549997814,None,"['2', '3']",1,"[0.015310700051486492, 0.11058859992772341]",76.20356549997814,None,,001,2022_Feb_02_1535,TMTAB,2021.2.3,145.71163379566985,
TMTstop-B_1_4.xlsx,78:104,7,['1'],1,TMTstop-B_1_4linestimulus10.png,TMTstop-B_1_4greenlinestimulus10.png,TMTstop-B_1_4redlinestimulus10.png,4,88,,,,,,,,,0,3,3,3,0,12,12,12,1,1,76.43443430005573,None,['1'],1,[0.031403200002387166],76.43443430005573,None,,001,2022_Feb_02_1535,TMTAB,2021.2.3,145.71163379566985,
TMTstop-B_1_4.xlsx,78:104,G,['3'],3,TMTstop-B_1_4linestimulus11.png,TMTstop-B_1_4greenlinestimulus11.png,TMTstop-B_1_4redlinestimulus11.png,4,89,,,,,,,,,0,3,3,3,0,13,13,13,2,0,76.5587420000229,None,"['2', '3']",1,"[-0.03811239986680448, 0.08401890005916357]",76.5587420000229,None,,001,2022_Feb_02_1535,TMTAB,2021.2.3,145.71163379566985,
TMTstop-B_1_4.xlsx,78:104,8,['2'],2,TMTstop-B_1_4linestimulus12.png,TMTstop-B_1_4greenlinestimulus12.png,TMTstop-B_1_4redlinestimulus12.png,4,90,,,,,,,,,0,3,3,3,0,14,14,14,2,0,76.73260139999911,None,"['1', '2']",1,"[0.05397669994272292, 0.11167010013014078]",76.73260139999911,None,,001,2022_Feb_02_1535,TMTAB,2021.2.3,145.71163379566985,
TMTstop-B_1_4.xlsx,78:104,H,['3'],3,TMTstop-B_1_4linestimulus13.png,TMTstop-B_1_4greenlinestimulus13.png,TMTstop-B_1_4redlinestimulus13.png,4,91,,,,,,,,,0,3,3,3,0,15,15,15,1,1,76.94648949988186,None,['3'],1,[0.01826789998449385],76.94648949988186,None,,001,2022_Feb_02_1535,TMTAB,2021.2.3,145.71163379566985,
TMTstop-B_1_4.xlsx,78:104,9,['2'],2,TMTstop-B_1_4linestimulus14.png,TMTstop-B_1_4greenlinestimulus14.png,TMTstop-B_1_4redlinestimulus14.png,4,92,,,,,,,,,0,3,3,3,0,16,16,16,2,0,77.04376060003415,None,"['1', '2']",1,"[0.062256200006231666, 0.12185390014201403]",77.04376060003415,None,,001,2022_Feb_02_1535,TMTAB,2021.2.3,145.71163379566985,
TMTstop-B_1_4.xlsx,78:104,I,['1'],1,TMTstop-B_1_4linestimulus15.png,TMTstop-B_1_4greenlinestimulus15.png,TMTstop-B_1_4redlinestimulus15.png,4,93,,,,,,,,,0,3,3,3,0,17,17,17,2,0,77.25897069997154,None,"['3', '1']",1,"[0.04520090017467737, 0.17244330001994967]",77.25897069997154,None,,001,2022_Feb_02_1535,TMTAB,2021.2.3,145.71163379566985,
TMTstop-B_1_4.xlsx,78:104,10,['3'],3,TMTstop-B_1_4linestimulus16.png,TMTstop-B_1_4greenlinestimulus16.png,TMTstop-B_1_4redlinestimulus16.png,4,94,,,,,,,,,0,3,3,3,0,18,18,18,2,0,77.52324780006893,None,"['2', '3']",1,"[-0.03547770017758012, 0.1016279999166727]",77.52324780006893,None,,001,2022_Feb_02_1535,TMTAB,2021.2.3,145.71163379566985,
TMTstop-B_1_4.xlsx,78:104,J,['1'],1,TMTstop-B_1_4linestimulus17.png,TMTstop-B_1_4greenlinestimulus17.png,TMTstop-B_1_4redlinestimulus17.png,4,95,,,,,,,,,0,3,3,3,0,19,19,19,1,1,77.71721439994872,None,['1'],1,[0.04106239997781813],77.71721439994872,None,,001,2022_Feb_02_1535,TMTAB,2021.2.3,145.71163379566985,
TMTstop-B_1_4.xlsx,78:104,11,['3'],3,TMTstop-B_1_4linestimulus18.png,TMTstop-B_1_4greenlinestimulus18.png,TMTstop-B_1_4redlinestimulus18.png,4,96,,,,,,,,,0,3,3,3,0,20,20,20,2,0,77.8354070999194,None,"['2', '3']",1,"[-0.023724700091406703, 0.12732660002075136]",77.8354070999194,None,,001,2022_Feb_02_1535,TMTAB,2021.2.3,145.71163379566985,
TMTstop-B_1_4.xlsx,78:104,K,['2'],2,TMTstop-B_1_4linestimulus19.png,TMTstop-B_1_4greenlinestimulus19.png,TMTstop-B_1_4redlinestimulus19.png,4,97,,,,,,,,,0,3,3,3,0,21,21,21,2,0,78.08260009996593,None,"['1', '2']",1,"[0.004788500024005771, 0.10233080014586449]",78.08260009996593,None,,001,2022_Feb_02_1535,TMTAB,2021.2.3,145.71163379566985,
TMTstop-B_1_4.xlsx,78:104,12,['3'],3,TMTstop-B_1_4linestimulus20.png,TMTstop-B_1_4greenlinestimulus20.png,TMTstop-B_1_4redlinestimulus20.png,4,98,,,,,,,,,0,3,3,3,0,22,22,22,1,1,78.2867618999444,None,['3'],1,[0.19394879997707903],78.2867618999444,None,,001,2022_Feb_02_1535,TMTAB,2021.2.3,145.71163379566985,
TMTstop-B_1_4.xlsx,78:104,L,['2'],2,TMTstop-B_1_4linestimulus21.png,TMTstop-B_1_4greenlinestimulus21.png,TMTstop-B_1_4redlinestimulus21.png,4,99,,,,,,,,,0,3,3,3,0,23,23,23,2,0,78.55061089992523,None,"['1', '2']",1,"[0.08132490003481507, 0.14728439995087683]",78.55061089992523,None,,001,2022_Feb_02_1535,TMTAB,2021.2.3,145.71163379566985,
TMTstop-B_1_4.xlsx,78:104,13,['3'],3,TMTstop-B_1_4linestimulus22.png,TMTstop-B_1_4greenlinestimulus22.png,TMTstop-B_1_4redlinestimulus22.png,4,100,,,,,,,,,0,3,3,3,0,24,24,24,1,1,78.78693369985558,None,['3'],1,[0.04155450011603534],78.78693369985558,None,,001,2022_Feb_02_1535,TMTAB,2021.2.3,145.71163379566985,
TMTstop-B_1_4.xlsx,78:104,None,None,None,TMTstop-B_1_4linestimulus23.png,TMTstop-B_1_4greenlinestimulus23.png,TMTstop-B_1_4redlinestimulus23.png,4,Feedback_last,,,,,,,,,0,3,3,3,0,25,25,25,2,0,78.90462449984625,None,"['1', '2']",0,"[0.05364280007779598, 0.15968329994939268]",78.90462449984625,None,,001,2022_Feb_02_1535,TMTAB,2021.2.3,145.71163379566985,
TMTstop-B_1_5.xlsx,104:130,1,['1'],1,TMTstop-B_1_5.png,TMTstop-B_1_5.png,TMTstop-B_1_5.png,5,101,,,,,,,,,0,4,4,4,0,0,0,0,1,1,83.01588489999995,None,['1'],1,[0.743116999976337],83.01588489999995,None,,001,2022_Feb_02_1535,TMTAB,2021.2.3,145.71163379566985,
TMTstop-B_1_5.xlsx,104:130,A,['2'],2,TMTstop-B_1_5.png,TMTstop-B_1_5firstgreen.png,TMTstop-B_1_5firstred.png,5,102,,,,,,,,,0,4,4,4,0,1,1,1,1,1,83.82847469998524,None,['2'],1,[0.06578370020724833],83.82847469998524,None,,001,2022_Feb_02_1535,TMTAB,2021.2.3,145.71163379566985,
TMTstop-B_1_5.xlsx,104:130,2,['1'],1,TMTstop-B_1_5linestimulus0.png,TMTstop-B_1_5greenlinestimulus0.png,TMTstop-B_1_5redlinestimulus0.png,5,103,,,,,,,,,0,4,4,4,0,2,2,2,2,0,83.98092820006423,None,"['3', '1']",1,"[-0.036276299972087145, 0.11864040000364184]",83.98092820006423,None,,001,2022_Feb_02_1535,TMTAB,2021.2.3,145.71163379566985,
TMTstop-B_1_5.xlsx,104:130,B,['3'],3,TMTstop-B_1_5linestimulus1.png,TMTstop-B_1_5greenlinestimulus1.png,TMTstop-B_1_5redlinestimulus1.png,5,104,,,,,,,,,0,4,4,4,0,3,3,3,2,0,84.17547710007057,None,"['2', '3']",1,"[-0.03083860012702644, 0.10233369981870055]",84.17547710007057,None,,001,2022_Feb_02_1535,TMTAB,2021.2.3,145.71163379566985,
TMTstop-B_1_5.xlsx,104:130,3,['1'],1,TMTstop-B_1_5linestimulus2.png,TMTstop-B_1_5greenlinestimulus2.png,TMTstop-B_1_5redlinestimulus2.png,5,105,,,,,,,,,0,4,4,4,0,4,4,4,1,1,84.37043750006706,None,['1'],1,[0.049158799927681684],84.37043750006706,None,,001,2022_Feb_02_1535,TMTAB,2021.2.3,145.71163379566985,
TMTstop-B_1_5.xlsx,104:130,C,['3'],3,TMTstop-B_1_5linestimulus3.png,TMTstop-B_1_5greenlinestimulus3.png,TMTstop-B_1_5redlinestimulus3.png,5,106,,,,,,,,,0,4,4,4,0,5,5,5,2,0,84.48800239991397,None,"['2', '3']",1,"[-0.010962900007143617, 0.09654709999449551]",84.48800239991397,None,,001,2022_Feb_02_1535,TMTAB,2021.2.3,145.71163379566985,
TMTstop-B_1_5.xlsx,104:130,4,['1'],1,TMTstop-B_1_5linestimulus4.png,TMTstop-B_1_5greenlinestimulus4.png,TMTstop-B_1_5redlinestimulus4.png,5,107,,,,,,,,,0,4,4,4,0,6,6,6,1,1,84.68925629998557,None,['1'],1,[0.034795100102201104],84.68925629998557,None,,001,2022_Feb_02_1535,TMTAB,2021.2.3,145.71163379566985,
TMTstop-B_1_5.xlsx,104:130,D,['3'],3,TMTstop-B_1_5linestimulus5.png,TMTstop-B_1_5greenlinestimulus5.png,TMTstop-B_1_5redlinestimulus5.png,5,108,,,,,,,,,0,4,4,4,0,7,7,7,2,0,84.8029996000696,None,"['2', '3']",1,"[-0.009990799939259887, 0.12183030019514263]",84.8029996000696,None,,001,2022_Feb_02_1535,TMTAB,2021.2.3,145.71163379566985,
TMTstop-B_1_5.xlsx,104:130,5,['2'],2,TMTstop-B_1_5linestimulus6.png,TMTstop-B_1_5greenlinestimulus6.png,TMTstop-B_1_5redlinestimulus6.png,5,109,,,,,,,,,0,4,4,4,0,8,8,8,2,0,85.00377770001069,None,"['1', '2']",1,"[0.053063999861478806, 0.1265082999598235]",85.00377770001069,None,,001,2022_Feb_02_1535,TMTAB,2021.2.3,145.71163379566985,
TMTstop-B_1_5.xlsx,104:130,E,['3'],3,TMTstop-B_1_5linestimulus7.png,TMTstop-B_1_5greenlinestimulus7.png,TMTstop-B_1_5redlinestimulus7.png,5,110,,,,,,,,,0,4,4,4,0,9,9,9,1,1,85.21078490000218,None,['3'],1,[0.012726300163194537],85.21078490000218,None,,001,2022_Feb_02_1535,TMTAB,2021.2.3,145.71163379566985,
TMTstop-B_1_5.xlsx,104:130,6,['2'],2,TMTstop-B_1_5linestimulus8.png,TMTstop-B_1_5greenlinestimulus8.png,TMTstop-B_1_5redlinestimulus8.png,5,111,,,,,,,,,0,4,4,4,0,10,10,10,2,0,85.29440020001493,None,"['1', '2']",1,"[0.0760920001193881, 0.1268345001153648]",85.29440020001493,None,,001,2022_Feb_02_1535,TMTAB,2021.2.3,145.71163379566985,
TMTstop-B_1_5.xlsx,104:130,F,['3'],3,TMTstop-B_1_5linestimulus9.png,TMTstop-B_1_5greenlinestimulus9.png,TMTstop-B_1_5redlinestimulus9.png,5,112,,,,,,,,,0,4,4,4,0,11,11,11,1,1,85.53705759998411,None,['3'],1,[0.000655400101095438],85.53705759998411,None,,001,2022_Feb_02_1535,TMTAB,2021.2.3,145.71163379566985,
TMTstop-B_1_5.xlsx,104:130,7,['1'],1,TMTstop-B_1_5linestimulus10.png,TMTstop-B_1_5greenlinestimulus10.png,TMTstop-B_1_5redlinestimulus10.png,5,113,,,,,,,,,0,4,4,4,0,12,12,12,1,1,85.61329979985021,None,['1'],1,[0.06243289983831346],85.61329979985021,None,,001,2022_Feb_02_1535,TMTAB,2021.2.3,145.71163379566985,
TMTstop-B_1_5.xlsx,104:130,G,['3'],3,TMTstop-B_1_5linestimulus11.png,TMTstop-B_1_5greenlinestimulus11.png,TMTstop-B_1_5redlinestimulus11.png,5,114,,,,,,,,,0,4,4,4,0,13,13,13,2,0,85.7523340000771,None,"['2', '3']",1,"[-0.03673690021969378, 0.08906229981221259]",85.7523340000771,None,,001,2022_Feb_02_1535,TMTAB,2021.2.3,145.71163379566985,
TMTstop-B_1_5.xlsx,104:130,8,['1'],1,TMTstop-B_1_5linestimulus12.png,TMTstop-B_1_5greenlinestimulus12.png,TMTstop-B_1_5redlinestimulus12.png,5,115,,,,,,,,,0,4,4,4,0,14,14,14,1,1,85.92529439995997,None,['1'],1,[0.044229699997231364],85.92529439995997,None,,001,2022_Feb_02_1535,TMTAB,2021.2.3,145.71163379566985,
TMTstop-B_1_5.xlsx,104:130,H,['2'],2,TMTstop-B_1_5linestimulus13.png,TMTstop-B_1_5greenlinestimulus13.png,TMTstop-B_1_5redlinestimulus13.png,5,116,,,,,,,,,0,4,4,4,0,15,15,15,1,1,86.05756750004366,None,['2'],1,[-0.022283100057393312],86.05756750004366,None,,001,2022_Feb_02_1535,TMTAB,2021.2.3,145.71163379566985,
TMTstop-B_1_5.xlsx,104:130,9,['3'],3,TMTstop-B_1_5linestimulus14.png,TMTstop-B_1_5greenlinestimulus14.png,TMTstop-B_1_5redlinestimulus14.png,5,117,,,,,,,,,0,4,4,4,0,16,16,16,1,1,86.1337482999079,None,['3'],1,[0.015128400176763535],86.1337482999079,None,,001,2022_Feb_02_1535,TMTAB,2021.2.3,145.71163379566985,
TMTstop-B_1_5.xlsx,104:130,I,['1'],1,TMTstop-B_1_5linestimulus15.png,TMTstop-B_1_5greenlinestimulus15.png,TMTstop-B_1_5redlinestimulus15.png,5,118,,,,,,,,,0,4,4,4,0,17,17,17,1,1,86.23198949988,None,['1'],1,[0.06353470007888973],86.23198949988,None,,001,2022_Feb_02_1535,TMTAB,2021.2.3,145.71163379566985,
TMTstop-B_1_5.xlsx,104:130,10,['3'],3,TMTstop-B_1_5linestimulus16.png,TMTstop-B_1_5greenlinestimulus16.png,TMTstop-B_1_5redlinestimulus16.png,5,119,,,,,,,,,0,4,4,4,0,18,18,18,2,0,86.38433420006186,None,"['2', '3']",1,"[-0.041687200078740716, 0.07151490007527173]",86.38433420006186,None,,001,2022_Feb_02_1535,TMTAB,2021.2.3,145.71163379566985,
TMTstop-B_1_5.xlsx,104:130,J,['2'],2,TMTstop-B_1_5linestimulus17.png,TMTstop-B_1_5greenlinestimulus17.png,TMTstop-B_1_5redlinestimulus17.png,5,120,,,,,,,,,0,4,4,4,0,19,19,19,2,0,86.5435355999507,None,"['1', '2']",1,"[0.04663149989210069, 0.11547750001773238]",86.5435355999507,None,,001,2022_Feb_02_1535,TMTAB,2021.2.3,145.71163379566985,
TMTstop-B_1_5.xlsx,104:130,11,['1'],1,TMTstop-B_1_5linestimulus18.png,TMTstop-B_1_5greenlinestimulus18.png,TMTstop-B_1_5redlinestimulus18.png,5,121,,,,,,,,,0,4,4,4,0,20,20,20,2,0,86.75852709985338,None,"['3', '1']",1,"[0.027689799899235368, 0.18245350010693073]",86.75852709985338,None,,001,2022_Feb_02_1535,TMTAB,2021.2.3,145.71163379566985,
TMTstop-B_1_5.xlsx,104:130,K,['2'],2,TMTstop-B_1_5linestimulus19.png,TMTstop-B_1_5greenlinestimulus19.png,TMTstop-B_1_5redlinestimulus19.png,5,122,,,,,,,,,0,4,4,4,0,21,21,21,1,1,87.06531869992614,None,['2'],1,[-0.06892749993130565],87.06531869992614,None,,001,2022_Feb_02_1535,TMTAB,2021.2.3,145.71163379566985,
TMTstop-B_1_5.xlsx,104:130,12,['3'],3,TMTstop-B_1_5linestimulus20.png,TMTstop-B_1_5greenlinestimulus20.png,TMTstop-B_1_5redlinestimulus20.png,5,123,,,,,,,,,0,4,4,4,0,22,22,22,1,1,87.15546260005794,None,['3'],1,[-0.0402347999624908],87.15546260005794,None,,001,2022_Feb_02_1535,TMTAB,2021.2.3,145.71163379566985,
TMTstop-B_1_5.xlsx,104:130,L,['1'],1,TMTstop-B_1_5linestimulus21.png,TMTstop-B_1_5greenlinestimulus21.png,TMTstop-B_1_5redlinestimulus21.png,5,124,,,,,,,,,0,4,4,4,0,23,23,23,1,1,87.24923369986936,None,['1'],1,[0.014270500047132373],87.24923369986936,None,,001,2022_Feb_02_1535,TMTAB,2021.2.3,145.71163379566985,
TMTstop-B_1_5.xlsx,104:130,13,['3'],3,TMTstop-B_1_5linestimulus22.png,TMTstop-B_1_5greenlinestimulus22.png,TMTstop-B_1_5redlinestimulus22.png,5,125,,,,,,,,,0,4,4,4,0,24,24,24,2,0,87.35729309986345,None,"['2', '3']",1,"[-0.05394929996691644, 0.08906530006788671]",87.35729309986345,None,,001,2022_Feb_02_1535,TMTAB,2021.2.3,145.71163379566985,
TMTstop-B_1_5.xlsx,104:130,None,None,None,TMTstop-B_1_5linestimulus23.png,TMTstop-B_1_5greenlinestimulus23.png,TMTstop-B_1_5redlinestimulus23.png,5,Feedback_last,,,,,,,,,0,4,4,4,0,25,25,25,3,0,87.55747230001725,None,"['1', '2', '3']",0,"[0.026789299910888076, 0.09442079998552799, 0.22347879991866648]",87.55747230001725,None,,001,2022_Feb_02_1535,TMTAB,2021.2.3,145.71163379566985,
