NumberLetter,corrAns,StimFile,Correct_StimFile,False_StimFile,DurationTrial,restartpractice.thisRepN,restartpractice.thisTrialN,restartpractice.thisN,restartpractice.thisIndex,trials_practice.thisRepN,trials_practice.thisTrialN,trials_practice.thisN,trials_practice.thisIndex,trials.thisRepN,trials.thisTrialN,trials.thisN,trials.thisIndex,trials_2.thisRepN,trials_2.thisTrialN,trials_2.thisN,trials_2.thisIndex,trials_3.thisRepN,trials_3.thisTrialN,trials_3.thisN,trials_3.thisIndex,trials_4.thisRepN,trials_4.thisTrialN,trials_4.thisN,trials_4.thisIndex,Instruct.started,Instruct.stopped,image_2.started,image_2.stopped,key_resp_6.keys,key_resp_6.rt,key_resp_6.started,key_resp_6.stopped,polygon.started,polygon.stopped,Stim_practice.started,Stim_practice.stopped,key_resp_practice.keys,key_resp_practice.rt,key_resp_practice.started,key_resp_practice.stopped,text_5.started,text_5.stopped,key_resp_5.keys,key_resp_5.rt,key_resp_5.started,key_resp_5.stopped,Stim.started,Stim.stopped,key_resp_2.keys,key_resp_2.corr,key_resp_2.rt,key_resp_2.started,key_resp_2.stopped,text.started,text.stopped,participant,session,date,expName,psychopyVersion,frameRate,
,,,,,,,,,,,,,,,,,,,,,,,,,,,,,,6.466587300004903,None,7.237772199994652,None,2,0.5507792999997037,7.237772199994652,None,,,,,,,,,,,,,,,,,,,,,,,,,001,2021_Nov_17_1300,TMTAB,2021.2.3,144.7529934994805,
1,['1'],TMTstop-B_1_practice.png,TMTstop-B_1_practice.png,TMTstop-B_1_practice.png,10,0,0,0,0,0,0,0,0,,,,,,,,,,,,,,,,,,,,,,,,,7.801537199993618,None,10.843152700006613,None,1,1.3984672999940813,10.843152700006613,None,,,,,,,,,,,,,,,,,001,2021_Nov_17_1300,TMTAB,2021.2.3,144.7529934994805,
A,['3'],TMTstop-B_1_practice.png,TMTstop-B_1_practicefirstgreen.png,TMTstop-B_1_practicefirstred.png,10,0,0,0,0,0,1,1,1,,,,,,,,,,,,,,,,,,,,,,,,,,,12.31553380000696,None,3,0.6730564999888884,12.31553380000696,None,,,,,,,,,,,,,,,,,001,2021_Nov_17_1300,TMTAB,2021.2.3,144.7529934994805,
2,['1'],TMTstop-B_1_practicelinestimulus0.png,TMTstop-B_1_practicegreenlinestimulus0.png,TMTstop-B_1_practiceredlinestimulus0.png,10,0,0,0,0,0,2,2,2,,,,,,,,,,,,,,,,,,,,,,,,,,,13.08652379999694,None,1,0.40810480000800453,13.08652379999694,None,,,,,,,,,,,,,,,,,001,2021_Nov_17_1300,TMTAB,2021.2.3,144.7529934994805,
B,['2'],TMTstop-B_1_practicelinestimulus1.png,TMTstop-B_1_practicegreenlinestimulus1.png,TMTstop-B_1_practiceredlinestimulus1.png,10,0,0,0,0,0,3,3,3,,,,,,,,,,,,,,,,,,,,,,,,,,,13.572868500006734,None,2,0.030765599993173964,13.572868500006734,None,,,,,,,,,,,,,,,,,001,2021_Nov_17_1300,TMTAB,2021.2.3,144.7529934994805,
3,['3'],TMTstop-B_1_practicelinestimulus2.png,TMTstop-B_1_practicegreenlinestimulus2.png,TMTstop-B_1_practiceredlinestimulus2.png,10,0,0,0,0,0,4,4,4,,,,,,,,,,,,,,,,,,,,,,,,,,,13.676566800000728,None,3,0.022012600005837157,13.676566800000728,None,,,,,,,,,,,,,,,,,001,2021_Nov_17_1300,TMTAB,2021.2.3,144.7529934994805,
C,['1'],TMTstop-B_1_practicelinestimulus3.png,TMTstop-B_1_practicegreenlinestimulus3.png,TMTstop-B_1_practiceredlinestimulus3.png,10,0,0,0,0,0,5,5,5,,,,,,,,,,,,,,,,,,,,,,,,,,,13.773947699999553,None,1,0.12517040000238921,13.773947699999553,None,,,,,,,,,,,,,,,,,001,2021_Nov_17_1300,TMTAB,2021.2.3,144.7529934994805,
4,['2'],TMTstop-B_1_practicelinestimulus4.png,TMTstop-B_1_practicegreenlinestimulus4.png,TMTstop-B_1_practiceredlinestimulus4.png,10,0,0,0,0,0,6,6,6,,,,,,,,,,,,,,,,,,,,,,,,,,,13.968370999995386,None,2,0.9622169000067515,13.968370999995386,None,,,,,,,,,,,,,,,,,001,2021_Nov_17_1300,TMTAB,2021.2.3,144.7529934994805,
D,['3'],TMTstop-B_1_practicelinestimulus5.png,TMTstop-B_1_practicegreenlinestimulus5.png,TMTstop-B_1_practiceredlinestimulus5.png,10,0,0,0,0,0,7,7,7,,,,,,,,,,,,,,,,,,,,,,,,,,,15.023758299998008,None,3,0.4408828000014182,15.023758299998008,None,,,,,,,,,,,,,,,,,001,2021_Nov_17_1300,TMTAB,2021.2.3,144.7529934994805,
5,['2'],TMTstop-B_1_practicelinestimulus6.png,TMTstop-B_1_practicegreenlinestimulus6.png,TMTstop-B_1_practiceredlinestimulus6.png,10,0,0,0,0,0,8,8,8,,,,,,,,,,,,,,,,,,,,,,,,,,,15.544895600003656,None,2,0.16450539999641478,15.544895600003656,None,,,,,,,,,,,,,,,,,001,2021_Nov_17_1300,TMTAB,2021.2.3,144.7529934994805,
E,['1'],TMTstop-B_1_practicelinestimulus7.png,TMTstop-B_1_practicegreenlinestimulus7.png,TMTstop-B_1_practiceredlinestimulus7.png,10,0,0,0,0,0,9,9,9,,,,,,,,,,,,,,,,,,,,,,,,,,,15.787895400004345,None,1,0.5069439000071725,15.787895400004345,None,,,,,,,,,,,,,,,,,001,2021_Nov_17_1300,TMTAB,2021.2.3,144.7529934994805,
6,['3'],TMTstop-B_1_practicelinestimulus8.png,TMTstop-B_1_practicegreenlinestimulus8.png,TMTstop-B_1_practiceredlinestimulus8.png,10,0,0,0,0,0,10,10,10,,,,,,,,,,,,,,,,,,,,,,,,,,,16.36418990000675,None,3,0.7628496999968775,16.36418990000675,None,,,,,,,,,,,,,,,,,001,2021_Nov_17_1300,TMTAB,2021.2.3,144.7529934994805,
F,['1'],TMTstop-B_1_practicelinestimulus9.png,TMTstop-B_1_practicegreenlinestimulus9.png,TMTstop-B_1_practiceredlinestimulus9.png,10,0,0,0,0,0,11,11,11,,,,,,,,,,,,,,,,,,,,,,,,,,,17.20431749999989,None,1,0.6247842000011588,17.20431749999989,None,,,,,,,,,,,,,,,,,001,2021_Nov_17_1300,TMTAB,2021.2.3,144.7529934994805,
None,None,TMTstop-B_1_practicelinestimulus10.png,TMTstop-B_1_practicegreenlinestimulus10.png,TMTstop-B_1_practiceredlinestimulus10.png,1,0,0,0,0,0,12,12,12,,,,,,,,,,,,,,,,,,,,,,,,,,,17.8993216999952,None,None,,17.8993216999952,None,,,,,,,,,,,,,,,,,001,2021_Nov_17_1300,TMTAB,2021.2.3,144.7529934994805,
,,,,,,0,0,0,0,,,,,,,,,,,,,,,,,,,,,,,,,,,,,,,,,,,,,18.938447799999267,None,2,10.260933300000033,18.938447799999267,None,,,,,,,,,,,001,2021_Nov_17_1300,TMTAB,2021.2.3,144.7529934994805,
1,['2'],TMTstop-B_1_1.png,TMTstop-B_1_1.png,TMTstop-B_1_1.png,10,,,,,,,,,0,0,0,0,,,,,,,,,,,,,,,,,,,,,29.21581839999999,None,,,,,,,,,,,,,32.26614809999592,None,"['1', '2']",1,"[1.2813491999986582, 1.3764595000102418]",32.26614809999592,None,,,,001,2021_Nov_17_1300,TMTAB,2021.2.3,144.7529934994805,
A,['1'],TMTstop-B_1_1.png,TMTstop-B_1_1firstgreen.png,TMTstop-B_1_1firstred.png,10,,,,,,,,,0,1,1,1,,,,,,,,,,,,,,,,,,,,,,,,,,,,,,,,,,,33.73960080000688,None,"['3', '1']",1,"[-0.005946800010860898, 0.20652429999609012]",33.73960080000688,None,,,,001,2021_Nov_17_1300,TMTAB,2021.2.3,144.7529934994805,
2,['3'],TMTstop-B_1_1linestimulus0.png,TMTstop-B_1_1greenlinestimulus0.png,TMTstop-B_1_1redlinestimulus0.png,10,,,,,,,,,0,2,2,2,,,,,,,,,,,,,,,,,,,,,,,,,,,,,,,,,,,34.01667130000715,None,"['2', '3']",1,"[0.006584799994016066, 0.1201767999882577]",34.01667130000715,None,,,,001,2021_Nov_17_1300,TMTAB,2021.2.3,144.7529934994805,
B,['2'],TMTstop-B_1_1linestimulus1.png,TMTstop-B_1_1greenlinestimulus1.png,TMTstop-B_1_1redlinestimulus1.png,10,,,,,,,,,0,3,3,3,,,,,,,,,,,,,,,,,,,,,,,,,,,,,,,,,,,34.23167229999672,None,"['1', '2']",1,"[0.08172459999332204, 0.16187939999508671]",34.23167229999672,None,,,,001,2021_Nov_17_1300,TMTAB,2021.2.3,144.7529934994805,
3,['1'],TMTstop-B_1_1linestimulus2.png,TMTstop-B_1_1greenlinestimulus2.png,TMTstop-B_1_1redlinestimulus2.png,10,,,,,,,,,0,4,4,4,,,,,,,,,,,,,,,,,,,,,,,,,,,,,,,,,,,34.475135200002114,None,"['3', '1']",1,"[0.01319820000207983, 0.18732209999870975]",34.475135200002114,None,,,,001,2021_Nov_17_1300,TMTAB,2021.2.3,144.7529934994805,
C,['2'],TMTstop-B_1_1linestimulus3.png,TMTstop-B_1_1greenlinestimulus3.png,TMTstop-B_1_1redlinestimulus3.png,10,,,,,,,,,0,5,5,5,,,,,,,,,,,,,,,,,,,,,,,,,,,,,,,,,,,34.7733595000027,None,['2'],1,[-0.05673709999246057],34.7733595000027,None,,,,001,2021_Nov_17_1300,TMTAB,2021.2.3,144.7529934994805,
4,['1'],TMTstop-B_1_1linestimulus4.png,TMTstop-B_1_1greenlinestimulus4.png,TMTstop-B_1_1redlinestimulus4.png,10,,,,,,,,,0,6,6,6,,,,,,,,,,,,,,,,,,,,,,,,,,,,,,,,,,,34.85640279999643,None,"['3', '1']",1,"[-0.03353479999350384, 0.10273710000910796]",34.85640279999643,None,,,,001,2021_Nov_17_1300,TMTAB,2021.2.3,144.7529934994805,
D,['2'],TMTstop-B_1_1linestimulus5.png,TMTstop-B_1_1greenlinestimulus5.png,TMTstop-B_1_1redlinestimulus5.png,10,,,,,,,,,0,7,7,7,,,,,,,,,,,,,,,,,,,,,,,,,,,,,,,,,,,35.051235100007034,None,['2'],1,[-0.02894889999879524],35.051235100007034,None,,,,001,2021_Nov_17_1300,TMTAB,2021.2.3,144.7529934994805,
5,['3'],TMTstop-B_1_1linestimulus6.png,TMTstop-B_1_1greenlinestimulus6.png,TMTstop-B_1_1redlinestimulus6.png,10,,,,,,,,,0,8,8,8,,,,,,,,,,,,,,,,,,,,,,,,,,,,,,,,,,,35.127558399995905,None,['3'],1,[0.00032869999995455146],35.127558399995905,None,,,,001,2021_Nov_17_1300,TMTAB,2021.2.3,144.7529934994805,
E,['1'],TMTstop-B_1_1linestimulus7.png,TMTstop-B_1_1greenlinestimulus7.png,TMTstop-B_1_1redlinestimulus7.png,10,,,,,,,,,0,9,9,9,,,,,,,,,,,,,,,,,,,,,,,,,,,,,,,,,,,35.20420579999336,None,['1'],1,[0.057630200011772104],35.20420579999336,None,,,,001,2021_Nov_17_1300,TMTAB,2021.2.3,144.7529934994805,
6,['3'],TMTstop-B_1_1linestimulus8.png,TMTstop-B_1_1greenlinestimulus8.png,TMTstop-B_1_1redlinestimulus8.png,10,,,,,,,,,0,10,10,10,,,,,,,,,,,,,,,,,,,,,,,,,,,,,,,,,,,35.349537100002635,None,"['2', '3']",1,"[-0.026385000004665926, 0.07593920000363141]",35.349537100002635,None,,,,001,2021_Nov_17_1300,TMTAB,2021.2.3,144.7529934994805,
F,['2'],TMTstop-B_1_1linestimulus9.png,TMTstop-B_1_1greenlinestimulus9.png,TMTstop-B_1_1redlinestimulus9.png,10,,,,,,,,,0,11,11,11,,,,,,,,,,,,,,,,,,,,,,,,,,,,,,,,,,,35.50987019999593,None,"['1', '2']",1,"[0.030610899993916973, 0.08987469998828601]",35.50987019999593,None,,,,001,2021_Nov_17_1300,TMTAB,2021.2.3,144.7529934994805,
7,['1'],TMTstop-B_1_1linestimulus10.png,TMTstop-B_1_1greenlinestimulus10.png,TMTstop-B_1_1redlinestimulus10.png,1,,,,,,,,,0,12,12,12,,,,,,,,,,,,,,,,,,,,,,,,,,,,,,,,,,,35.7112208000035,None,"['3', '1']",1,"[-0.016404900001361966, 0.12227279999933671]",35.7112208000035,None,,,,001,2021_Nov_17_1300,TMTAB,2021.2.3,144.7529934994805,
G,['3'],TMTstop-B_1_1linestimulus11.png,TMTstop-B_1_1greenlinestimulus11.png,TMTstop-B_1_1redlinestimulus11.png,None,,,,,,,,,0,13,13,13,,,,,,,,,,,,,,,,,,,,,,,,,,,,,,,,,,,35.91905110000516,None,"['2', '3']",1,"[-0.016303900003549643, 0.07906079999520443]",35.91905110000516,None,,,,001,2021_Nov_17_1300,TMTAB,2021.2.3,144.7529934994805,
8,['1'],TMTstop-B_1_1linestimulus12.png,TMTstop-B_1_1greenlinestimulus12.png,TMTstop-B_1_1redlinestimulus12.png,None,,,,,,,,,0,14,14,14,,,,,,,,,,,,,,,,,,,,,,,,,,,,,,,,,,,36.08590639999602,None,['1'],1,[0.031214899994665757],36.08590639999602,None,,,,001,2021_Nov_17_1300,TMTAB,2021.2.3,144.7529934994805,
H,['2'],TMTstop-B_1_1linestimulus13.png,TMTstop-B_1_1greenlinestimulus13.png,TMTstop-B_1_1redlinestimulus13.png,None,,,,,,,,,0,15,15,15,,,,,,,,,,,,,,,,,,,,,,,,,,,,,,,,,,,36.19710629999463,None,['2'],1,[-0.016213599999900907],36.19710629999463,None,,,,001,2021_Nov_17_1300,TMTAB,2021.2.3,144.7529934994805,
9,['3'],TMTstop-B_1_1linestimulus14.png,TMTstop-B_1_1greenlinestimulus14.png,TMTstop-B_1_1redlinestimulus14.png,None,,,,,,,,,0,16,16,16,,,,,,,,,,,,,,,,,,,,,,,,,,,,,,,,,,,36.280405400000745,None,['3'],1,[0.001887399994302541],36.280405400000745,None,,,,001,2021_Nov_17_1300,TMTAB,2021.2.3,144.7529934994805,
I,['2'],TMTstop-B_1_1linestimulus15.png,TMTstop-B_1_1greenlinestimulus15.png,TMTstop-B_1_1redlinestimulus15.png,None,,,,,,,,,0,17,17,17,,,,,,,,,,,,,,,,,,,,,,,,,,,,,,,,,,,36.37061500000709,None,"['1', '2']",1,"[0.028109999999287538, 0.08971289999317378]",36.37061500000709,None,,,,001,2021_Nov_17_1300,TMTAB,2021.2.3,144.7529934994805,
10,['1'],TMTstop-B_1_1linestimulus16.png,TMTstop-B_1_1greenlinestimulus16.png,TMTstop-B_1_1redlinestimulus16.png,None,,,,,,,,,0,18,18,18,,,,,,,,,,,,,,,,,,,,,,,,,,,,,,,,,,,36.57182450000255,None,"['3', '1']",1,"[-0.010798700008308515, 0.11194949998753145]",36.57182450000255,None,,,,001,2021_Nov_17_1300,TMTAB,2021.2.3,144.7529934994805,
J,['2'],TMTstop-B_1_1linestimulus17.png,TMTstop-B_1_1greenlinestimulus17.png,TMTstop-B_1_1redlinestimulus17.png,None,,,,,,,,,0,19,19,19,,,,,,,,,,,,,,,,,,,,,,,,,,,,,,,,,,,36.78722149999521,None,['2'],1,[-0.048396499987575226],36.78722149999521,None,,,,001,2021_Nov_17_1300,TMTAB,2021.2.3,144.7529934994805,
11,['3'],TMTstop-B_1_1linestimulus18.png,TMTstop-B_1_1greenlinestimulus18.png,TMTstop-B_1_1redlinestimulus18.png,None,,,,,,,,,0,20,20,20,,,,,,,,,,,,,,,,,,,,,,,,,,,,,,,,,,,36.87039019999793,None,['3'],1,[-0.021135300004971214],36.87039019999793,None,,,,001,2021_Nov_17_1300,TMTAB,2021.2.3,144.7529934994805,
K,['1'],TMTstop-B_1_1linestimulus19.png,TMTstop-B_1_1greenlinestimulus19.png,TMTstop-B_1_1redlinestimulus19.png,None,,,,,,,,,0,21,21,21,,,,,,,,,,,,,,,,,,,,,,,,,,,,,,,,,,,36.94724530000531,None,['1'],1,[0.023487099999329075],36.94724530000531,None,,,,001,2021_Nov_17_1300,TMTAB,2021.2.3,144.7529934994805,
12,['3'],TMTstop-B_1_1linestimulus20.png,TMTstop-B_1_1greenlinestimulus20.png,TMTstop-B_1_1redlinestimulus20.png,None,,,,,,,,,0,22,22,22,,,,,,,,,,,,,,,,,,,,,,,,,,,,,,,,,,,37.05830000000424,None,"['2', '3']",1,"[-0.01744870000402443, 0.07673149999754969]",37.05830000000424,None,,,,001,2021_Nov_17_1300,TMTAB,2021.2.3,144.7529934994805,
L,['1'],TMTstop-B_1_1linestimulus21.png,TMTstop-B_1_1greenlinestimulus21.png,TMTstop-B_1_1redlinestimulus21.png,None,,,,,,,,,0,23,23,23,,,,,,,,,,,,,,,,,,,,,,,,,,,,,,,,,,,37.23182420000376,None,['1'],1,[0.028129600003012456],37.23182420000376,None,,,,001,2021_Nov_17_1300,TMTAB,2021.2.3,144.7529934994805,
13,['2'],TMTstop-B_1_1linestimulus22.png,TMTstop-B_1_1greenlinestimulus22.png,TMTstop-B_1_1redlinestimulus22.png,None,,,,,,,,,0,24,24,24,,,,,,,,,,,,,,,,,,,,,,,,,,,,,,,,,,,37.34980070000165,None,['2'],1,[-0.020525100000668317],37.34980070000165,None,,,,001,2021_Nov_17_1300,TMTAB,2021.2.3,144.7529934994805,
None,None,TMTstop-B_1_1linestimulus23.png,TMTstop-B_1_1greenlinestimulus23.png,TMTstop-B_1_1redlinestimulus23.png,None,,,,,,,,,0,25,25,25,,,,,,,,,,,,,,,,,,,,,,,,,,,,,,,,,,,37.43264790000103,None,"['3', '1', '2']",0,"[-0.010620100001688115, 0.11088619999645744, 0.20653199999651406]",37.43264790000103,None,,,,001,2021_Nov_17_1300,TMTAB,2021.2.3,144.7529934994805,
1,['2'],TMTstop-B_1_2.png,TMTstop-B_1_2.png,TMTstop-B_1_2.png,10,,,,,,,,,,,,,0,0,0,0,,,,,,,,,,,,,,,,,38.507196999998996,None,,,,,,,,,,,,,41.55080440000165,None,"['1', '2']",1,"[0.3861073000007309, 0.4679141999949934]",41.55080440000165,None,,,,001,2021_Nov_17_1300,TMTAB,2021.2.3,144.7529934994805,
A,['3'],TMTstop-B_1_2.png,TMTstop-B_1_2firstgreen.png,TMTstop-B_1_2firstred.png,10,,,,,,,,,,,,,0,1,1,1,,,,,,,,,,,,,,,,,,,,,,,,,,,,,,,42.12750250000681,None,['3'],1,[0.0022764999885112047],42.12750250000681,None,,,,001,2021_Nov_17_1300,TMTAB,2021.2.3,144.7529934994805,
2,['1'],TMTstop-B_1_2linestimulus0.png,TMTstop-B_1_2greenlinestimulus0.png,TMTstop-B_1_2redlinestimulus0.png,10,,,,,,,,,,,,,0,2,2,2,,,,,,,,,,,,,,,,,,,,,,,,,,,,,,,42.21089000000211,None,['1'],1,[0.056784200001857243],42.21089000000211,None,,,,001,2021_Nov_17_1300,TMTAB,2021.2.3,144.7529934994805,
B,['2'],TMTstop-B_1_2linestimulus1.png,TMTstop-B_1_2greenlinestimulus1.png,TMTstop-B_1_2redlinestimulus1.png,10,,,,,,,,,,,,,0,3,3,3,,,,,,,,,,,,,,,,,,,,,,,,,,,,,,,42.34271440000157,None,['2'],1,[-0.02206560000195168],42.34271440000157,None,,,,001,2021_Nov_17_1300,TMTAB,2021.2.3,144.7529934994805,
3,['3'],TMTstop-B_1_2linestimulus2.png,TMTstop-B_1_2greenlinestimulus2.png,TMTstop-B_1_2redlinestimulus2.png,10,,,,,,,,,,,,,0,4,4,4,,,,,,,,,,,,,,,,,,,,,,,,,,,,,,,42.41862120000587,None,['3'],1,[0.0037911000108579174],42.41862120000587,None,,,,001,2021_Nov_17_1300,TMTAB,2021.2.3,144.7529934994805,
C,['1'],TMTstop-B_1_2linestimulus3.png,TMTstop-B_1_2greenlinestimulus3.png,TMTstop-B_1_2redlinestimulus3.png,10,,,,,,,,,,,,,0,5,5,5,,,,,,,,,,,,,,,,,,,,,,,,,,,,,,,42.50246509999852,None,['1'],1,[0.04324899999483023],42.50246509999852,None,,,,001,2021_Nov_17_1300,TMTAB,2021.2.3,144.7529934994805,
4,['2'],TMTstop-B_1_2linestimulus4.png,TMTstop-B_1_2greenlinestimulus4.png,TMTstop-B_1_2redlinestimulus4.png,10,,,,,,,,,,,,,0,6,6,6,,,,,,,,,,,,,,,,,,,,,,,,,,,,,,,42.627521200003684,None,['2'],1,[-0.016901599999982864],42.627521200003684,None,,,,001,2021_Nov_17_1300,TMTAB,2021.2.3,144.7529934994805,
D,['3'],TMTstop-B_1_2linestimulus5.png,TMTstop-B_1_2greenlinestimulus5.png,TMTstop-B_1_2redlinestimulus5.png,10,,,,,,,,,,,,,0,7,7,7,,,,,,,,,,,,,,,,,,,,,,,,,,,,,,,42.703726599997026,None,['3'],1,[-0.007917499999166466],42.703726599997026,None,,,,001,2021_Nov_17_1300,TMTAB,2021.2.3,144.7529934994805,
5,['2'],TMTstop-B_1_2linestimulus6.png,TMTstop-B_1_2greenlinestimulus6.png,TMTstop-B_1_2redlinestimulus6.png,10,,,,,,,,,,,,,0,8,8,8,,,,,,,,,,,,,,,,,,,,,,,,,,,,,,,42.773167999999714,None,"['1', '2']",1,"[0.047503199995844625, 0.11075999999593478]",42.773167999999714,None,,,,001,2021_Nov_17_1300,TMTAB,2021.2.3,144.7529934994805,
E,['1'],TMTstop-B_1_2linestimulus7.png,TMTstop-B_1_2greenlinestimulus7.png,TMTstop-B_1_2redlinestimulus7.png,10,,,,,,,,,,,,,0,9,9,9,,,,,,,,,,,,,,,,,,,,,,,,,,,,,,,42.98172120000527,None,"['3', '1']",1,"[-0.005827000000863336, 0.11114409999572672]",42.98172120000527,None,,,,001,2021_Nov_17_1300,TMTAB,2021.2.3,144.7529934994805,
6,['3'],TMTstop-B_1_2linestimulus8.png,TMTstop-B_1_2greenlinestimulus8.png,TMTstop-B_1_2redlinestimulus8.png,10,,,,,,,,,,,,,0,10,10,10,,,,,,,,,,,,,,,,,,,,,,,,,,,,,,,43.17620370000077,None,"['2', '3']",1,"[-0.017817600004491396, 0.07348510000156239]",43.17620370000077,None,,,,001,2021_Nov_17_1300,TMTAB,2021.2.3,144.7529934994805,
F,['1'],TMTstop-B_1_2linestimulus9.png,TMTstop-B_1_2greenlinestimulus9.png,TMTstop-B_1_2redlinestimulus9.png,10,,,,,,,,,,,,,0,11,11,11,,,,,,,,,,,,,,,,,,,,,,,,,,,,,,,43.32884649999323,None,['1'],1,[0.041241300001274794],43.32884649999323,None,,,,001,2021_Nov_17_1300,TMTAB,2021.2.3,144.7529934994805,
7,['3'],TMTstop-B_1_2linestimulus10.png,TMTstop-B_1_2greenlinestimulus10.png,TMTstop-B_1_2redlinestimulus10.png,1,,,,,,,,,,,,,0,12,12,12,,,,,,,,,,,,,,,,,,,,,,,,,,,,,,,43.43996370000241,None,"['2', '3']",1,"[-0.010899000000790693, 0.09709329999168403]",43.43996370000241,None,,,,001,2021_Nov_17_1300,TMTAB,2021.2.3,144.7529934994805,
G,['2'],TMTstop-B_1_2linestimulus11.png,TMTstop-B_1_2greenlinestimulus11.png,TMTstop-B_1_2redlinestimulus11.png,None,,,,,,,,,,,,,0,13,13,13,,,,,,,,,,,,,,,,,,,,,,,,,,,,,,,43.64145569999528,None,"['1', '2']",1,"[0.005020299999159761, 0.06676030000380706]",43.64145569999528,None,,,,001,2021_Nov_17_1300,TMTAB,2021.2.3,144.7529934994805,
8,['3'],TMTstop-B_1_2linestimulus12.png,TMTstop-B_1_2greenlinestimulus12.png,TMTstop-B_1_2redlinestimulus12.png,None,,,,,,,,,,,,,0,14,14,14,,,,,,,,,,,,,,,,,,,,,,,,,,,,,,,43.81566659999953,None,['3'],1,[0.0012489000073401257],43.81566659999953,None,,,,001,2021_Nov_17_1300,TMTAB,2021.2.3,144.7529934994805,
H,['2'],TMTstop-B_1_2linestimulus13.png,TMTstop-B_1_2greenlinestimulus13.png,TMTstop-B_1_2redlinestimulus13.png,None,,,,,,,,,,,,,0,15,15,15,,,,,,,,,,,,,,,,,,,,,,,,,,,,,,,43.8993410999974,None,"['1', '2']",1,"[0.01898310000251513, 0.08117160000256263]",43.8993410999974,None,,,,001,2021_Nov_17_1300,TMTAB,2021.2.3,144.7529934994805,
9,['3'],TMTstop-B_1_2linestimulus14.png,TMTstop-B_1_2greenlinestimulus14.png,TMTstop-B_1_2redlinestimulus14.png,None,,,,,,,,,,,,,0,16,16,16,,,,,,,,,,,,,,,,,,,,,,,,,,,,,,,44.1001557999989,None,"['1', '2', '3']",1,"[0.1020728000003146, 0.1631117000069935, 0.2660753999953158]",44.1001557999989,None,,,,001,2021_Nov_17_1300,TMTAB,2021.2.3,144.7529934994805,
I,['1'],TMTstop-B_1_2linestimulus15.png,TMTstop-B_1_2greenlinestimulus15.png,TMTstop-B_1_2redlinestimulus15.png,None,,,,,,,,,,,,,0,17,17,17,,,,,,,,,,,,,,,,,,,,,,,,,,,,,,,44.447265299997525,None,['1'],1,[0.04151329999149311],44.447265299997525,None,,,,001,2021_Nov_17_1300,TMTAB,2021.2.3,144.7529934994805,
10,['2'],TMTstop-B_1_2linestimulus16.png,TMTstop-B_1_2greenlinestimulus16.png,TMTstop-B_1_2redlinestimulus16.png,None,,,,,,,,,,,,,0,18,18,18,,,,,,,,,,,,,,,,,,,,,,,,,,,,,,,44.55806759999541,None,['2'],1,[-0.006147499996586703],44.55806759999541,None,,,,001,2021_Nov_17_1300,TMTAB,2021.2.3,144.7529934994805,
J,['3'],TMTstop-B_1_2linestimulus17.png,TMTstop-B_1_2greenlinestimulus17.png,TMTstop-B_1_2redlinestimulus17.png,None,,,,,,,,,,,,,0,19,19,19,,,,,,,,,,,,,,,,,,,,,,,,,,,,,,,44.62739779999538,None,['3'],1,[0.035335699998540804],44.62739779999538,None,,,,001,2021_Nov_17_1300,TMTAB,2021.2.3,144.7529934994805,
11,['2'],TMTstop-B_1_2linestimulus18.png,TMTstop-B_1_2greenlinestimulus18.png,TMTstop-B_1_2redlinestimulus18.png,None,,,,,,,,,,,,,0,20,20,20,,,,,,,,,,,,,,,,,,,,,,,,,,,,,,,44.73852810000244,None,"['1', '2']",1,"[0.06055070000002161, 0.1491373000026215]",44.73852810000244,None,,,,001,2021_Nov_17_1300,TMTAB,2021.2.3,144.7529934994805,
K,['3'],TMTstop-B_1_2linestimulus19.png,TMTstop-B_1_2greenlinestimulus19.png,TMTstop-B_1_2redlinestimulus19.png,None,,,,,,,,,,,,,0,21,21,21,,,,,,,,,,,,,,,,,,,,,,,,,,,,,,,44.995536000002176,None,['3'],1,[0.0018400999979348853],44.995536000002176,None,,,,001,2021_Nov_17_1300,TMTAB,2021.2.3,144.7529934994805,
12,['1'],TMTstop-B_1_2linestimulus20.png,TMTstop-B_1_2greenlinestimulus20.png,TMTstop-B_1_2redlinestimulus20.png,None,,,,,,,,,,,,,0,22,22,22,,,,,,,,,,,,,,,,,,,,,,,,,,,,,,,45.078638999999384,None,['1'],1,[0.05416670000704471],45.078638999999384,None,,,,001,2021_Nov_17_1300,TMTAB,2021.2.3,144.7529934994805,
L,['2'],TMTstop-B_1_2linestimulus21.png,TMTstop-B_1_2greenlinestimulus21.png,TMTstop-B_1_2redlinestimulus21.png,None,,,,,,,,,,,,,0,23,23,23,,,,,,,,,,,,,,,,,,,,,,,,,,,,,,,45.210634799994295,None,['2'],1,[-0.011658899995381944],45.210634799994295,None,,,,001,2021_Nov_17_1300,TMTAB,2021.2.3,144.7529934994805,
13,['3'],TMTstop-B_1_2linestimulus22.png,TMTstop-B_1_2greenlinestimulus22.png,TMTstop-B_1_2redlinestimulus22.png,None,,,,,,,,,,,,,0,24,24,24,,,,,,,,,,,,,,,,,,,,,,,,,,,,,,,45.28723319999699,None,['3'],1,[0.0294380999985151],45.28723319999699,None,,,,001,2021_Nov_17_1300,TMTAB,2021.2.3,144.7529934994805,
None,None,TMTstop-B_1_2linestimulus23.png,TMTstop-B_1_2greenlinestimulus23.png,TMTstop-B_1_2redlinestimulus23.png,None,,,,,,,,,,,,,0,25,25,25,,,,,,,,,,,,,,,,,,,,,,,,,,,,,,,45.40555860000313,None,"['1', '2', '3']",0,"[0.02555669999856036, 0.09072059999743942, 0.20414329999766778]",45.40555860000313,None,,,,001,2021_Nov_17_1300,TMTAB,2021.2.3,144.7529934994805,
1,['2'],TMTstop-B_1_3.png,TMTstop-B_1_3.png,TMTstop-B_1_3.png,10,,,,,,,,,,,,,,,,,0,0,0,0,,,,,,,,,,,,,46.43795419999515,None,,,,,,,,,,,,,49.51570089999586,None,"['1', '2']",1,"[0.4384903000027407, 0.4969806000008248]",49.51570089999586,None,,,,001,2021_Nov_17_1300,TMTAB,2021.2.3,144.7529934994805,
A,['1'],TMTstop-B_1_3.png,TMTstop-B_1_3firstgreen.png,TMTstop-B_1_3firstred.png,10,,,,,,,,,,,,,,,,,0,1,1,1,,,,,,,,,,,,,,,,,,,,,,,,,,,50.1065122,None,"['3', '1']",1,"[0.0426076000003377, 0.17635349999181926]",50.1065122,None,,,,001,2021_Nov_17_1300,TMTAB,2021.2.3,144.7529934994805,
2,['3'],TMTstop-B_1_3linestimulus0.png,TMTstop-B_1_3greenlinestimulus0.png,TMTstop-B_1_3redlinestimulus0.png,10,,,,,,,,,,,,,,,,,0,2,2,2,,,,,,,,,,,,,,,,,,,,,,,,,,,50.3633123000036,None,"['2', '3']",1,"[-0.004467899998417124, 0.09841510000114795]",50.3633123000036,None,,,,001,2021_Nov_17_1300,TMTAB,2021.2.3,144.7529934994805,
B,['1'],TMTstop-B_1_3linestimulus1.png,TMTstop-B_1_3greenlinestimulus1.png,TMTstop-B_1_3redlinestimulus1.png,10,,,,,,,,,,,,,,,,,0,3,3,3,,,,,,,,,,,,,,,,,,,,,,,,,,,50.564589899993734,None,['1'],1,[0.018877599999541417],50.564589899993734,None,,,,001,2021_Nov_17_1300,TMTAB,2021.2.3,144.7529934994805,
3,['2'],TMTstop-B_1_3linestimulus2.png,TMTstop-B_1_3greenlinestimulus2.png,TMTstop-B_1_3redlinestimulus2.png,10,,,,,,,,,,,,,,,,,0,4,4,4,,,,,,,,,,,,,,,,,,,,,,,,,,,50.66207730000315,None,['2'],1,[-0.01971219999541063],50.66207730000315,None,,,,001,2021_Nov_17_1300,TMTAB,2021.2.3,144.7529934994805,
C,['3'],TMTstop-B_1_3linestimulus3.png,TMTstop-B_1_3greenlinestimulus3.png,TMTstop-B_1_3redlinestimulus3.png,10,,,,,,,,,,,,,,,,,0,5,5,5,,,,,,,,,,,,,,,,,,,,,,,,,,,50.738259499994456,None,['3'],1,[0.014121300002443604],50.738259499994456,None,,,,001,2021_Nov_17_1300,TMTAB,2021.2.3,144.7529934994805,
4,['2'],TMTstop-B_1_3linestimulus4.png,TMTstop-B_1_3greenlinestimulus4.png,TMTstop-B_1_3redlinestimulus4.png,10,,,,,,,,,,,,,,,,,0,6,6,6,,,,,,,,,,,,,,,,,,,,,,,,,,,50.8222231999971,None,"['1', '2']",1,"[0.053199199988739565, 0.1033597999921767]",50.8222231999971,None,,,,001,2021_Nov_17_1300,TMTAB,2021.2.3,144.7529934994805,
D,['1'],TMTstop-B_1_3linestimulus5.png,TMTstop-B_1_3greenlinestimulus5.png,TMTstop-B_1_3redlinestimulus5.png,10,,,,,,,,,,,,,,,,,0,7,7,7,,,,,,,,,,,,,,,,,,,,,,,,,,,51.03686560000642,None,"['3', '1']",1,"[0.00815780000993982, 0.14229960000375286]",51.03686560000642,None,,,,001,2021_Nov_17_1300,TMTAB,2021.2.3,144.7529934994805,
5,['3'],TMTstop-B_1_3linestimulus6.png,TMTstop-B_1_3greenlinestimulus6.png,TMTstop-B_1_3redlinestimulus6.png,10,,,,,,,,,,,,,,,,,0,8,8,8,,,,,,,,,,,,,,,,,,,,,,,,,,,51.293972100000246,None,"['2', '3']",1,"[-0.057901799998944625, 0.058777500002179295]",51.293972100000246,None,,,,001,2021_Nov_17_1300,TMTAB,2021.2.3,144.7529934994805,
E,['1'],TMTstop-B_1_3linestimulus7.png,TMTstop-B_1_3greenlinestimulus7.png,TMTstop-B_1_3redlinestimulus7.png,10,,,,,,,,,,,,,,,,,0,9,9,9,,,,,,,,,,,,,,,,,,,,,,,,,,,51.46073639999668,None,['1'],1,[0.00518269999884069],51.46073639999668,None,,,,001,2021_Nov_17_1300,TMTAB,2021.2.3,144.7529934994805,
6,['3'],TMTstop-B_1_3linestimulus8.png,TMTstop-B_1_3greenlinestimulus8.png,TMTstop-B_1_3redlinestimulus8.png,10,,,,,,,,,,,,,,,,,0,10,10,10,,,,,,,,,,,,,,,,,,,,,,,,,,,51.55069390000426,None,"['2', '3']",1,"[-0.029886000003898516, 0.09140959999058396]",51.55069390000426,None,,,,001,2021_Nov_17_1300,TMTAB,2021.2.3,144.7529934994805,
F,['1'],TMTstop-B_1_3linestimulus9.png,TMTstop-B_1_3greenlinestimulus9.png,TMTstop-B_1_3redlinestimulus9.png,10,,,,,,,,,,,,,,,,,0,11,11,11,,,,,,,,,,,,,,,,,,,,,,,,,,,51.752183999997214,None,['1'],1,[0.006977800003369339],51.752183999997214,None,,,,001,2021_Nov_17_1300,TMTAB,2021.2.3,144.7529934994805,
7,['3'],TMTstop-B_1_3linestimulus10.png,TMTstop-B_1_3greenlinestimulus10.png,TMTstop-B_1_3redlinestimulus10.png,1,,,,,,,,,,,,,,,,,0,12,12,12,,,,,,,,,,,,,,,,,,,,,,,,,,,51.84252029999334,None,"['2', '3']",1,"[-0.033168099995236844, 0.08574680000310764]",51.84252029999334,None,,,,001,2021_Nov_17_1300,TMTAB,2021.2.3,144.7529934994805,
G,['1'],TMTstop-B_1_3linestimulus11.png,TMTstop-B_1_3greenlinestimulus11.png,TMTstop-B_1_3redlinestimulus11.png,None,,,,,,,,,,,,,,,,,0,13,13,13,,,,,,,,,,,,,,,,,,,,,,,,,,,52.03710489999503,None,['1'],1,[0.011332399997627363],52.03710489999503,None,,,,001,2021_Nov_17_1300,TMTAB,2021.2.3,144.7529934994805,
8,['2'],TMTstop-B_1_3linestimulus12.png,TMTstop-B_1_3greenlinestimulus12.png,TMTstop-B_1_3redlinestimulus12.png,None,,,,,,,,,,,,,,,,,0,14,14,14,,,,,,,,,,,,,,,,,,,,,,,,,,,52.12038279999979,None,['2'],1,[-0.009478400010266341],52.12038279999979,None,,,,001,2021_Nov_17_1300,TMTAB,2021.2.3,144.7529934994805,
H,['1'],TMTstop-B_1_3linestimulus13.png,TMTstop-B_1_3greenlinestimulus13.png,TMTstop-B_1_3redlinestimulus13.png,None,,,,,,,,,,,,,,,,,0,15,15,15,,,,,,,,,,,,,,,,,,,,,,,,,,,52.19660369999474,None,"['3', '1']",1,"[0.025420399993890896, 0.14249040000140667]",52.19660369999474,None,,,,001,2021_Nov_17_1300,TMTAB,2021.2.3,144.7529934994805,
9,['3'],TMTstop-B_1_3linestimulus14.png,TMTstop-B_1_3greenlinestimulus14.png,TMTstop-B_1_3redlinestimulus14.png,None,,,,,,,,,,,,,,,,,0,16,16,16,,,,,,,,,,,,,,,,,,,,,,,,,,,52.42567979999876,None,"['2', '3']",1,"[-0.018744999993941747, 0.08864380000159144]",52.42567979999876,None,,,,001,2021_Nov_17_1300,TMTAB,2021.2.3,144.7529934994805,
I,['1'],TMTstop-B_1_3linestimulus15.png,TMTstop-B_1_3greenlinestimulus15.png,TMTstop-B_1_3redlinestimulus15.png,None,,,,,,,,,,,,,,,,,0,17,17,17,,,,,,,,,,,,,,,,,,,,,,,,,,,52.62737659999402,None,['1'],1,[-0.0027380999963497743],52.62737659999402,None,,,,001,2021_Nov_17_1300,TMTAB,2021.2.3,144.7529934994805,
10,['2'],TMTstop-B_1_3linestimulus16.png,TMTstop-B_1_3greenlinestimulus16.png,TMTstop-B_1_3redlinestimulus16.png,None,,,,,,,,,,,,,,,,,0,18,18,18,,,,,,,,,,,,,,,,,,,,,,,,,,,52.69671020000533,None,['2'],1,[0.008626700000604615],52.69671020000533,None,,,,001,2021_Nov_17_1300,TMTAB,2021.2.3,144.7529934994805,
J,['3'],TMTstop-B_1_3linestimulus17.png,TMTstop-B_1_3greenlinestimulus17.png,TMTstop-B_1_3redlinestimulus17.png,None,,,,,,,,,,,,,,,,,0,19,19,19,,,,,,,,,,,,,,,,,,,,,,,,,,,52.78011979999428,None,['3'],1,[0.03669310000259429],52.78011979999428,None,,,,001,2021_Nov_17_1300,TMTAB,2021.2.3,144.7529934994805,
11,['2'],TMTstop-B_1_3linestimulus18.png,TMTstop-B_1_3greenlinestimulus18.png,TMTstop-B_1_3redlinestimulus18.png,None,,,,,,,,,,,,,,,,,0,20,20,20,,,,,,,,,,,,,,,,,,,,,,,,,,,52.89827449999575,None,"['1', '2']",1,"[0.01676130000851117, 0.09585189999779686]",52.89827449999575,None,,,,001,2021_Nov_17_1300,TMTAB,2021.2.3,144.7529934994805,
K,['3'],TMTstop-B_1_3linestimulus19.png,TMTstop-B_1_3greenlinestimulus19.png,TMTstop-B_1_3redlinestimulus19.png,None,,,,,,,,,,,,,,,,,0,21,21,21,,,,,,,,,,,,,,,,,,,,,,,,,,,53.08588270000473,None,['3'],1,[0.02699090000533033],53.08588270000473,None,,,,001,2021_Nov_17_1300,TMTAB,2021.2.3,144.7529934994805,
12,['1'],TMTstop-B_1_3linestimulus20.png,TMTstop-B_1_3greenlinestimulus20.png,TMTstop-B_1_3redlinestimulus20.png,None,,,,,,,,,,,,,,,,,0,22,22,22,,,,,,,,,,,,,,,,,,,,,,,,,,,53.18286590000207,None,['1'],1,[0.031632999991416],53.18286590000207,None,,,,001,2021_Nov_17_1300,TMTAB,2021.2.3,144.7529934994805,
L,['3'],TMTstop-B_1_3linestimulus21.png,TMTstop-B_1_3greenlinestimulus21.png,TMTstop-B_1_3redlinestimulus21.png,None,,,,,,,,,,,,,,,,,0,23,23,23,,,,,,,,,,,,,,,,,,,,,,,,,,,53.29457250000269,None,"['2', '3']",1,"[-0.004438400006620213, 0.11903000000165775]",53.29457250000269,None,,,,001,2021_Nov_17_1300,TMTAB,2021.2.3,144.7529934994805,
13,['2'],TMTstop-B_1_3linestimulus22.png,TMTstop-B_1_3greenlinestimulus22.png,TMTstop-B_1_3redlinestimulus22.png,None,,,,,,,,,,,,,,,,,0,24,24,24,,,,,,,,,,,,,,,,,,,,,,,,,,,53.49538140000368,None,"['1', '2']",1,"[0.033423500004573725, 0.1061700000136625]",53.49538140000368,None,,,,001,2021_Nov_17_1300,TMTAB,2021.2.3,144.7529934994805,
None,None,TMTstop-B_1_3linestimulus23.png,TMTstop-B_1_3greenlinestimulus23.png,TMTstop-B_1_3redlinestimulus23.png,None,,,,,,,,,,,,,,,,,0,25,25,25,,,,,,,,,,,,,,,,,,,,,,,,,,,53.6895688999939,None,['3'],0,[0.04615080000075977],53.6895688999939,None,,,,001,2021_Nov_17_1300,TMTAB,2021.2.3,144.7529934994805,
1,['1'],TMTstop-B_1_4.png,TMTstop-B_1_4.png,TMTstop-B_1_4.png,10,,,,,,,,,,,,,,,,,,,,,0,0,0,0,,,,,,,,,54.743182599995635,None,,,,,,,,,,,,,57.7863090000028,None,['1'],1,[0.4140608000016073],57.7863090000028,None,,,,001,2021_Nov_17_1300,TMTAB,2021.2.3,144.7529934994805,
A,['3'],TMTstop-B_1_4.png,TMTstop-B_1_4firstgreen.png,TMTstop-B_1_4firstred.png,10,,,,,,,,,,,,,,,,,,,,,0,1,1,1,,,,,,,,,,,,,,,,,,,,,,,58.27313299999514,None,"['2', '3']",1,"[0.008870599995134398, 0.1091143999947235]",58.27313299999514,None,,,,001,2021_Nov_17_1300,TMTAB,2021.2.3,144.7529934994805,
2,['1'],TMTstop-B_1_4linestimulus0.png,TMTstop-B_1_4greenlinestimulus0.png,TMTstop-B_1_4redlinestimulus0.png,10,,,,,,,,,,,,,,,,,,,,,0,2,2,2,,,,,,,,,,,,,,,,,,,,,,,58.481295699995826,None,['1'],1,[0.04796570001053624],58.481295699995826,None,,,,001,2021_Nov_17_1300,TMTAB,2021.2.3,144.7529934994805,
B,['2'],TMTstop-B_1_4linestimulus1.png,TMTstop-B_1_4greenlinestimulus1.png,TMTstop-B_1_4redlinestimulus1.png,10,,,,,,,,,,,,,,,,,,,,,0,3,3,3,,,,,,,,,,,,,,,,,,,,,,,58.599468800006434,None,['2'],1,[-0.010980999999446794],58.599468800006434,None,,,,001,2021_Nov_17_1300,TMTAB,2021.2.3,144.7529934994805,
3,['3'],TMTstop-B_1_4linestimulus2.png,TMTstop-B_1_4greenlinestimulus2.png,TMTstop-B_1_4redlinestimulus2.png,10,,,,,,,,,,,,,,,,,,,,,0,4,4,4,,,,,,,,,,,,,,,,,,,,,,,58.668848999994225,None,['3'],1,[0.016468000001623295],58.668848999994225,None,,,,001,2021_Nov_17_1300,TMTAB,2021.2.3,144.7529934994805,
C,['1'],TMTstop-B_1_4linestimulus3.png,TMTstop-B_1_4greenlinestimulus3.png,TMTstop-B_1_4redlinestimulus3.png,10,,,,,,,,,,,,,,,,,,,,,0,5,5,5,,,,,,,,,,,,,,,,,,,,,,,58.7659399999975,None,['1'],1,[0.04827050000312738],58.7659399999975,None,,,,001,2021_Nov_17_1300,TMTAB,2021.2.3,144.7529934994805,
4,['3'],TMTstop-B_1_4linestimulus4.png,TMTstop-B_1_4greenlinestimulus4.png,TMTstop-B_1_4redlinestimulus4.png,10,,,,,,,,,,,,,,,,,,,,,0,6,6,6,,,,,,,,,,,,,,,,,,,,,,,58.891161299994565,None,"['2', '3']",1,"[-0.020824199993512593, 0.05851880001137033]",58.891161299994565,None,,,,001,2021_Nov_17_1300,TMTAB,2021.2.3,144.7529934994805,
D,['1'],TMTstop-B_1_4linestimulus5.png,TMTstop-B_1_4greenlinestimulus5.png,TMTstop-B_1_4redlinestimulus5.png,10,,,,,,,,,,,,,,,,,,,,,0,7,7,7,,,,,,,,,,,,,,,,,,,,,,,59.04394509999838,None,['1'],1,[0.054095700004836544],59.04394509999838,None,,,,001,2021_Nov_17_1300,TMTAB,2021.2.3,144.7529934994805,
5,['2'],TMTstop-B_1_4linestimulus6.png,TMTstop-B_1_4greenlinestimulus6.png,TMTstop-B_1_4redlinestimulus6.png,10,,,,,,,,,,,,,,,,,,,,,0,8,8,8,,,,,,,,,,,,,,,,,,,,,,,59.168621399992844,None,['2'],1,[-0.012572599996929057],59.168621399992844,None,,,,001,2021_Nov_17_1300,TMTAB,2021.2.3,144.7529934994805,
E,['1'],TMTstop-B_1_4linestimulus7.png,TMTstop-B_1_4greenlinestimulus7.png,TMTstop-B_1_4redlinestimulus7.png,10,,,,,,,,,,,,,,,,,,,,,0,9,9,9,,,,,,,,,,,,,,,,,,,,,,,59.23824419999437,None,"['3', '1']",1,"[0.02235320000909269, 0.14600930000597145]",59.23824419999437,None,,,,001,2021_Nov_17_1300,TMTAB,2021.2.3,144.7529934994805,
6,['2'],TMTstop-B_1_4linestimulus8.png,TMTstop-B_1_4greenlinestimulus8.png,TMTstop-B_1_4redlinestimulus8.png,10,,,,,,,,,,,,,,,,,,,,,0,10,10,10,,,,,,,,,,,,,,,,,,,,,,,59.46081059999415,None,['2'],1,[-0.012196699986816384],59.46081059999415,None,,,,001,2021_Nov_17_1300,TMTAB,2021.2.3,144.7529934994805,
F,['1'],TMTstop-B_1_4linestimulus9.png,TMTstop-B_1_4greenlinestimulus9.png,TMTstop-B_1_4redlinestimulus9.png,10,,,,,,,,,,,,,,,,,,,,,0,11,11,11,,,,,,,,,,,,,,,,,,,,,,,59.53684529999737,None,"['3', '1']",1,"[0.008563800001866184, 0.1321345000033034]",59.53684529999737,None,,,,001,2021_Nov_17_1300,TMTAB,2021.2.3,144.7529934994805,
7,['3'],TMTstop-B_1_4linestimulus10.png,TMTstop-B_1_4greenlinestimulus10.png,TMTstop-B_1_4redlinestimulus10.png,1,,,,,,,,,,,,,,,,,,,,,0,12,12,12,,,,,,,,,,,,,,,,,,,,,,,59.75199780000548,None,"['2', '3']",1,"[-0.0190815000096336, 0.08277529999031685]",59.75199780000548,None,,,,001,2021_Nov_17_1300,TMTAB,2021.2.3,144.7529934994805,
G,['2'],TMTstop-B_1_4linestimulus11.png,TMTstop-B_1_4greenlinestimulus11.png,TMTstop-B_1_4redlinestimulus11.png,None,,,,,,,,,,,,,,,,,,,,,0,13,13,13,,,,,,,,,,,,,,,,,,,,,,,59.90479030000279,None,"['1', '2']",1,"[0.05842739999934565, 0.11813389998860657]",59.90479030000279,None,,,,001,2021_Nov_17_1300,TMTAB,2021.2.3,144.7529934994805,
8,['3'],TMTstop-B_1_4linestimulus12.png,TMTstop-B_1_4greenlinestimulus12.png,TMTstop-B_1_4redlinestimulus12.png,None,,,,,,,,,,,,,,,,,,,,,0,14,14,14,,,,,,,,,,,,,,,,,,,,,,,60.1276266000059,None,['3'],1,[0.006721900004777126],60.1276266000059,None,,,,001,2021_Nov_17_1300,TMTAB,2021.2.3,144.7529934994805,
H,['1'],TMTstop-B_1_4linestimulus13.png,TMTstop-B_1_4greenlinestimulus13.png,TMTstop-B_1_4redlinestimulus13.png,None,,,,,,,,,,,,,,,,,,,,,0,15,15,15,,,,,,,,,,,,,,,,,,,,,,,60.217682300004526,None,['1'],1,[0.03908789998968132],60.217682300004526,None,,,,001,2021_Nov_17_1300,TMTAB,2021.2.3,144.7529934994805,
9,['3'],TMTstop-B_1_4linestimulus14.png,TMTstop-B_1_4greenlinestimulus14.png,TMTstop-B_1_4redlinestimulus14.png,None,,,,,,,,,,,,,,,,,,,,,0,16,16,16,,,,,,,,,,,,,,,,,,,,,,,60.34261989999504,None,"['2', '3']",1,"[-0.013298999998369254, 0.0980357000080403]",60.34261989999504,None,,,,001,2021_Nov_17_1300,TMTAB,2021.2.3,144.7529934994805,
I,['1'],TMTstop-B_1_4linestimulus15.png,TMTstop-B_1_4greenlinestimulus15.png,TMTstop-B_1_4redlinestimulus15.png,None,,,,,,,,,,,,,,,,,,,,,0,17,17,17,,,,,,,,,,,,,,,,,,,,,,,60.54394570000295,None,['1'],1,[0.007433699996909127],60.54394570000295,None,,,,001,2021_Nov_17_1300,TMTAB,2021.2.3,144.7529934994805,
10,['3'],TMTstop-B_1_4linestimulus16.png,TMTstop-B_1_4greenlinestimulus16.png,TMTstop-B_1_4redlinestimulus16.png,None,,,,,,,,,,,,,,,,,,,,,0,18,18,18,,,,,,,,,,,,,,,,,,,,,,,60.627151399996364,None,"['2', '3']",1,"[-0.011094999994384125, 0.12235489999875426]",60.627151399996364,None,,,,001,2021_Nov_17_1300,TMTAB,2021.2.3,144.7529934994805,
J,['2'],TMTstop-B_1_4linestimulus17.png,TMTstop-B_1_4greenlinestimulus17.png,TMTstop-B_1_4redlinestimulus17.png,None,,,,,,,,,,,,,,,,,,,,,0,19,19,19,,,,,,,,,,,,,,,,,,,,,,,60.83560890000081,None,"['1', '2']",1,"[0.022364200005540624, 0.10431310000421945]",60.83560890000081,None,,,,001,2021_Nov_17_1300,TMTAB,2021.2.3,144.7529934994805,
11,['1'],TMTstop-B_1_4linestimulus18.png,TMTstop-B_1_4greenlinestimulus18.png,TMTstop-B_1_4redlinestimulus18.png,None,,,,,,,,,,,,,,,,,,,,,0,20,20,20,,,,,,,,,,,,,,,,,,,,,,,61.02969340000709,None,"['3', '1']",1,"[0.04923820000840351, 0.15434700000332668]",61.02969340000709,None,,,,001,2021_Nov_17_1300,TMTAB,2021.2.3,144.7529934994805,
K,['2'],TMTstop-B_1_4linestimulus19.png,TMTstop-B_1_4greenlinestimulus19.png,TMTstop-B_1_4redlinestimulus19.png,None,,,,,,,,,,,,,,,,,,,,,0,21,21,21,,,,,,,,,,,,,,,,,,,,,,,61.27996909999638,None,['2'],1,[-0.04320949999964796],61.27996909999638,None,,,,001,2021_Nov_17_1300,TMTAB,2021.2.3,144.7529934994805,
12,['3'],TMTstop-B_1_4linestimulus20.png,TMTstop-B_1_4greenlinestimulus20.png,TMTstop-B_1_4redlinestimulus20.png,None,,,,,,,,,,,,,,,,,,,,,0,22,22,22,,,,,,,,,,,,,,,,,,,,,,,61.34909289999632,None,['3'],1,[0.030476300002192147],61.34909289999632,None,,,,001,2021_Nov_17_1300,TMTAB,2021.2.3,144.7529934994805,
L,['1'],TMTstop-B_1_4linestimulus21.png,TMTstop-B_1_4greenlinestimulus21.png,TMTstop-B_1_4redlinestimulus21.png,None,,,,,,,,,,,,,,,,,,,,,0,23,23,23,,,,,,,,,,,,,,,,,,,,,,,61.46764040000562,None,['1'],1,[0.04881259999820031],61.46764040000562,None,,,,001,2021_Nov_17_1300,TMTAB,2021.2.3,144.7529934994805,
13,['3'],TMTstop-B_1_4linestimulus22.png,TMTstop-B_1_4greenlinestimulus22.png,TMTstop-B_1_4redlinestimulus22.png,None,,,,,,,,,,,,,,,,,,,,,0,24,24,24,,,,,,,,,,,,,,,,,,,,,,,61.5992882999999,None,"['2', '3']",1,"[-0.027704399995855056, 0.11513669999840204]",61.5992882999999,None,,,,001,2021_Nov_17_1300,TMTAB,2021.2.3,144.7529934994805,
None,None,TMTstop-B_1_4linestimulus23.png,TMTstop-B_1_4greenlinestimulus23.png,TMTstop-B_1_4redlinestimulus23.png,None,,,,,,,,,,,,,,,,,,,,,0,25,25,25,,,,,,,,,,,,,,,,,,,,,,,61.8077384000062,None,None,1,,61.8077384000062,None,,,,001,2021_Nov_17_1300,TMTAB,2021.2.3,144.7529934994805,
,,,,,,,,,,,,,,,,,,,,,,,,,,,,,,,,,,,,,,,,,,,,,,,,,,,,,,,,,,,62.805251900004805,None,,,,,,,
