NumberLetter,corrAns,StimFile,Correct_StimFile,False_StimFile,DurationTrial,Correct,restartpractice.thisRepN,restartpractice.thisTrialN,restartpractice.thisN,restartpractice.thisIndex,trials_practice.thisRepN,trials_practice.thisTrialN,trials_practice.thisN,trials_practice.thisIndex,trials.thisRepN,trials.thisTrialN,trials.thisN,trials.thisIndex,trials_2.thisRepN,trials_2.thisTrialN,trials_2.thisN,trials_2.thisIndex,trials_3.thisRepN,trials_3.thisTrialN,trials_3.thisN,trials_3.thisIndex,trials_4.thisRepN,trials_4.thisTrialN,trials_4.thisN,trials_4.thisIndex,Instruct.started,Instruct.stopped,image_2.started,image_2.stopped,key_resp_6.keys,key_resp_6.rt,key_resp_6.started,key_resp_6.stopped,polygon.started,polygon.stopped,Stim_practice.started,Stim_practice.stopped,key_resp_practice.keys,key_resp_practice.rt,key_resp_practice.started,key_resp_practice.stopped,text_5.started,text_5.stopped,key_resp_5.keys,key_resp_5.rt,key_resp_5.started,key_resp_5.stopped,Stim.started,Stim.stopped,key_resp_2.keys,key_resp_2.corr,key_resp_2.rt,key_resp_2.started,key_resp_2.stopped,participant,session,date,expName,psychopyVersion,frameRate,
,,,,,,,,,,,,,,,,,,,,,,,,,,,,,,,7.325884399935603,None,13.098664899822325,None,3,1.059980999911204,13.098664899822325,None,,,,,,,,,,,,,,,,,,,,,,,001,2022_Jan_11_1304,TMTAB,2021.2.3,59.98289286042099,
1,['1'],TMTstop-B_1_practice.png,TMTstop-B_1_practice.png,TMTstop-B_1_practice.png,10,,0,0,0,0,0,0,0,0,,,,,,,,,,,,,,,,,,,,,,,,,14.181644500000402,None,17.284573099808767,None,1,1.1058849999681115,17.284573099808767,None,,,,,,,,,,,,,,,001,2022_Jan_11_1304,TMTAB,2021.2.3,59.98289286042099,
A,['3'],TMTstop-B_1_practice.png,TMTstop-B_1_practicefirstgreen.png,TMTstop-B_1_practicefirstred.png,10,,0,0,0,0,0,1,1,1,,,,,,,,,,,,,,,,,,,,,,,,,,,18.518818399868906,None,3,0.9040886999573559,18.518818399868906,None,,,,,,,,,,,,,,,001,2022_Jan_11_1304,TMTAB,2021.2.3,59.98289286042099,
2,['1'],TMTstop-B_1_practicelinestimulus0.png,TMTstop-B_1_practicegreenlinestimulus0.png,TMTstop-B_1_practiceredlinestimulus0.png,10,,0,0,0,0,0,2,2,2,,,,,,,,,,,,,,,,,,,,,,,,,,,19.55227499990724,None,1,0.006751099834218621,19.55227499990724,None,,,,,,,,,,,,,,,001,2022_Jan_11_1304,TMTAB,2021.2.3,59.98289286042099,
B,['2'],TMTstop-B_1_practicelinestimulus1.png,TMTstop-B_1_practicegreenlinestimulus1.png,TMTstop-B_1_practiceredlinestimulus1.png,10,,0,0,0,0,0,3,3,3,,,,,,,,,,,,,,,,,,,,,,,,,,,19.652667499845847,None,2,0.0022368000354617834,19.652667499845847,None,,,,,,,,,,,,,,,001,2022_Jan_11_1304,TMTAB,2021.2.3,59.98289286042099,
3,['3'],TMTstop-B_1_practicelinestimulus2.png,TMTstop-B_1_practicegreenlinestimulus2.png,TMTstop-B_1_practiceredlinestimulus2.png,10,,0,0,0,0,0,4,4,4,,,,,,,,,,,,,,,,,,,,,,,,,,,19.73584259999916,None,3,0.072710300097242,19.73584259999916,None,,,,,,,,,,,,,,,001,2022_Jan_11_1304,TMTAB,2021.2.3,59.98289286042099,
C,['1'],TMTstop-B_1_practicelinestimulus3.png,TMTstop-B_1_practicegreenlinestimulus3.png,TMTstop-B_1_practiceredlinestimulus3.png,10,,0,0,0,0,0,5,5,5,,,,,,,,,,,,,,,,,,,,,,,,,,,19.90268089994788,None,1,0.028585900086909533,19.90268089994788,None,,,,,,,,,,,,,,,001,2022_Jan_11_1304,TMTAB,2021.2.3,59.98289286042099,
4,['2'],TMTstop-B_1_practicelinestimulus4.png,TMTstop-B_1_practicegreenlinestimulus4.png,TMTstop-B_1_practiceredlinestimulus4.png,10,,0,0,0,0,0,6,6,6,,,,,,,,,,,,,,,,,,,,,,,,,,,20.0194059999194,None,2,0.3281924999319017,20.0194059999194,None,,,,,,,,,,,,,,,001,2022_Jan_11_1304,TMTAB,2021.2.3,59.98289286042099,
D,['3'],TMTstop-B_1_practicelinestimulus5.png,TMTstop-B_1_practicegreenlinestimulus5.png,TMTstop-B_1_practiceredlinestimulus5.png,10,,0,0,0,0,0,7,7,7,,,,,,,,,,,,,,,,,,,,,,,,,,,20.469550299923867,None,3,0.30468820012174547,20.469550299923867,None,,,,,,,,,,,,,,,001,2022_Jan_11_1304,TMTAB,2021.2.3,59.98289286042099,
5,['2'],TMTstop-B_1_practicelinestimulus6.png,TMTstop-B_1_practicegreenlinestimulus6.png,TMTstop-B_1_practiceredlinestimulus6.png,10,,0,0,0,0,0,8,8,8,,,,,,,,,,,,,,,,,,,,,,,,,,,20.869818900013342,None,2,0.11745149991475046,20.869818900013342,None,,,,,,,,,,,,,,,001,2022_Jan_11_1304,TMTAB,2021.2.3,59.98289286042099,
E,['1'],TMTstop-B_1_practicelinestimulus7.png,TMTstop-B_1_practicegreenlinestimulus7.png,TMTstop-B_1_practiceredlinestimulus7.png,10,,0,0,0,0,0,9,9,9,,,,,,,,,,,,,,,,,,,,,,,,,,,21.103142000036314,None,1,0.1347982999868691,21.103142000036314,None,,,,,,,,,,,,,,,001,2022_Jan_11_1304,TMTAB,2021.2.3,59.98289286042099,
6,['3'],TMTstop-B_1_practicelinestimulus8.png,TMTstop-B_1_practicegreenlinestimulus8.png,TMTstop-B_1_practiceredlinestimulus8.png,10,,0,0,0,0,0,10,10,10,,,,,,,,,,,,,,,,,,,,,,,,,,,21.31987539981492,None,3,0.10468619992025197,21.31987539981492,None,,,,,,,,,,,,,,,001,2022_Jan_11_1304,TMTAB,2021.2.3,59.98289286042099,
F,['1'],TMTstop-B_1_practicelinestimulus9.png,TMTstop-B_1_practicegreenlinestimulus9.png,TMTstop-B_1_practiceredlinestimulus9.png,10,,0,0,0,0,0,11,11,11,,,,,,,,,,,,,,,,,,,,,,,,,,,21.52018540003337,None,1,0.10563649982213974,21.52018540003337,None,,,,,,,,,,,,,,,001,2022_Jan_11_1304,TMTAB,2021.2.3,59.98289286042099,
None,None,TMTstop-B_1_practicelinestimulus10.png,TMTstop-B_1_practicegreenlinestimulus10.png,TMTstop-B_1_practiceredlinestimulus10.png,1,,0,0,0,0,0,12,12,12,,,,,,,,,,,,,,,,,,,,,,,,,,,21.720183399971575,None,None,,21.720183399971575,None,,,,,,,,,,,,,,,001,2022_Jan_11_1304,TMTAB,2021.2.3,59.98289286042099,
,,,,,,,0,0,0,0,,,,,,,,,,,,,,,,,,,,,,,,,,,,,,,,,,,,,22.766888399841264,None,2,0.6062523000873625,22.766888399841264,None,,,,,,,,,001,2022_Jan_11_1304,TMTAB,2021.2.3,59.98289286042099,
1,['2'],TMTstop-B_1_1.png,TMTstop-B_1_1.png,TMTstop-B_1_1.png,10,2,,,,,,,,,0,0,0,0,,,,,,,,,,,,,,,,,,,,,23.402341599809006,None,,,,,,,,,,,,,26.504792699823156,None,['2'],1,[1.6912519000470638],26.504792699823156,None,,001,2022_Jan_11_1304,TMTAB,2021.2.3,59.98289286042099,
A,['1'],TMTstop-B_1_1.png,TMTstop-B_1_1firstgreen.png,TMTstop-B_1_1firstred.png,10,1,,,,,,,,,0,1,1,1,,,,,,,,,,,,,,,,,,,,,,,,,,,,,,,,,,,28.289734199875966,None,['1'],1,[1.2686507999897003],28.289734199875966,None,,001,2022_Jan_11_1304,TMTAB,2021.2.3,59.98289286042099,
2,['2'],TMTstop-B_1_1linestimulus0.png,TMTstop-B_1_1greenlinestimulus0.png,TMTstop-B_1_1redlinestimulus0.png,10,2,,,,,,,,,0,2,2,2,,,,,,,,,,,,,,,,,,,,,,,,,,,,,,,,,,,29.640104699879885,None,['2'],1,[0.5208884999155998],29.640104699879885,None,,001,2022_Jan_11_1304,TMTAB,2021.2.3,59.98289286042099,
B,['3'],TMTstop-B_1_1linestimulus1.png,TMTstop-B_1_1greenlinestimulus1.png,TMTstop-B_1_1redlinestimulus1.png,10,3,,,,,,,,,0,3,3,3,,,,,,,,,,,,,,,,,,,,,,,,,,,,,,,,,,,30.257166099967435,None,['3'],1,[0.644756400026381],30.257166099967435,None,,001,2022_Jan_11_1304,TMTAB,2021.2.3,59.98289286042099,
3,['2'],TMTstop-B_1_1linestimulus2.png,TMTstop-B_1_1greenlinestimulus2.png,TMTstop-B_1_1redlinestimulus2.png,10,2,,,,,,,,,0,4,4,4,,,,,,,,,,,,,,,,,,,,,,,,,,,,,,,,,,,30.99090430000797,None,['2'],1,[0.5369667999912053],30.99090430000797,None,,001,2022_Jan_11_1304,TMTAB,2021.2.3,59.98289286042099,
C,['3'],TMTstop-B_1_1linestimulus3.png,TMTstop-B_1_1greenlinestimulus3.png,TMTstop-B_1_1redlinestimulus3.png,10,3,,,,,,,,,0,5,5,5,,,,,,,,,,,,,,,,,,,,,,,,,,,,,,,,,,,31.624424499925226,None,['3'],1,[0.6013168001081795],31.624424499925226,None,,001,2022_Jan_11_1304,TMTAB,2021.2.3,59.98289286042099,
4,['1'],TMTstop-B_1_1linestimulus4.png,TMTstop-B_1_1greenlinestimulus4.png,TMTstop-B_1_1redlinestimulus4.png,10,1,,,,,,,,,0,6,6,6,,,,,,,,,,,,,,,,,,,,,,,,,,,,,,,,,,,32.30815940001048,None,['1'],1,[1.2970535000786185],32.30815940001048,None,,001,2022_Jan_11_1304,TMTAB,2021.2.3,59.98289286042099,
D,['2'],TMTstop-B_1_1linestimulus5.png,TMTstop-B_1_1greenlinestimulus5.png,TMTstop-B_1_1redlinestimulus5.png,10,2,,,,,,,,,0,7,7,7,,,,,,,,,,,,,,,,,,,,,,,,,,,,,,,,,,,33.69210129999556,None,['2'],1,[0.48669830011203885],33.69210129999556,None,,001,2022_Jan_11_1304,TMTAB,2021.2.3,59.98289286042099,
5,['1'],TMTstop-B_1_1linestimulus6.png,TMTstop-B_1_1greenlinestimulus6.png,TMTstop-B_1_1redlinestimulus6.png,10,1,,,,,,,,,0,8,8,8,,,,,,,,,,,,,,,,,,,,,,,,,,,,,,,,,,,34.27569569996558,None,['1'],1,[1.0021579000167549],34.27569569996558,None,,001,2022_Jan_11_1304,TMTAB,2021.2.3,59.98289286042099,
E,['2'],TMTstop-B_1_1linestimulus7.png,TMTstop-B_1_1greenlinestimulus7.png,TMTstop-B_1_1redlinestimulus7.png,10,2,,,,,,,,,0,9,9,9,,,,,,,,,,,,,,,,,,,,,,,,,,,,,,,,,,,35.37625919980928,None,['2'],1,[1.1292603998444974],35.37625919980928,None,,001,2022_Jan_11_1304,TMTAB,2021.2.3,59.98289286042099,
6,['1'],TMTstop-B_1_1linestimulus8.png,TMTstop-B_1_1greenlinestimulus8.png,TMTstop-B_1_1redlinestimulus8.png,10,1,,,,,,,,,0,10,10,10,,,,,,,,,,,,,,,,,,,,,,,,,,,,,,,,,,,36.59341620001942,None,['1'],1,[0.7925189000088722],36.59341620001942,None,,001,2022_Jan_11_1304,TMTAB,2021.2.3,59.98289286042099,
F,['2'],TMTstop-B_1_1linestimulus9.png,TMTstop-B_1_1greenlinestimulus9.png,TMTstop-B_1_1redlinestimulus9.png,10,2,,,,,,,,,0,11,11,11,,,,,,,,,,,,,,,,,,,,,,,,,,,,,,,,,,,37.47715139994398,None,['2'],1,[1.2441542001906782],37.47715139994398,None,,001,2022_Jan_11_1304,TMTAB,2021.2.3,59.98289286042099,
7,['3'],TMTstop-B_1_1linestimulus10.png,TMTstop-B_1_1greenlinestimulus10.png,TMTstop-B_1_1redlinestimulus10.png,1,3,,,,,,,,,0,12,12,12,,,,,,,,,,,,,,,,,,,,,,,,,,,,,,,,,,,38.811232100008056,None,['3'],1,[1.3411463999655098],38.811232100008056,None,,001,2022_Jan_11_1304,TMTAB,2021.2.3,59.98289286042099,
G,['1'],TMTstop-B_1_1linestimulus11.png,TMTstop-B_1_1greenlinestimulus11.png,TMTstop-B_1_1redlinestimulus11.png,None,1,,,,,,,,,0,13,13,13,,,,,,,,,,,,,,,,,,,,,,,,,,,,,,,,,,,40.24532029987313,None,['1'],1,[2.3946970000397414],40.24532029987313,None,,001,2022_Jan_11_1304,TMTAB,2021.2.3,59.98289286042099,
8,['2'],TMTstop-B_1_1linestimulus12.png,TMTstop-B_1_1greenlinestimulus12.png,TMTstop-B_1_1redlinestimulus12.png,None,2,,,,,,,,,0,14,14,14,,,,,,,,,,,,,,,,,,,,,,,,,,,,,,,,,,,42.72963419998996,None,['2'],1,[1.6326036001555622],42.72963419998996,None,,001,2022_Jan_11_1304,TMTAB,2021.2.3,59.98289286042099,
H,['3'],TMTstop-B_1_1linestimulus13.png,TMTstop-B_1_1greenlinestimulus13.png,TMTstop-B_1_1redlinestimulus13.png,None,3,,,,,,,,,0,15,15,15,,,,,,,,,,,,,,,,,,,,,,,,,,,,,,,,,,,44.44722820003517,None,['3'],1,[3.985601899912581],44.44722820003517,None,,001,2022_Jan_11_1304,TMTAB,2021.2.3,59.98289286042099,
9,['2'],TMTstop-B_1_1linestimulus14.png,TMTstop-B_1_1greenlinestimulus14.png,TMTstop-B_1_1redlinestimulus14.png,None,2,,,,,,,,,0,16,16,16,,,,,,,,,,,,,,,,,,,,,,,,,,,,,,,,,,,48.51565519999713,None,['2'],1,[1.2262186000589281],48.51565519999713,None,,001,2022_Jan_11_1304,TMTAB,2021.2.3,59.98289286042099,
I,['1'],TMTstop-B_1_1linestimulus15.png,TMTstop-B_1_1greenlinestimulus15.png,TMTstop-B_1_1redlinestimulus15.png,None,1,,,,,,,,,0,17,17,17,,,,,,,,,,,,,,,,,,,,,,,,,,,,,,,,,,,49.83292349986732,None,['1'],1,[0.5301967998966575],49.83292349986732,None,,001,2022_Jan_11_1304,TMTAB,2021.2.3,59.98289286042099,
10,['3'],TMTstop-B_1_1linestimulus16.png,TMTstop-B_1_1greenlinestimulus16.png,TMTstop-B_1_1redlinestimulus16.png,None,3,,,,,,,,,0,18,18,18,,,,,,,,,,,,,,,,,,,,,,,,,,,,,,,,,,,50.449386899825186,None,['3'],1,[0.624208000022918],50.449386899825186,None,,001,2022_Jan_11_1304,TMTAB,2021.2.3,59.98289286042099,
J,['1'],TMTstop-B_1_1linestimulus17.png,TMTstop-B_1_1greenlinestimulus17.png,TMTstop-B_1_1redlinestimulus17.png,None,1,,,,,,,,,0,19,19,19,,,,,,,,,,,,,,,,,,,,,,,,,,,,,,,,,,,51.16690699988976,None,['1'],1,[0.5566364999394864],51.16690699988976,None,,001,2022_Jan_11_1304,TMTAB,2021.2.3,59.98289286042099,
11,['2'],TMTstop-B_1_1linestimulus18.png,TMTstop-B_1_1greenlinestimulus18.png,TMTstop-B_1_1redlinestimulus18.png,None,2,,,,,,,,,0,20,20,20,,,,,,,,,,,,,,,,,,,,,,,,,,,,,,,,,,,51.81726859998889,None,['2'],1,[1.5516109999734908],51.81726859998889,None,,001,2022_Jan_11_1304,TMTAB,2021.2.3,59.98289286042099,
K,['3'],TMTstop-B_1_1linestimulus19.png,TMTstop-B_1_1greenlinestimulus19.png,TMTstop-B_1_1redlinestimulus19.png,None,3,,,,,,,,,0,21,21,21,,,,,,,,,,,,,,,,,,,,,,,,,,,,,,,,,,,53.45128889987245,None,['3'],1,[1.3889769001398236],53.45128889987245,None,,001,2022_Jan_11_1304,TMTAB,2021.2.3,59.98289286042099,
12,['2'],TMTstop-B_1_1linestimulus20.png,TMTstop-B_1_1greenlinestimulus20.png,TMTstop-B_1_1redlinestimulus20.png,None,2,,,,,,,,,0,22,22,22,,,,,,,,,,,,,,,,,,,,,,,,,,,,,,,,,,,54.93534590001218,None,['2'],1,[1.2845133000519127],54.93534590001218,None,,001,2022_Jan_11_1304,TMTAB,2021.2.3,59.98289286042099,
L,['3'],TMTstop-B_1_1linestimulus21.png,TMTstop-B_1_1greenlinestimulus21.png,TMTstop-B_1_1redlinestimulus21.png,None,3,,,,,,,,,0,23,23,23,,,,,,,,,,,,,,,,,,,,,,,,,,,,,,,,,,,56.30265449988656,None,['3'],1,[1.0370011001359671],56.30265449988656,None,,001,2022_Jan_11_1304,TMTAB,2021.2.3,59.98289286042099,
13,['2'],TMTstop-B_1_1linestimulus22.png,TMTstop-B_1_1greenlinestimulus22.png,TMTstop-B_1_1redlinestimulus22.png,None,2,,,,,,,,,0,24,24,24,,,,,,,,,,,,,,,,,,,,,,,,,,,,,,,,,,,57.43642029981129,None,['2'],1,[0.7824931000359356],57.43642029981129,None,,001,2022_Jan_11_1304,TMTAB,2021.2.3,59.98289286042099,
None,None,TMTstop-B_1_1linestimulus23.png,TMTstop-B_1_1greenlinestimulus23.png,TMTstop-B_1_1redlinestimulus23.png,None,None,,,,,,,,,0,25,25,25,,,,,,,,,,,,,,,,,,,,,,,,,,,,,,,,,,,58.30479560000822,None,None,1,,58.30479560000822,None,,001,2022_Jan_11_1304,TMTAB,2021.2.3,59.98289286042099,
1,['2'],TMTstop-B_1_2.png,TMTstop-B_1_2.png,TMTstop-B_1_2.png,10,,,,,,,,,,,,,,0,0,0,0,,,,,,,,,,,,,,,,,59.30226819985546,None,,,,,,,,,,,,,62.37220949982293,None,['2'],1,[0.5962745000142604],62.37220949982293,None,,001,2022_Jan_11_1304,TMTAB,2021.2.3,59.98289286042099,
A,['3'],TMTstop-B_1_2.png,TMTstop-B_1_2firstgreen.png,TMTstop-B_1_2firstred.png,10,,,,,,,,,,,,,,0,1,1,1,,,,,,,,,,,,,,,,,,,,,,,,,,,,,,,63.055788199882954,None,"['2', '3']",1,"[0.3286025000270456, 0.9155194000340998]",63.055788199882954,None,,001,2022_Jan_11_1304,TMTAB,2021.2.3,59.98289286042099,
2,['1'],TMTstop-B_1_2linestimulus0.png,TMTstop-B_1_2greenlinestimulus0.png,TMTstop-B_1_2redlinestimulus0.png,10,,,,,,,,,,,,,,0,2,2,2,,,,,,,,,,,,,,,,,,,,,,,,,,,,,,,64.07284789998084,None,['1'],1,[0.3224991001188755],64.07284789998084,None,,001,2022_Jan_11_1304,TMTAB,2021.2.3,59.98289286042099,
B,['2'],TMTstop-B_1_2linestimulus1.png,TMTstop-B_1_2greenlinestimulus1.png,TMTstop-B_1_2redlinestimulus1.png,10,,,,,,,,,,,,,,0,3,3,3,,,,,,,,,,,,,,,,,,,,,,,,,,,,,,,64.4896662000101,None,"['1', '1', '1', '2']",1,"[0.45374300004914403, 0.7355583000462502, 0.9913324001245201, 1.2229771001730114]",64.4896662000101,None,,001,2022_Jan_11_1304,TMTAB,2021.2.3,59.98289286042099,
3,['3'],TMTstop-B_1_2linestimulus2.png,TMTstop-B_1_2greenlinestimulus2.png,TMTstop-B_1_2redlinestimulus2.png,10,,,,,,,,,,,,,,0,4,4,4,,,,,,,,,,,,,,,,,,,,,,,,,,,,,,,65.84033969999291,None,['3'],1,[0.16218070010654628],65.84033969999291,None,,001,2022_Jan_11_1304,TMTAB,2021.2.3,59.98289286042099,
C,['1'],TMTstop-B_1_2linestimulus3.png,TMTstop-B_1_2greenlinestimulus3.png,TMTstop-B_1_2redlinestimulus3.png,10,,,,,,,,,,,,,,0,5,5,5,,,,,,,,,,,,,,,,,,,,,,,,,,,,,,,66.0905118000228,None,['1'],1,[0.23209279985167086],66.0905118000228,None,,001,2022_Jan_11_1304,TMTAB,2021.2.3,59.98289286042099,
4,['2'],TMTstop-B_1_2linestimulus4.png,TMTstop-B_1_2greenlinestimulus4.png,TMTstop-B_1_2redlinestimulus4.png,10,,,,,,,,,,,,,,0,6,6,6,,,,,,,,,,,,,,,,,,,,,,,,,,,,,,,66.40726669994183,None,['2'],1,[0.006012299796566367],66.40726669994183,None,,001,2022_Jan_11_1304,TMTAB,2021.2.3,59.98289286042099,
D,['3'],TMTstop-B_1_2linestimulus5.png,TMTstop-B_1_2greenlinestimulus5.png,TMTstop-B_1_2redlinestimulus5.png,10,,,,,,,,,,,,,,0,7,7,7,,,,,,,,,,,,,,,,,,,,,,,,,,,,,,,66.50728659983724,None,['3'],1,[0.02253519999794662],66.50728659983724,None,,001,2022_Jan_11_1304,TMTAB,2021.2.3,59.98289286042099,
5,['2'],TMTstop-B_1_2linestimulus6.png,TMTstop-B_1_2greenlinestimulus6.png,TMTstop-B_1_2redlinestimulus6.png,10,,,,,,,,,,,,,,0,8,8,8,,,,,,,,,,,,,,,,,,,,,,,,,,,,,,,66.62435179995373,None,"['1', '2']",1,"[0.04747100011445582, 0.11779329995624721]",66.62435179995373,None,,001,2022_Jan_11_1304,TMTAB,2021.2.3,59.98289286042099,
E,['1'],TMTstop-B_1_2linestimulus7.png,TMTstop-B_1_2greenlinestimulus7.png,TMTstop-B_1_2redlinestimulus7.png,10,,,,,,,,,,,,,,0,9,9,9,,,,,,,,,,,,,,,,,,,,,,,,,,,,,,,66.85741319996305,None,"['3', '1']",1,"[-0.00778259988874197, 0.11697370000183582]",66.85741319996305,None,,001,2022_Jan_11_1304,TMTAB,2021.2.3,59.98289286042099,
6,['3'],TMTstop-B_1_2linestimulus8.png,TMTstop-B_1_2greenlinestimulus8.png,TMTstop-B_1_2redlinestimulus8.png,10,,,,,,,,,,,,,,0,10,10,10,,,,,,,,,,,,,,,,,,,,,,,,,,,,,,,67.09093989990652,None,"['2', '3']",1,"[-0.04323189985007048, 0.08140409993939102]",67.09093989990652,None,,001,2022_Jan_11_1304,TMTAB,2021.2.3,59.98289286042099,
F,['1'],TMTstop-B_1_2linestimulus9.png,TMTstop-B_1_2greenlinestimulus9.png,TMTstop-B_1_2redlinestimulus9.png,10,,,,,,,,,,,,,,0,11,11,11,,,,,,,,,,,,,,,,,,,,,,,,,,,,,,,67.27425619983114,None,['1'],1,[0.03891239990480244],67.27425619983114,None,,001,2022_Jan_11_1304,TMTAB,2021.2.3,59.98289286042099,
7,['3'],TMTstop-B_1_2linestimulus10.png,TMTstop-B_1_2greenlinestimulus10.png,TMTstop-B_1_2redlinestimulus10.png,1,,,,,,,,,,,,,,0,12,12,12,,,,,,,,,,,,,,,,,,,,,,,,,,,,,,,67.40782959992066,None,"['2', '3']",1,"[-0.03502899990417063, 0.09146340005099773]",67.40782959992066,None,,001,2022_Jan_11_1304,TMTAB,2021.2.3,59.98289286042099,
G,['2'],TMTstop-B_1_2linestimulus11.png,TMTstop-B_1_2greenlinestimulus11.png,TMTstop-B_1_2redlinestimulus11.png,None,,,,,,,,,,,,,,0,13,13,13,,,,,,,,,,,,,,,,,,,,,,,,,,,,,,,67.59140769997612,None,"['1', '2']",1,"[0.0379566999617964, 0.10314180003479123]",67.59140769997612,None,,001,2022_Jan_11_1304,TMTAB,2021.2.3,59.98289286042099,
8,['3'],TMTstop-B_1_2linestimulus12.png,TMTstop-B_1_2greenlinestimulus12.png,TMTstop-B_1_2redlinestimulus12.png,None,,,,,,,,,,,,,,0,14,14,14,,,,,,,,,,,,,,,,,,,,,,,,,,,,,,,67.82462199986912,None,['3'],1,[-0.015535500133410096],67.82462199986912,None,,001,2022_Jan_11_1304,TMTAB,2021.2.3,59.98289286042099,
H,['2'],TMTstop-B_1_2linestimulus13.png,TMTstop-B_1_2greenlinestimulus13.png,TMTstop-B_1_2redlinestimulus13.png,None,,,,,,,,,,,,,,0,15,15,15,,,,,,,,,,,,,,,,,,,,,,,,,,,,,,,67.90806289995089,None,"['1', '2']",1,"[0.029517199844121933, 0.1133307998534292]",67.90806289995089,None,,001,2022_Jan_11_1304,TMTAB,2021.2.3,59.98289286042099,
9,['3'],TMTstop-B_1_2linestimulus14.png,TMTstop-B_1_2greenlinestimulus14.png,TMTstop-B_1_2redlinestimulus14.png,None,,,,,,,,,,,,,,0,16,16,16,,,,,,,,,,,,,,,,,,,,,,,,,,,,,,,68.12474569980986,None,['3'],1,[-0.008438700111582875],68.12474569980986,None,,001,2022_Jan_11_1304,TMTAB,2021.2.3,59.98289286042099,
I,['1'],TMTstop-B_1_2linestimulus15.png,TMTstop-B_1_2greenlinestimulus15.png,TMTstop-B_1_2redlinestimulus15.png,None,,,,,,,,,,,,,,0,17,17,17,,,,,,,,,,,,,,,,,,,,,,,,,,,,,,,68.20818369998597,None,['1'],1,[0.05570140015333891],68.20818369998597,None,,001,2022_Jan_11_1304,TMTAB,2021.2.3,59.98289286042099,
10,['2'],TMTstop-B_1_2linestimulus16.png,TMTstop-B_1_2greenlinestimulus16.png,TMTstop-B_1_2redlinestimulus16.png,None,,,,,,,,,,,,,,0,18,18,18,,,,,,,,,,,,,,,,,,,,,,,,,,,,,,,68.35825499985367,None,['2'],1,[0.017341299913823605],68.35825499985367,None,,001,2022_Jan_11_1304,TMTAB,2021.2.3,59.98289286042099,
J,['3'],TMTstop-B_1_2linestimulus17.png,TMTstop-B_1_2greenlinestimulus17.png,TMTstop-B_1_2redlinestimulus17.png,None,,,,,,,,,,,,,,0,19,19,19,,,,,,,,,,,,,,,,,,,,,,,,,,,,,,,68.45822099992074,None,['3'],1,[0.0021198000758886337],68.45822099992074,None,,001,2022_Jan_11_1304,TMTAB,2021.2.3,59.98289286042099,
11,['2'],TMTstop-B_1_2linestimulus18.png,TMTstop-B_1_2greenlinestimulus18.png,TMTstop-B_1_2redlinestimulus18.png,None,,,,,,,,,,,,,,0,20,20,20,,,,,,,,,,,,,,,,,,,,,,,,,,,,,,,68.55829229997471,None,"['1', '2']",1,"[0.039104900090023875, 0.11516270018182695]",68.55829229997471,None,,001,2022_Jan_11_1304,TMTAB,2021.2.3,59.98289286042099,
K,['3'],TMTstop-B_1_2linestimulus19.png,TMTstop-B_1_2greenlinestimulus19.png,TMTstop-B_1_2redlinestimulus19.png,None,,,,,,,,,,,,,,0,21,21,21,,,,,,,,,,,,,,,,,,,,,,,,,,,,,,,68.7918840998318,None,['3'],1,[-0.001079200068488717],68.7918840998318,None,,001,2022_Jan_11_1304,TMTAB,2021.2.3,59.98289286042099,
12,['1'],TMTstop-B_1_2linestimulus20.png,TMTstop-B_1_2greenlinestimulus20.png,TMTstop-B_1_2redlinestimulus20.png,None,,,,,,,,,,,,,,0,22,22,22,,,,,,,,,,,,,,,,,,,,,,,,,,,,,,,68.87503360002302,None,['1'],1,[0.044091299874708056],68.87503360002302,None,,001,2022_Jan_11_1304,TMTAB,2021.2.3,59.98289286042099,
L,['2'],TMTstop-B_1_2linestimulus21.png,TMTstop-B_1_2greenlinestimulus21.png,TMTstop-B_1_2redlinestimulus21.png,None,,,,,,,,,,,,,,0,23,23,23,,,,,,,,,,,,,,,,,,,,,,,,,,,,,,,69.00868900003843,None,['2'],1,[0.008561699884012341],69.00868900003843,None,,001,2022_Jan_11_1304,TMTAB,2021.2.3,59.98289286042099,
13,['3'],TMTstop-B_1_2linestimulus22.png,TMTstop-B_1_2greenlinestimulus22.png,TMTstop-B_1_2redlinestimulus22.png,None,,,,,,,,,,,,,,0,24,24,24,,,,,,,,,,,,,,,,,,,,,,,,,,,,,,,69.10860119992867,None,['3'],1,[0.008303100010380149],69.10860119992867,None,,001,2022_Jan_11_1304,TMTAB,2021.2.3,59.98289286042099,
None,None,TMTstop-B_1_2linestimulus23.png,TMTstop-B_1_2greenlinestimulus23.png,TMTstop-B_1_2redlinestimulus23.png,None,,,,,,,,,,,,,,0,25,25,25,,,,,,,,,,,,,,,,,,,,,,,,,,,,,,,69.20851100003347,None,"['1', '2', '3', '1', '2', '3']",0,"[0.045825199922546744, 0.12756889988668263, 0.23404789995402098, 0.37524349987506866, 0.462814399972558, 0.5644814998377115]",69.20851100003347,None,,001,2022_Jan_11_1304,TMTAB,2021.2.3,59.98289286042099,
1,['3'],TMTstop-B_1_3.png,TMTstop-B_1_3.png,TMTstop-B_1_3.png,10,3,,,,,,,,,,,,,,,,,0,0,0,0,,,,,,,,,,,,,70.2573398000095,None,,,,,,,,,,,,,73.29378169984557,None,['3'],1,[0.7295810000505298],73.29378169984557,None,,001,2022_Jan_11_1304,TMTAB,2021.2.3,59.98289286042099,
A,['2'],TMTstop-B_1_3.png,TMTstop-B_1_3firstgreen.png,TMTstop-B_1_3firstred.png,10,2,,,,,,,,,,,,,,,,,0,1,1,1,,,,,,,,,,,,,,,,,,,,,,,,,,,74.1108219998423,None,"['1', '2']",1,"[0.05421480000950396, 0.1523245999123901]",74.1108219998423,None,,001,2022_Jan_11_1304,TMTAB,2021.2.3,59.98289286042099,
2,['1'],TMTstop-B_1_3linestimulus0.png,TMTstop-B_1_3greenlinestimulus0.png,TMTstop-B_1_3redlinestimulus0.png,10,1,,,,,,,,,,,,,,,,,0,2,2,2,,,,,,,,,,,,,,,,,,,,,,,,,,,74.36122539988719,None,"['3', '1']",1,"[0.00957529991865158, 0.15348330000415444]",74.36122539988719,None,,001,2022_Jan_11_1304,TMTAB,2021.2.3,59.98289286042099,
B,['2'],TMTstop-B_1_3linestimulus1.png,TMTstop-B_1_3greenlinestimulus1.png,TMTstop-B_1_3redlinestimulus1.png,10,2,,,,,,,,,,,,,,,,,0,3,3,3,,,,,,,,,,,,,,,,,,,,,,,,,,,74.6110025998205,None,['2'],1,[-0.022146000061184168],74.6110025998205,None,,001,2022_Jan_11_1304,TMTAB,2021.2.3,59.98289286042099,
3,['1'],TMTstop-B_1_3linestimulus2.png,TMTstop-B_1_3greenlinestimulus2.png,TMTstop-B_1_3redlinestimulus2.png,10,1,,,,,,,,,,,,,,,,,0,4,4,4,,,,,,,,,,,,,,,,,,,,,,,,,,,74.69456680002622,None,"['3', '1']",1,"[-0.0071709000039845705, 0.1359276999719441]",74.69456680002622,None,,001,2022_Jan_11_1304,TMTAB,2021.2.3,59.98289286042099,
C,['3'],TMTstop-B_1_3linestimulus3.png,TMTstop-B_1_3greenlinestimulus3.png,TMTstop-B_1_3redlinestimulus3.png,10,3,,,,,,,,,,,,,,,,,0,5,5,5,,,,,,,,,,,,,,,,,,,,,,,,,,,74.92813449981622,None,"['2', '3']",1,"[-0.00572500005364418, 1.5740772997960448]",74.92813449981622,None,,001,2022_Jan_11_1304,TMTAB,2021.2.3,59.98289286042099,
4,['1'],TMTstop-B_1_3linestimulus4.png,TMTstop-B_1_3greenlinestimulus4.png,TMTstop-B_1_3redlinestimulus4.png,10,1,,,,,,,,,,,,,,,,,0,6,6,6,,,,,,,,,,,,,,,,,,,,,,,,,,,76.61197709990665,None,"['3', '3', '3', '2', '1']",1,"[1.2459166999906301, 3.1269790998194367, 3.909850299824029, 4.782974999863654, 5.19211159995757]",76.61197709990665,None,,001,2022_Jan_11_1304,TMTAB,2021.2.3,59.98289286042099,
D,['3'],TMTstop-B_1_3linestimulus5.png,TMTstop-B_1_3greenlinestimulus5.png,TMTstop-B_1_3redlinestimulus5.png,10,3,,,,,,,,,,,,,,,,,0,7,7,7,,,,,,,,,,,,,,,,,,,,,,,,,,,81.8998818998225,None,"['2', '3']",1,"[1.229582600062713, 3.424774199957028]",81.8998818998225,None,,001,2022_Jan_11_1304,TMTAB,2021.2.3,59.98289286042099,
5,['1'],TMTstop-B_1_3linestimulus6.png,TMTstop-B_1_3greenlinestimulus6.png,TMTstop-B_1_3redlinestimulus6.png,10,1,,,,,,,,,,,,,,,,,0,8,8,8,,,,,,,,,,,,,,,,,,,,,,,,,,,85.41624980000779,None,['1'],1,[0.824510799953714],85.41624980000779,None,,001,2022_Jan_11_1304,TMTAB,2021.2.3,59.98289286042099,
E,['3'],TMTstop-B_1_3linestimulus7.png,TMTstop-B_1_3greenlinestimulus7.png,TMTstop-B_1_3redlinestimulus7.png,10,3,,,,,,,,,,,,,,,,,0,9,9,9,,,,,,,,,,,,,,,,,,,,,,,,,,,86.3334826999344,None,['3'],1,[1.564976500114426],86.3334826999344,None,,001,2022_Jan_11_1304,TMTAB,2021.2.3,59.98289286042099,
6,['1'],TMTstop-B_1_3linestimulus8.png,TMTstop-B_1_3greenlinestimulus8.png,TMTstop-B_1_3redlinestimulus8.png,10,1,,,,,,,,,,,,,,,,,0,10,10,10,,,,,,,,,,,,,,,,,,,,,,,,,,,87.96756929997355,None,"['3', '3', '3', '3', '3', '3', '3', '3', '3', '3', '3', '3', '1']",1,"[0.7353169000707567, 1.2496897000819445, 1.6730261999182403, 2.255957700079307, 2.685196700040251, 3.0413021999411285, 3.344653300009668, 3.644948299974203, 3.935869500041008, 4.190084300003946, 4.448679700028151, 4.805136200040579, 6.891202700091526]",87.96756929997355,None,,001,2022_Jan_11_1304,TMTAB,2021.2.3,59.98289286042099,
F,['2'],TMTstop-B_1_3linestimulus9.png,TMTstop-B_1_3greenlinestimulus9.png,TMTstop-B_1_3redlinestimulus9.png,10,2,,,,,,,,,,,,,,,,,0,11,11,11,,,,,,,,,,,,,,,,,,,,,,,,,,,94.95386120001785,None,"['1', '1', '2']",1,"[0.2510631999466568, 0.5741447999607772, 0.7028149000834674]",94.95386120001785,None,,001,2022_Jan_11_1304,TMTAB,2021.2.3,59.98289286042099,
7,['1'],TMTstop-B_1_3linestimulus10.png,TMTstop-B_1_3greenlinestimulus10.png,TMTstop-B_1_3redlinestimulus10.png,1,1,,,,,,,,,,,,,,,,,0,12,12,12,,,,,,,,,,,,,,,,,,,,,,,,,,,95.78755469992757,None,"['3', '1']",1,"[0.07147199986502528, 0.24163129995577037]",95.78755469992757,None,,001,2022_Jan_11_1304,TMTAB,2021.2.3,59.98289286042099,
G,['3'],TMTstop-B_1_3linestimulus11.png,TMTstop-B_1_3greenlinestimulus11.png,TMTstop-B_1_3redlinestimulus11.png,None,3,,,,,,,,,,,,,,,,,0,13,13,13,,,,,,,,,,,,,,,,,,,,,,,,,,,96.15451279981062,None,"['2', '3']",1,"[-0.027075099991634488, 0.07671029982157052]",96.15451279981062,None,,001,2022_Jan_11_1304,TMTAB,2021.2.3,59.98289286042099,
8,['2'],TMTstop-B_1_3linestimulus12.png,TMTstop-B_1_3greenlinestimulus12.png,TMTstop-B_1_3redlinestimulus12.png,None,2,,,,,,,,,,,,,,,,,0,14,14,14,,,,,,,,,,,,,,,,,,,,,,,,,,,96.33782289992087,None,"['1', '2']",1,"[0.059245900018140674, 0.12684860010631382]",96.33782289992087,None,,001,2022_Jan_11_1304,TMTAB,2021.2.3,59.98289286042099,
H,['3'],TMTstop-B_1_3linestimulus13.png,TMTstop-B_1_3greenlinestimulus13.png,TMTstop-B_1_3redlinestimulus13.png,None,3,,,,,,,,,,,,,,,,,0,15,15,15,,,,,,,,,,,,,,,,,,,,,,,,,,,96.58827039995231,None,['3'],1,[-0.004671900067478418],96.58827039995231,None,,001,2022_Jan_11_1304,TMTAB,2021.2.3,59.98289286042099,
9,['1'],TMTstop-B_1_3linestimulus14.png,TMTstop-B_1_3greenlinestimulus14.png,TMTstop-B_1_3redlinestimulus14.png,None,1,,,,,,,,,,,,,,,,,0,16,16,16,,,,,,,,,,,,,,,,,,,,,,,,,,,96.67141989991069,None,['1'],1,[0.09067899989895523],96.67141989991069,None,,001,2022_Jan_11_1304,TMTAB,2021.2.3,59.98289286042099,
I,['3'],TMTstop-B_1_3linestimulus15.png,TMTstop-B_1_3greenlinestimulus15.png,TMTstop-B_1_3redlinestimulus15.png,None,3,,,,,,,,,,,,,,,,,0,17,17,17,,,,,,,,,,,,,,,,,,,,,,,,,,,96.8550060999114,None,"['2', '3']",1,"[-0.033416799968108535, 0.09990160004235804]",96.8550060999114,None,,001,2022_Jan_11_1304,TMTAB,2021.2.3,59.98289286042099,
10,['1'],TMTstop-B_1_3linestimulus16.png,TMTstop-B_1_3greenlinestimulus16.png,TMTstop-B_1_3redlinestimulus16.png,None,1,,,,,,,,,,,,,,,,,0,18,18,18,,,,,,,,,,,,,,,,,,,,,,,,,,,97.02178499987349,None,['1'],1,[0.12065489985980093],97.02178499987349,None,,001,2022_Jan_11_1304,TMTAB,2021.2.3,59.98289286042099,
J,['2'],TMTstop-B_1_3linestimulus17.png,TMTstop-B_1_3greenlinestimulus17.png,TMTstop-B_1_3redlinestimulus17.png,None,2,,,,,,,,,,,,,,,,,0,19,19,19,,,,,,,,,,,,,,,,,,,,,,,,,,,97.23856069985777,None,['2'],1,[-0.02809369983151555],97.23856069985777,None,,001,2022_Jan_11_1304,TMTAB,2021.2.3,59.98289286042099,
11,['1'],TMTstop-B_1_3linestimulus18.png,TMTstop-B_1_3greenlinestimulus18.png,TMTstop-B_1_3redlinestimulus18.png,None,1,,,,,,,,,,,,,,,,,0,20,20,20,,,,,,,,,,,,,,,,,,,,,,,,,,,97.32188719999976,None,"['3', '1']",1,"[0.018000599928200245, 0.19223839999176562]",97.32188719999976,None,,001,2022_Jan_11_1304,TMTAB,2021.2.3,59.98289286042099,
K,['2'],TMTstop-B_1_3linestimulus19.png,TMTstop-B_1_3greenlinestimulus19.png,TMTstop-B_1_3redlinestimulus19.png,None,2,,,,,,,,,,,,,,,,,0,21,21,21,,,,,,,,,,,,,,,,,,,,,,,,,,,97.62188669992611,None,['2'],1,[-0.047866899985820055],97.62188669992611,None,,001,2022_Jan_11_1304,TMTAB,2021.2.3,59.98289286042099,
12,['3'],TMTstop-B_1_3linestimulus20.png,TMTstop-B_1_3greenlinestimulus20.png,TMTstop-B_1_3redlinestimulus20.png,None,3,,,,,,,,,,,,,,,,,0,22,22,22,,,,,,,,,,,,,,,,,,,,,,,,,,,97.7054371999111,None,['3'],1,[0.005019099917262793],97.7054371999111,None,,001,2022_Jan_11_1304,TMTAB,2021.2.3,59.98289286042099,
L,['2'],TMTstop-B_1_3linestimulus21.png,TMTstop-B_1_3greenlinestimulus21.png,TMTstop-B_1_3redlinestimulus21.png,None,2,,,,,,,,,,,,,,,,,0,23,23,23,,,,,,,,,,,,,,,,,,,,,,,,,,,97.80535169993527,None,"['1', '2']",1,"[0.2050935998558998, 0.2921579999383539]",97.80535169993527,None,,001,2022_Jan_11_1304,TMTAB,2021.2.3,59.98289286042099,
13,['1'],TMTstop-B_1_3linestimulus22.png,TMTstop-B_1_3greenlinestimulus22.png,TMTstop-B_1_3redlinestimulus22.png,None,1,,,,,,,,,,,,,,,,,0,24,24,24,,,,,,,,,,,,,,,,,,,,,,,,,,,98.20560799981467,None,"['3', '1']",1,"[0.03170729987323284, 0.23055129987187684]",98.20560799981467,None,,001,2022_Jan_11_1304,TMTAB,2021.2.3,59.98289286042099,
None,None,TMTstop-B_1_3linestimulus23.png,TMTstop-B_1_3greenlinestimulus23.png,TMTstop-B_1_3redlinestimulus23.png,None,None,,,,,,,,,,,,,,,,,0,25,25,25,,,,,,,,,,,,,,,,,,,,,,,,,,,98.52251579985023,None,"['2', '3', '1', '2', '3', '1', '2', '3']",0,"[-0.023269700119271874, 0.12532530003227293, 0.30220820009708405, 0.38619940006174147, 0.5218736999668181, 0.7051562999840826, 0.7611557000782341, 0.9162572999484837]",98.52251579985023,None,,001,2022_Jan_11_1304,TMTAB,2021.2.3,59.98289286042099,
1,['1'],TMTstop-B_1_4.png,TMTstop-B_1_4.png,TMTstop-B_1_4.png,10,1,,,,,,,,,,,,,,,,,,,,,0,0,0,0,,,,,,,,,99.57077339990065,None,,,,,,,,,,,,,102.60883089993149,None,"['2', '3', '1']",1,"[0.6144031998701394, 0.8135018998291343, 1.0826118998229504]",102.60883089993149,None,,001,2022_Jan_11_1304,TMTAB,2021.2.3,59.98289286042099,
A,['2'],TMTstop-B_1_4.png,TMTstop-B_1_4firstgreen.png,TMTstop-B_1_4firstred.png,10,2,,,,,,,,,,,,,,,,,,,,,0,1,1,1,,,,,,,,,,,,,,,,,,,,,,,103.79146300000139,None,['2'],1,[0.03954249992966652],103.79146300000139,None,,001,2022_Jan_11_1304,TMTAB,2021.2.3,59.98289286042099,
2,['1'],TMTstop-B_1_4linestimulus0.png,TMTstop-B_1_4greenlinestimulus0.png,TMTstop-B_1_4redlinestimulus0.png,10,1,,,,,,,,,,,,,,,,,,,,,0,2,2,2,,,,,,,,,,,,,,,,,,,,,,,103.90810689982027,None,"['3', '1']",1,"[0.04051259998232126, 0.3079661999363452]",103.90810689982027,None,,001,2022_Jan_11_1304,TMTAB,2021.2.3,59.98289286042099,
B,['2'],TMTstop-B_1_4linestimulus1.png,TMTstop-B_1_4greenlinestimulus1.png,TMTstop-B_1_4redlinestimulus1.png,10,2,,,,,,,,,,,,,,,,,,,,,0,3,3,3,,,,,,,,,,,,,,,,,,,,,,,104.3417785000056,None,"['3', '1', '2']",1,"[1.1060171001590788, 1.8862413000315428, 2.217307300074026]",104.3417785000056,None,,001,2022_Jan_11_1304,TMTAB,2021.2.3,59.98289286042099,
3,['3'],TMTstop-B_1_4linestimulus2.png,TMTstop-B_1_4greenlinestimulus2.png,TMTstop-B_1_4redlinestimulus2.png,10,3,,,,,,,,,,,,,,,,,,,,,0,4,4,4,,,,,,,,,,,,,,,,,,,,,,,106.64279139996506,None,['3'],1,[0.0764506000559777],106.64279139996506,None,,001,2022_Jan_11_1304,TMTAB,2021.2.3,59.98289286042099,
C,['2'],TMTstop-B_1_4linestimulus3.png,TMTstop-B_1_4greenlinestimulus3.png,TMTstop-B_1_4redlinestimulus3.png,10,2,,,,,,,,,,,,,,,,,,,,,0,5,5,5,,,,,,,,,,,,,,,,,,,,,,,106.80944109987468,None,"['1', '2']",1,"[0.17293639993295074, 0.31974269985221326]",106.80944109987468,None,,001,2022_Jan_11_1304,TMTAB,2021.2.3,59.98289286042099,
4,['1'],TMTstop-B_1_4linestimulus4.png,TMTstop-B_1_4greenlinestimulus4.png,TMTstop-B_1_4redlinestimulus4.png,10,1,,,,,,,,,,,,,,,,,,,,,0,6,6,6,,,,,,,,,,,,,,,,,,,,,,,107.22642129985616,None,"['3', '1']",1,"[0.8268379000946879, 1.4111959000583738]",107.22642129985616,None,,001,2022_Jan_11_1304,TMTAB,2021.2.3,59.98289286042099,
D,['3'],TMTstop-B_1_4linestimulus5.png,TMTstop-B_1_4greenlinestimulus5.png,TMTstop-B_1_4redlinestimulus5.png,10,3,,,,,,,,,,,,,,,,,,,,,0,7,7,7,,,,,,,,,,,,,,,,,,,,,,,108.74387969984673,None,['3'],1,[0.44686360005289316],108.74387969984673,None,,001,2022_Jan_11_1304,TMTAB,2021.2.3,59.98289286042099,
5,['1'],TMTstop-B_1_4linestimulus6.png,TMTstop-B_1_4greenlinestimulus6.png,TMTstop-B_1_4redlinestimulus6.png,10,1,,,,,,,,,,,,,,,,,,,,,0,8,8,8,,,,,,,,,,,,,,,,,,,,,,,109.27752969996072,None,['1'],1,[0.3343442000914365],109.27752969996072,None,,001,2022_Jan_11_1304,TMTAB,2021.2.3,59.98289286042099,
E,['2'],TMTstop-B_1_4linestimulus7.png,TMTstop-B_1_4greenlinestimulus7.png,TMTstop-B_1_4redlinestimulus7.png,10,2,,,,,,,,,,,,,,,,,,,,,0,9,9,9,,,,,,,,,,,,,,,,,,,,,,,109.69556379993446,None,"['3', '1', '3', '1', '2']",1,"[0.3039762999396771, 0.5942409001290798, 0.7830187000799924, 0.9888720000162721, 1.0544857000932097]",109.69556379993446,None,,001,2022_Jan_11_1304,TMTAB,2021.2.3,59.98289286042099,
6,['3'],TMTstop-B_1_4linestimulus8.png,TMTstop-B_1_4greenlinestimulus8.png,TMTstop-B_1_4redlinestimulus8.png,10,3,,,,,,,,,,,,,,,,,,,,,0,10,10,10,,,,,,,,,,,,,,,,,,,,,,,110.84460229985416,None,['3'],1,[0.020350599894300103],110.84460229985416,None,,001,2022_Jan_11_1304,TMTAB,2021.2.3,59.98289286042099,
F,['1'],TMTstop-B_1_4linestimulus9.png,TMTstop-B_1_4greenlinestimulus9.png,TMTstop-B_1_4redlinestimulus9.png,10,1,,,,,,,,,,,,,,,,,,,,,0,11,11,11,,,,,,,,,,,,,,,,,,,,,,,110.96124619990587,None,['1'],1,[0.07396829989738762],110.96124619990587,None,,001,2022_Jan_11_1304,TMTAB,2021.2.3,59.98289286042099,
7,['3'],TMTstop-B_1_4linestimulus10.png,TMTstop-B_1_4greenlinestimulus10.png,TMTstop-B_1_4redlinestimulus10.png,1,3,,,,,,,,,,,,,,,,,,,,,0,12,12,12,,,,,,,,,,,,,,,,,,,,,,,111.12837619986385,None,"['2', '3']",1,"[0.005458500003442168, 0.10684060002677143]",111.12837619986385,None,,001,2022_Jan_11_1304,TMTAB,2021.2.3,59.98289286042099,
G,['1'],TMTstop-B_1_4linestimulus11.png,TMTstop-B_1_4greenlinestimulus11.png,TMTstop-B_1_4redlinestimulus11.png,None,1,,,,,,,,,,,,,,,,,,,,,0,13,13,13,,,,,,,,,,,,,,,,,,,,,,,111.32849019998685,None,['1'],1,[0.049905499909073114],111.32849019998685,None,,001,2022_Jan_11_1304,TMTAB,2021.2.3,59.98289286042099,
8,['2'],TMTstop-B_1_4linestimulus12.png,TMTstop-B_1_4greenlinestimulus12.png,TMTstop-B_1_4redlinestimulus12.png,None,2,,,,,,,,,,,,,,,,,,,,,0,14,14,14,,,,,,,,,,,,,,,,,,,,,,,111.46187460003421,None,['2'],1,[0.016213999828323722],111.46187460003421,None,,001,2022_Jan_11_1304,TMTAB,2021.2.3,59.98289286042099,
H,['3'],TMTstop-B_1_4linestimulus13.png,TMTstop-B_1_4greenlinestimulus13.png,TMTstop-B_1_4redlinestimulus13.png,None,3,,,,,,,,,,,,,,,,,,,,,0,15,15,15,,,,,,,,,,,,,,,,,,,,,,,111.56181159988046,None,['3'],1,[0.014471699949353933],111.56181159988046,None,,001,2022_Jan_11_1304,TMTAB,2021.2.3,59.98289286042099,
9,['1'],TMTstop-B_1_4linestimulus14.png,TMTstop-B_1_4greenlinestimulus14.png,TMTstop-B_1_4redlinestimulus14.png,None,1,,,,,,,,,,,,,,,,,,,,,0,16,16,16,,,,,,,,,,,,,,,,,,,,,,,111.66171849984676,None,['1'],1,[0.06105479993857443],111.66171849984676,None,,001,2022_Jan_11_1304,TMTAB,2021.2.3,59.98289286042099,
I,['3'],TMTstop-B_1_4linestimulus15.png,TMTstop-B_1_4greenlinestimulus15.png,TMTstop-B_1_4redlinestimulus15.png,None,3,,,,,,,,,,,,,,,,,,,,,0,17,17,17,,,,,,,,,,,,,,,,,,,,,,,111.79491699999198,None,"['2', '3']",1,"[0.0037322998978197575, 0.122018399881199]",111.79491699999198,None,,001,2022_Jan_11_1304,TMTAB,2021.2.3,59.98289286042099,
10,['1'],TMTstop-B_1_4linestimulus16.png,TMTstop-B_1_4greenlinestimulus16.png,TMTstop-B_1_4redlinestimulus16.png,None,1,,,,,,,,,,,,,,,,,,,,,0,18,18,18,,,,,,,,,,,,,,,,,,,,,,,112.04531399998814,None,['1'],1,[0.013902700040489435],112.04531399998814,None,,001,2022_Jan_11_1304,TMTAB,2021.2.3,59.98289286042099,
J,['3'],TMTstop-B_1_4linestimulus17.png,TMTstop-B_1_4greenlinestimulus17.png,TMTstop-B_1_4redlinestimulus17.png,None,3,,,,,,,,,,,,,,,,,,,,,0,19,19,19,,,,,,,,,,,,,,,,,,,,,,,112.14521879982203,None,"['2', '3']",1,"[0.0020010999869555235, 0.12615870009176433]",112.14521879982203,None,,001,2022_Jan_11_1304,TMTAB,2021.2.3,59.98289286042099,
11,['2'],TMTstop-B_1_4linestimulus18.png,TMTstop-B_1_4greenlinestimulus18.png,TMTstop-B_1_4redlinestimulus18.png,None,2,,,,,,,,,,,,,,,,,,,,,0,20,20,20,,,,,,,,,,,,,,,,,,,,,,,112.39560849987902,None,"['1', '2']",1,"[0.02126109995879233, 0.11279019992798567]",112.39560849987902,None,,001,2022_Jan_11_1304,TMTAB,2021.2.3,59.98289286042099,
K,['1'],TMTstop-B_1_4linestimulus19.png,TMTstop-B_1_4greenlinestimulus19.png,TMTstop-B_1_4redlinestimulus19.png,None,1,,,,,,,,,,,,,,,,,,,,,0,21,21,21,,,,,,,,,,,,,,,,,,,,,,,112.61223750002682,None,"['3', '1']",1,"[0.017487599980086088, 0.15784689993597567]",112.61223750002682,None,,001,2022_Jan_11_1304,TMTAB,2021.2.3,59.98289286042099,
12,['3'],TMTstop-B_1_4linestimulus20.png,TMTstop-B_1_4greenlinestimulus20.png,TMTstop-B_1_4redlinestimulus20.png,None,3,,,,,,,,,,,,,,,,,,,,,0,22,22,22,,,,,,,,,,,,,,,,,,,,,,,112.8623184999451,None,"['2', '3']",1,"[0.007493400014936924, 0.10005200002342463]",112.8623184999451,None,,001,2022_Jan_11_1304,TMTAB,2021.2.3,59.98289286042099,
L,['1'],TMTstop-B_1_4linestimulus21.png,TMTstop-B_1_4greenlinestimulus21.png,TMTstop-B_1_4redlinestimulus21.png,None,1,,,,,,,,,,,,,,,,,,,,,0,23,23,23,,,,,,,,,,,,,,,,,,,,,,,113.06227029999718,None,['1'],1,[0.03354520001448691],113.06227029999718,None,,001,2022_Jan_11_1304,TMTAB,2021.2.3,59.98289286042099,
13,['3'],TMTstop-B_1_4linestimulus22.png,TMTstop-B_1_4greenlinestimulus22.png,TMTstop-B_1_4redlinestimulus22.png,None,3,,,,,,,,,,,,,,,,,,,,,0,24,24,24,,,,,,,,,,,,,,,,,,,,,,,113.17931919987313,None,"['2', '3']",1,"[0.011179400142282248, 0.11240700003691018]",113.17931919987313,None,,001,2022_Jan_11_1304,TMTAB,2021.2.3,59.98289286042099,
None,None,TMTstop-B_1_4linestimulus23.png,TMTstop-B_1_4greenlinestimulus23.png,TMTstop-B_1_4redlinestimulus23.png,None,None,,,,,,,,,,,,,,,,,,,,,0,25,25,25,,,,,,,,,,,,,,,,,,,,,,,113.3805881999433,None,"['1', '2', '3', '1', '2', '3', '1', '2', '3']",0,"[0.05534570012241602, 0.14042060007341206, 0.25207310006953776, 0.38808989990502596, 0.4701328999362886, 0.5843209999147803, 0.7551017000805587, 0.8190083999652416, 0.9377482000272721]",113.3805881999433,None,,001,2022_Jan_11_1304,TMTAB,2021.2.3,59.98289286042099,
