NumB_1_1erLetter,corrAns,StimFile,Correct_StimFile,False_StimFile,DurationTrial,NumberLetter,trials.thisRepN,trials.thisTrialN,trials.thisN,trials.thisIndex,trials_2.thisRepN,trials_2.thisTrialN,trials_2.thisN,trials_2.thisIndex,Instruct.started,Instruct.stopped,text_2.started,text_2.stopped,Stim.started,Stim.stopped,key_resp_2.keys,key_resp_2.corr,key_resp_2.rt,key_resp_2.started,key_resp_2.stopped,polygon.started,polygon.stopped,participant,session,date,expName,psychopyVersion,frameRate,
1,1,TMT-B_1_1.jpg,TMT-B_1_1.jpg,TMT-B_1_1.jpg,10,,0,0,0,0,,,,,7.206757500000094,None,7.206757500000094,None,8.322022000000288,None,1,1,1.8245671000004222,8.322022000000288,None,,,,001,2021_Oct_27_1551,TMTAB,2021.2.3,144.4909223557812,
A,2,TMT-B_1_1.jpg,TMT-B_1_1firstgreen.jpg,TMT-B_1_1firstred.jpg,10,,0,1,1,1,,,,,,,,,10.217178700000659,None,1,0,0.9764065999988816,10.217178700000659,None,,,,001,2021_Oct_27_1551,TMTAB,2021.2.3,144.4909223557812,
2,1,TMT-B_1_1linestimulus0.png,TMT-B_1_1greenlinestimulus0.png,TMT-B_1_1redlinestimulus0.png,10,,0,2,2,2,,,,,,,,,11.27898819999973,None,1,1,0.45041029999993043,11.27898819999973,None,,,,001,2021_Oct_27_1551,TMTAB,2021.2.3,144.4909223557812,
B,3,TMT-B_1_1linestimulus1.png,TMT-B_1_1greenlinestimulus1.png,TMT-B_1_1redlinestimulus1.png,10,,0,3,3,3,,,,,,,,,11.808481200001552,None,1,0,0.2853513000009116,11.808481200001552,None,,,,001,2021_Oct_27_1551,TMTAB,2021.2.3,144.4909223557812,
3,2,TMT-B_1_1linestimulus2.png,TMT-B_1_1greenlinestimulus2.png,TMT-B_1_1redlinestimulus2.png,10,,0,4,4,4,,,,,,,,,12.175025500000629,None,1,0,0.3181183999986388,12.175025500000629,None,,,,001,2021_Oct_27_1551,TMTAB,2021.2.3,144.4909223557812,
C,1,TMT-B_1_1linestimulus3.png,TMT-B_1_1greenlinestimulus3.png,TMT-B_1_1redlinestimulus3.png,10,,0,5,5,5,,,,,,,,,12.563729199999216,None,1,1,0.3812523999986297,12.563729199999216,None,,,,001,2021_Oct_27_1551,TMTAB,2021.2.3,144.4909223557812,
4,2,TMT-B_1_1linestimulus4.png,TMT-B_1_1greenlinestimulus4.png,TMT-B_1_1redlinestimulus4.png,10,,0,6,6,6,,,,,,,,,13.02234640000097,None,1,0,0.4184270000005199,13.02234640000097,None,,,,001,2021_Oct_27_1551,TMTAB,2021.2.3,144.4909223557812,
D,3,TMT-B_1_1linestimulus5.png,TMT-B_1_1greenlinestimulus5.png,TMT-B_1_1redlinestimulus5.png,10,,0,7,7,7,,,,,,,,,13.528955500001757,None,1,0,1.2207277999987127,13.528955500001757,None,,,,001,2021_Oct_27_1551,TMTAB,2021.2.3,144.4909223557812,
5,2,TMT-B_1_1linestimulus6.png,TMT-B_1_1greenlinestimulus6.png,TMT-B_1_1redlinestimulus6.png,10,,0,8,8,8,,,,,,,,,14.820680299999367,None,1,0,0.3887070000018866,14.820680299999367,None,,,,001,2021_Oct_27_1551,TMTAB,2021.2.3,144.4909223557812,
E,1,TMT-B_1_1linestimulus7.png,TMT-B_1_1greenlinestimulus7.png,TMT-B_1_1redlinestimulus7.png,10,,0,9,9,9,,,,,,,,,15.279172999998991,None,1,1,0.41673609999998007,15.279172999998991,None,,,,001,2021_Oct_27_1551,TMTAB,2021.2.3,144.4909223557812,
6,2,TMT-B_1_1linestimulus8.png,TMT-B_1_1greenlinestimulus8.png,TMT-B_1_1redlinestimulus8.png,10,,0,10,10,10,,,,,,,,,15.772047700000257,None,1,0,0.3826752999993914,15.772047700000257,None,,,,001,2021_Oct_27_1551,TMTAB,2021.2.3,144.4909223557812,
F,3,TMT-B_1_1linestimulus9.png,TMT-B_1_1greenlinestimulus9.png,TMT-B_1_1redlinestimulus9.png,10,,0,11,11,11,,,,,,,,,16.23049610000089,None,1,0,1.2122158000020136,16.23049610000089,None,,,,001,2021_Oct_27_1551,TMTAB,2021.2.3,144.4909223557812,
None,None,None,TMT-B_1_1greenlinestimulus10.png,TMT-B_1_1redlinestimulus10.png,1,,0,12,12,12,,,,,,,,,17.522202399999514,None,None,1,,17.522202399999514,None,,,,001,2021_Oct_27_1551,TMTAB,2021.2.3,144.4909223557812,
,3,TMT-BX_1_1.jpg,TMT-BX_1_1.jpg,TMT-BX_1_1.jpg,,7,,,,,0,0,0,0,,,,,21.58466160000171,None,1,0,1.6368011999984446,21.58466160000171,None,18.533232300000236,None,,001,2021_Oct_27_1551,TMTAB,2021.2.3,144.4909223557812,
,1,TMT-BX_1_1.jpg,TMT-BX_1_1firstgreen.jpg,TMT-BX_1_1firstred.jpg,,G,,,,,0,1,1,1,,,,,23.292863400001806,None,1,1,0.4268703000016103,23.292863400001806,None,,,,001,2021_Oct_27_1551,TMTAB,2021.2.3,144.4909223557812,
,2,TMT-BX_1_1linestimulus0.png,TMT-BX_1_1greenlinestimulus0.png,TMT-BX_1_1redlinestimulus0.png,,8,,,,,0,2,2,2,,,,,23.793034700000135,None,1,0,0.46311989999958314,23.793034700000135,None,,,,001,2021_Oct_27_1551,TMTAB,2021.2.3,144.4909223557812,
,1,TMT-BX_1_1linestimulus1.png,TMT-BX_1_1greenlinestimulus1.png,TMT-BX_1_1redlinestimulus1.png,,H,,,,,0,3,3,3,,,,,24.341513999999734,None,1,1,0.8997667000003275,24.341513999999734,None,,,,001,2021_Oct_27_1551,TMTAB,2021.2.3,144.4909223557812,
,3,TMT-BX_1_1linestimulus2.png,TMT-BX_1_1greenlinestimulus2.png,TMT-BX_1_1redlinestimulus2.png,,9,,,,,0,4,4,4,,,,,25.32731219999914,None,1,0,0.7784293000004254,25.32731219999914,None,,,,001,2021_Oct_27_1551,TMTAB,2021.2.3,144.4909223557812,
,1,TMT-BX_1_1linestimulus3.png,TMT-BX_1_1greenlinestimulus3.png,TMT-BX_1_1redlinestimulus3.png,,I,,,,,0,5,5,5,,,,,26.188250700000935,None,1,1,0.34518970000135596,26.188250700000935,None,,,,001,2021_Oct_27_1551,TMTAB,2021.2.3,144.4909223557812,
,2,TMT-BX_1_1linestimulus4.png,TMT-BX_1_1greenlinestimulus4.png,TMT-BX_1_1redlinestimulus4.png,,10,,,,,0,6,6,6,,,,,26.612158899999486,None,1,0,0.4550705999972706,26.612158899999486,None,,,,001,2021_Oct_27_1551,TMTAB,2021.2.3,144.4909223557812,
,3,TMT-BX_1_1linestimulus5.png,TMT-BX_1_1greenlinestimulus5.png,TMT-BX_1_1redlinestimulus5.png,,J,,,,,0,7,7,7,,,,,27.15361750000011,None,1,0,0.40183649999744375,27.15361750000011,None,,,,001,2021_Oct_27_1551,TMTAB,2021.2.3,144.4909223557812,
,2,TMT-BX_1_1linestimulus6.png,TMT-BX_1_1greenlinestimulus6.png,TMT-BX_1_1redlinestimulus6.png,,11,,,,,0,8,8,8,,,,,27.640193800001725,None,1,0,0.44378189999770257,27.640193800001725,None,,,,001,2021_Oct_27_1551,TMTAB,2021.2.3,144.4909223557812,
,1,TMT-BX_1_1linestimulus7.png,TMT-BX_1_1greenlinestimulus7.png,TMT-BX_1_1redlinestimulus7.png,,K,,,,,0,9,9,9,,,,,28.174474100000225,None,1,1,0.35654040000008536,28.174474100000225,None,,,,001,2021_Oct_27_1551,TMTAB,2021.2.3,144.4909223557812,
,2,TMT-BX_1_1linestimulus8.png,TMT-BX_1_1greenlinestimulus8.png,TMT-BX_1_1redlinestimulus8.png,,12,,,,,0,10,10,10,,,,,28.61898250000013,None,1,0,0.3362682000006316,28.61898250000013,None,,,,001,2021_Oct_27_1551,TMTAB,2021.2.3,144.4909223557812,
,1,TMT-BX_1_1linestimulus9.png,TMT-BX_1_1greenlinestimulus9.png,TMT-BX_1_1redlinestimulus9.png,,L,,,,,0,11,11,11,,,,,29.05011690000174,None,1,1,0.4009377000002132,29.05011690000174,None,,,,001,2021_Oct_27_1551,TMTAB,2021.2.3,144.4909223557812,
,None,None,TMT-BX_1_1greenlinestimulus10.png,TMT-BX_1_1redlinestimulus10.png,,None,,,,,0,12,12,12,,,,,29.535582600001362,None,2,0,9.438119599999482,29.535582600001362,None,,,,001,2021_Oct_27_1551,TMTAB,2021.2.3,144.4909223557812,
