NumberLetter,corrAns,StimFile,Correct_StimFile,False_StimFile,DurationTrial,restartpractice.thisRepN,restartpractice.thisTrialN,restartpractice.thisN,restartpractice.thisIndex,trials_practice.thisRepN,trials_practice.thisTrialN,trials_practice.thisN,trials_practice.thisIndex,trials.thisRepN,trials.thisTrialN,trials.thisN,trials.thisIndex,trials_2.thisRepN,trials_2.thisTrialN,trials_2.thisN,trials_2.thisIndex,trials_3.thisRepN,trials_3.thisTrialN,trials_3.thisN,trials_3.thisIndex,trials_4.thisRepN,trials_4.thisTrialN,trials_4.thisN,trials_4.thisIndex,trials_5.thisRepN,trials_5.thisTrialN,trials_5.thisN,trials_5.thisIndex,Instruct.started,Instruct.stopped,image_2.started,image_2.stopped,key_resp_6.keys,key_resp_6.rt,key_resp_6.started,key_resp_6.stopped,polygon.started,polygon.stopped,Stim_practice.started,Stim_practice.stopped,key_resp_practice.keys,key_resp_practice.corr,key_resp_practice.rt,key_resp_practice.started,key_resp_practice.stopped,text_5.started,text_5.stopped,key_resp_5.keys,key_resp_5.rt,key_resp_5.started,key_resp_5.stopped,Stim.started,Stim.stopped,key_resp_2.keys,key_resp_2.corr,key_resp_2.rt,key_resp_2.started,key_resp_2.stopped,text.started,text.stopped,participant,session,date,expName,psychopyVersion,frameRate,
,,,,,,,,,,,,,,,,,,,,,,,,,,,,,,,,,,14.663215099993977,None,17.86900939999032,None,2,0.8301924999977928,17.86900939999032,None,,,,,,,,,,,,,,,,,,,,,,,,,,001,2021_Nov_17_1805,TMTAB,2021.2.3,None,
1,3,TMT-B_1_practice.png,TMT-B_1_practice.png,TMT-B_1_practice.png,10,0,0,0,0,0,0,0,0,,,,,,,,,,,,,,,,,,,,,,,,,,,,,18.720064399996772,None,21.953374599994277,None,1,0,1.6344449000025634,21.953374599994277,None,,,,,,,,,,,,,,,,,001,2021_Nov_17_1805,TMTAB,2021.2.3,None,
A,1,TMT-B_1_practice.png,TMT-B_1_practicefirstgreen.png,TMT-B_1_practicefirstred.png,10,0,0,0,0,0,1,1,1,,,,,,,,,,,,,,,,,,,,,,,,,,,,,,,23.738249599991832,None,3,0,0.03908220000448637,23.738249599991832,None,,,,,,,,,,,,,,,,,001,2021_Nov_17_1805,TMTAB,2021.2.3,None,
2,3,TMT-B_1_practicelinestimulus0.png,TMT-B_1_practicegreenlinestimulus0.png,TMT-B_1_practiceredlinestimulus0.png,10,0,0,0,0,0,2,2,2,,,,,,,,,,,,,,,,,,,,,,,,,,,,,,,23.891269799991278,None,1,0,0.7836343999952078,23.891269799991278,None,,,,,,,,,,,,,,,,,001,2021_Nov_17_1805,TMTAB,2021.2.3,None,
B,2,TMT-B_1_practicelinestimulus1.png,TMT-B_1_practicegreenlinestimulus1.png,TMT-B_1_practiceredlinestimulus1.png,10,0,0,0,0,0,3,3,3,,,,,,,,,,,,,,,,,,,,,,,,,,,,,,,24.85693639999954,None,2,1,3.0682222000032198,24.85693639999954,None,,,,,,,,,,,,,,,,,001,2021_Nov_17_1805,TMTAB,2021.2.3,None,
3,1,TMT-B_1_practicelinestimulus2.png,TMT-B_1_practicegreenlinestimulus2.png,TMT-B_1_practiceredlinestimulus2.png,10,0,0,0,0,0,4,4,4,,,,,,,,,,,,,,,,,,,,,,,,,,,,,,,28.07292169998982,None,2,0,0.5378642000141554,28.07292169998982,None,,,,,,,,,,,,,,,,,001,2021_Nov_17_1805,TMTAB,2021.2.3,None,
C,3,TMT-B_1_practicelinestimulus3.png,TMT-B_1_practicegreenlinestimulus3.png,TMT-B_1_practiceredlinestimulus3.png,10,0,0,0,0,0,5,5,5,,,,,,,,,,,,,,,,,,,,,,,,,,,,,,,28.757082799987984,None,1,0,0.12248679999902379,28.757082799987984,None,,,,,,,,,,,,,,,,,001,2021_Nov_17_1805,TMTAB,2021.2.3,None,
4,2,TMT-B_1_practicelinestimulus4.png,TMT-B_1_practicegreenlinestimulus4.png,TMT-B_1_practiceredlinestimulus4.png,10,0,0,0,0,0,6,6,6,,,,,,,,,,,,,,,,,,,,,,,,,,,,,,,29.029845899989596,None,3,0,0.021009600008255802,29.029845899989596,None,,,,,,,,,,,,,,,,,001,2021_Nov_17_1805,TMTAB,2021.2.3,None,
D,1,TMT-B_1_practicelinestimulus5.png,TMT-B_1_practicegreenlinestimulus5.png,TMT-B_1_practiceredlinestimulus5.png,10,0,0,0,0,0,7,7,7,,,,,,,,,,,,,,,,,,,,,,,,,,,,,,,29.229703599994536,None,3,0,0.13473060000978876,29.229703599994536,None,,,,,,,,,,,,,,,,,001,2021_Nov_17_1805,TMTAB,2021.2.3,None,
5,3,TMT-B_1_practicelinestimulus6.png,TMT-B_1_practicegreenlinestimulus6.png,TMT-B_1_practiceredlinestimulus6.png,10,0,0,0,0,0,8,8,8,,,,,,,,,,,,,,,,,,,,,,,,,,,,,,,29.507253899995703,None,1,0,0.4921786999912001,29.507253899995703,None,,,,,,,,,,,,,,,,,001,2021_Nov_17_1805,TMTAB,2021.2.3,None,
E,2,TMT-B_1_practicelinestimulus7.png,TMT-B_1_practicegreenlinestimulus7.png,TMT-B_1_practiceredlinestimulus7.png,10,0,0,0,0,0,9,9,9,,,,,,,,,,,,,,,,,,,,,,,,,,,,,,,30.196862199998577,None,3,0,0.15496689999417868,30.196862199998577,None,,,,,,,,,,,,,,,,,001,2021_Nov_17_1805,TMTAB,2021.2.3,None,
6,3,TMT-B_1_practicelinestimulus8.png,TMT-B_1_practicegreenlinestimulus8.png,TMT-B_1_practiceredlinestimulus8.png,10,0,0,0,0,0,10,10,10,,,,,,,,,,,,,,,,,,,,,,,,,,,,,,,30.51231399999233,None,1,0,0.6395044999953825,30.51231399999233,None,,,,,,,,,,,,,,,,,001,2021_Nov_17_1805,TMTAB,2021.2.3,None,
F,2,TMT-B_1_practicelinestimulus9.png,TMT-B_1_practicegreenlinestimulus9.png,TMT-B_1_practiceredlinestimulus9.png,10,0,0,0,0,0,11,11,11,,,,,,,,,,,,,,,,,,,,,,,,,,,,,,,31.28027319999819,None,2,1,0.5250981999997748,31.28027319999819,None,,,,,,,,,,,,,,,,,001,2021_Nov_17_1805,TMTAB,2021.2.3,None,
None,None,None,TMT-B_1_practicegreenlinestimulus10.png,TMT-B_1_practiceredlinestimulus10.png,1,0,0,0,0,0,12,12,12,,,,,,,,,,,,,,,,,,,,,,,,,,,,,,,31.9782414999936,None,None,1,,31.9782414999936,None,,,,,,,,,,,,,,,,,001,2021_Nov_17_1805,TMTAB,2021.2.3,None,
,,,,,,0,0,0,0,,,,,,,,,,,,,,,,,,,,,,,,,,,,,,,,,,,,,,,,,,33.041790599992964,None,2,0.6751928000012413,33.041790599992964,None,,,,,,,,,,,001,2021_Nov_17_1805,TMTAB,2021.2.3,None,
1,['3'],TMT-B_1_1.png,TMT-B_1_1.png,TMT-B_1_1.png,10,,,,,,,,,0,0,0,0,,,,,,,,,,,,,,,,,,,,,,,,,33.742033099988475,None,,,,,,,,,,,,,,37.026844499996514,None,['1'],0,[1.0848541999876034],37.026844499996514,None,,,,001,2021_Nov_17_1805,TMTAB,2021.2.3,None,
2,['1'],TMT-B_1_1.png,TMT-B_1_1firstgreen.png,TMT-B_1_1firstred.png,10,,,,,,,,,0,1,1,1,,,,,,,,,,,,,,,,,,,,,,,,,,,,,,,,,,,,,,,,38.26903469998797,None,['2'],0,[-0.01237129999208264],38.26903469998797,None,,,,001,2021_Nov_17_1805,TMTAB,2021.2.3,None,
3,['2'],TMT-B_1_1linestimulus0.png,TMT-B_1_1greenlinestimulus0.png,TMT-B_1_1redlinestimulus0.png,10,,,,,,,,,0,2,2,2,,,,,,,,,,,,,,,,,,,,,,,,,,,,,,,,,,,,,,,,38.40716769998835,None,['3'],0,[-0.08659789999364875],38.40716769998835,None,,,,001,2021_Nov_17_1805,TMTAB,2021.2.3,None,
4,['3'],TMT-B_1_1linestimulus1.png,TMT-B_1_1greenlinestimulus1.png,TMT-B_1_1redlinestimulus1.png,10,,,,,,,,,0,3,3,3,,,,,,,,,,,,,,,,,,,,,,,,,,,,,,,,,,,,,,,,38.54595239998889,None,['1'],0,[-0.022170299998833798],38.54595239998889,None,,,,001,2021_Nov_17_1805,TMTAB,2021.2.3,None,
5,['2'],TMT-B_1_1linestimulus2.png,TMT-B_1_1greenlinestimulus2.png,TMT-B_1_1redlinestimulus2.png,10,,,,,,,,,0,4,4,4,,,,,,,,,,,,,,,,,,,,,,,,,,,,,,,,,,,,,,,,38.68338859999494,None,['2'],1,[-0.06494940000993665],38.68338859999494,None,,,,001,2021_Nov_17_1805,TMTAB,2021.2.3,None,
6,['1'],TMT-B_1_1linestimulus3.png,TMT-B_1_1greenlinestimulus3.png,TMT-B_1_1redlinestimulus3.png,10,,,,,,,,,0,5,5,5,,,,,,,,,,,,,,,,,,,,,,,,,,,,,,,,,,,,,,,,38.82188669999596,None,['3'],0,[-0.13008160000026692],38.82188669999596,None,,,,001,2021_Nov_17_1805,TMTAB,2021.2.3,None,
7,['3'],TMT-B_1_1linestimulus4.png,TMT-B_1_1greenlinestimulus4.png,TMT-B_1_1redlinestimulus4.png,10,,,,,,,,,0,6,6,6,,,,,,,,,,,,,,,,,,,,,,,,,,,,,,,,,,,,,,,,38.96054249998997,None,"['1', '2']",0,"[-0.1079435999999987, -0.029380799998762086]",38.96054249998997,None,,,,001,2021_Nov_17_1805,TMTAB,2021.2.3,None,
8,['1'],TMT-B_1_1linestimulus5.png,TMT-B_1_1greenlinestimulus5.png,TMT-B_1_1redlinestimulus5.png,10,,,,,,,,,0,7,7,7,,,,,,,,,,,,,,,,,,,,,,,,,,,,,,,,,,,,,,,,39.098328899999615,None,['3'],0,[-0.06586899999820162],39.098328899999615,None,,,,001,2021_Nov_17_1805,TMTAB,2021.2.3,None,
9,['3'],TMT-B_1_1linestimulus6.png,TMT-B_1_1greenlinestimulus6.png,TMT-B_1_1redlinestimulus6.png,10,,,,,,,,,0,8,8,8,,,,,,,,,,,,,,,,,,,,,,,,,,,,,,,,,,,,,,,,39.23623969999608,None,['1'],0,[-0.030924799997592345],39.23623969999608,None,,,,001,2021_Nov_17_1805,TMTAB,2021.2.3,None,
10,['2'],TMT-B_1_1linestimulus7.png,TMT-B_1_1greenlinestimulus7.png,TMT-B_1_1redlinestimulus7.png,10,,,,,,,,,0,9,9,9,,,,,,,,,,,,,,,,,,,,,,,,,,,,,,,,,,,,,,,,39.3746034999931,None,['2'],1,[-0.09746930000255816],39.3746034999931,None,,,,001,2021_Nov_17_1805,TMTAB,2021.2.3,None,
11,['1'],TMT-B_1_1linestimulus8.png,TMT-B_1_1greenlinestimulus8.png,TMT-B_1_1redlinestimulus8.png,10,,,,,,,,,0,10,10,10,,,,,,,,,,,,,,,,,,,,,,,,,,,,,,,,,,,,,,,,39.5129203999968,None,['3'],0,[-0.13329880000674166],39.5129203999968,None,,,,001,2021_Nov_17_1805,TMTAB,2021.2.3,None,
12,['3'],TMT-B_1_1linestimulus9.png,TMT-B_1_1greenlinestimulus9.png,TMT-B_1_1redlinestimulus9.png,10,,,,,,,,,0,11,11,11,,,,,,,,,,,,,,,,,,,,,,,,,,,,,,,,,,,,,,,,39.65022319999116,None,"['1', '2']",0,"[-0.08435629999439698, -0.01588649999757763]",39.65022319999116,None,,,,001,2021_Nov_17_1805,TMTAB,2021.2.3,None,
13,['1'],TMT-B_1_1linestimulus10.png,TMT-B_1_1greenlinestimulus10.png,TMT-B_1_1redlinestimulus10.png,1,,,,,,,,,0,12,12,12,,,,,,,,,,,,,,,,,,,,,,,,,,,,,,,,,,,,,,,,39.77445899999293,None,['3'],0,[-0.03200720000313595],39.77445899999293,None,,,,001,2021_Nov_17_1805,TMTAB,2021.2.3,None,
14,['2'],TMT-B_1_1linestimulus11.png,TMT-B_1_1greenlinestimulus11.png,TMT-B_1_1redlinestimulus11.png,None,,,,,,,,,0,13,13,13,,,,,,,,,,,,,,,,,,,,,,,,,,,,,,,,,,,,,,,,39.91194589999213,None,['1'],0,[0.01273080000828486],39.91194589999213,None,,,,001,2021_Nov_17_1805,TMTAB,2021.2.3,None,
15,['3'],TMT-B_1_1linestimulus12.png,TMT-B_1_1greenlinestimulus12.png,TMT-B_1_1redlinestimulus12.png,None,,,,,,,,,0,14,14,14,,,,,,,,,,,,,,,,,,,,,,,,,,,,,,,,,,,,,,,,40.05081960000098,None,['2'],0,[-0.026132799990591593],40.05081960000098,None,,,,001,2021_Nov_17_1805,TMTAB,2021.2.3,None,
16,['2'],TMT-B_1_1linestimulus13.png,TMT-B_1_1greenlinestimulus13.png,TMT-B_1_1redlinestimulus13.png,None,,,,,,,,,0,15,15,15,,,,,,,,,,,,,,,,,,,,,,,,,,,,,,,,,,,,,,,,40.189867199995206,None,['3'],0,[-0.058691599988378584],40.189867199995206,None,,,,001,2021_Nov_17_1805,TMTAB,2021.2.3,None,
17,['1'],TMT-B_1_1linestimulus14.png,TMT-B_1_1greenlinestimulus14.png,TMT-B_1_1redlinestimulus14.png,None,,,,,,,,,0,16,16,16,,,,,,,,,,,,,,,,,,,,,,,,,,,,,,,,,,,,,,,,40.32825330000196,None,['1'],1,[-0.00962309999158606],40.32825330000196,None,,,,001,2021_Nov_17_1805,TMTAB,2021.2.3,None,
18,['3'],TMT-B_1_1linestimulus15.png,TMT-B_1_1greenlinestimulus15.png,TMT-B_1_1redlinestimulus15.png,None,,,,,,,,,0,17,17,17,,,,,,,,,,,,,,,,,,,,,,,,,,,,,,,,,,,,,,,,40.467637199995806,None,['2'],0,[-0.04474730000947602],40.467637199995806,None,,,,001,2021_Nov_17_1805,TMTAB,2021.2.3,None,
19,['2'],TMT-B_1_1linestimulus16.png,TMT-B_1_1greenlinestimulus16.png,TMT-B_1_1redlinestimulus16.png,None,,,,,,,,,0,18,18,18,,,,,,,,,,,,,,,,,,,,,,,,,,,,,,,,,,,,,,,,40.604051299989806,None,['1'],0,[0.27326289999473374],40.604051299989806,None,,,,001,2021_Nov_17_1805,TMTAB,2021.2.3,None,
20,['3'],TMT-B_1_1linestimulus17.png,TMT-B_1_1greenlinestimulus17.png,TMT-B_1_1redlinestimulus17.png,None,,,,,,,,,0,19,19,19,,,,,,,,,,,,,,,,,,,,,,,,,,,,,,,,,,,,,,,,41.008854499988956,None,['2'],0,[-0.01937700000416953],41.008854499988956,None,,,,001,2021_Nov_17_1805,TMTAB,2021.2.3,None,
21,['2'],TMT-B_1_1linestimulus18.png,TMT-B_1_1greenlinestimulus18.png,TMT-B_1_1redlinestimulus18.png,None,,,,,,,,,0,20,20,20,,,,,,,,,,,,,,,,,,,,,,,,,,,,,,,,,,,,,,,,41.145607999991626,None,['3'],0,[-0.047345500002847984],41.145607999991626,None,,,,001,2021_Nov_17_1805,TMTAB,2021.2.3,None,
22,['3'],TMT-B_1_1linestimulus19.png,TMT-B_1_1greenlinestimulus19.png,TMT-B_1_1redlinestimulus19.png,None,,,,,,,,,0,21,21,21,,,,,,,,,,,,,,,,,,,,,,,,,,,,,,,,,,,,,,,,41.282755199994426,None,['1'],0,[0.05274629998893943],41.282755199994426,None,,,,001,2021_Nov_17_1805,TMTAB,2021.2.3,None,
23,['2'],TMT-B_1_1linestimulus20.png,TMT-B_1_1greenlinestimulus20.png,TMT-B_1_1redlinestimulus20.png,None,,,,,,,,,0,22,22,22,,,,,,,,,,,,,,,,,,,,,,,,,,,,,,,,,,,,,,,,41.566376299990225,None,['2'],1,[-0.11087699999916367],41.566376299990225,None,,,,001,2021_Nov_17_1805,TMTAB,2021.2.3,None,
24,['3'],TMT-B_1_1linestimulus21.png,TMT-B_1_1greenlinestimulus21.png,TMT-B_1_1redlinestimulus21.png,None,,,,,,,,,0,23,23,23,,,,,,,,,,,,,,,,,,,,,,,,,,,,,,,,,,,,,,,,41.70130159999826,None,['3'],1,[-0.02907279999635648],41.70130159999826,None,,,,001,2021_Nov_17_1805,TMTAB,2021.2.3,None,
25,['2'],TMT-B_1_1linestimulus22.png,TMT-B_1_1greenlinestimulus22.png,TMT-B_1_1redlinestimulus22.png,None,,,,,,,,,0,24,24,24,,,,,,,,,,,,,,,,,,,,,,,,,,,,,,,,,,,,,,,,41.84012939999229,None,['2'],1,[1.037426000009873],41.84012939999229,None,,,,001,2021_Nov_17_1805,TMTAB,2021.2.3,None,
None,None,TMT-B_1_1linestimulus23.png,TMT-B_1_1greenlinestimulus23.png,TMT-B_1_1redlinestimulus23.png,None,,,,,,,,,0,25,25,25,,,,,,,,,,,,,,,,,,,,,,,,,,,,,,,,,,,,,,,,43.09696759999497,None,None,1,,43.09696759999497,None,,,,001,2021_Nov_17_1805,TMTAB,2021.2.3,None,
1,['3'],TMT-B_1_2.png,TMT-B_1_2.png,TMT-B_1_2.png,10,,,,,,,,,,,,,0,0,0,0,,,,,,,,,,,,,,,,,,,,,44.08187569999427,None,,,,,,,,,,,,,,47.219953399995575,None,['1'],0,[0.7152819999901112],47.219953399995575,None,,,,001,2021_Nov_17_1805,TMTAB,2021.2.3,None,
2,['2'],TMT-B_1_2.png,TMT-B_1_2firstgreen.png,TMT-B_1_2firstred.png,10,,,,,,,,,,,,,0,1,1,1,,,,,,,,,,,,,,,,,,,,,,,,,,,,,,,,,,,,48.04889479999838,None,['2'],1,[0.046002999995835125],48.04889479999838,None,,,,001,2021_Nov_17_1805,TMTAB,2021.2.3,None,
3,['3'],TMT-B_1_2linestimulus0.png,TMT-B_1_2greenlinestimulus0.png,TMT-B_1_2redlinestimulus0.png,10,,,,,,,,,,,,,0,2,2,2,,,,,,,,,,,,,,,,,,,,,,,,,,,,,,,,,,,,48.23595729999943,None,['3'],1,[-0.1145535999967251],48.23595729999943,None,,,,001,2021_Nov_17_1805,TMTAB,2021.2.3,None,
4,['2'],TMT-B_1_2linestimulus1.png,TMT-B_1_2greenlinestimulus1.png,TMT-B_1_2redlinestimulus1.png,10,,,,,,,,,,,,,0,3,3,3,,,,,,,,,,,,,,,,,,,,,,,,,,,,,,,,,,,,48.32580649999727,None,['1'],0,[-0.06403400000999682],48.32580649999727,None,,,,001,2021_Nov_17_1805,TMTAB,2021.2.3,None,
5,['1'],TMT-B_1_2linestimulus2.png,TMT-B_1_2greenlinestimulus2.png,TMT-B_1_2redlinestimulus2.png,10,,,,,,,,,,,,,0,4,4,4,,,,,,,,,,,,,,,,,,,,,,,,,,,,,,,,,,,,48.46084999998857,None,"['2', '3']",0,"[-0.1060004999890225, -0.028409299993654713]",48.46084999998857,None,,,,001,2021_Nov_17_1805,TMTAB,2021.2.3,None,
6,['2'],TMT-B_1_2linestimulus3.png,TMT-B_1_2greenlinestimulus3.png,TMT-B_1_2redlinestimulus3.png,10,,,,,,,,,,,,,0,5,5,5,,,,,,,,,,,,,,,,,,,,,,,,,,,,,,,,,,,,48.5988415999891,None,['1'],0,[-0.016589899998507462],48.5988415999891,None,,,,001,2021_Nov_17_1805,TMTAB,2021.2.3,None,
7,['3'],TMT-B_1_2linestimulus4.png,TMT-B_1_2greenlinestimulus4.png,TMT-B_1_2redlinestimulus4.png,10,,,,,,,,,,,,,0,6,6,6,,,,,,,,,,,,,,,,,,,,,,,,,,,,,,,,,,,,48.737774699999136,None,['2'],0,[-0.08676600000762846],48.737774699999136,None,,,,001,2021_Nov_17_1805,TMTAB,2021.2.3,None,
8,['2'],TMT-B_1_2linestimulus5.png,TMT-B_1_2greenlinestimulus5.png,TMT-B_1_2redlinestimulus5.png,10,,,,,,,,,,,,,0,7,7,7,,,,,,,,,,,,,,,,,,,,,,,,,,,,,,,,,,,,48.87605249999615,None,['3'],0,[-0.11502349999500439],48.87605249999615,None,,,,001,2021_Nov_17_1805,TMTAB,2021.2.3,None,
9,['1'],TMT-B_1_2linestimulus6.png,TMT-B_1_2greenlinestimulus6.png,TMT-B_1_2redlinestimulus6.png,10,,,,,,,,,,,,,0,8,8,8,,,,,,,,,,,,,,,,,,,,,,,,,,,,,,,,,,,,49.013643300000695,None,['1'],1,[-0.12270000000717118],49.013643300000695,None,,,,001,2021_Nov_17_1805,TMTAB,2021.2.3,None,
10,['2'],TMT-B_1_2linestimulus7.png,TMT-B_1_2greenlinestimulus7.png,TMT-B_1_2redlinestimulus7.png,10,,,,,,,,,,,,,0,9,9,9,,,,,,,,,,,,,,,,,,,,,,,,,,,,,,,,,,,,49.15272539999569,None,"['2', '3']",0,"[-0.12002570000186097, -0.06426420000207145]",49.15272539999569,None,,,,001,2021_Nov_17_1805,TMTAB,2021.2.3,None,
11,['1'],TMT-B_1_2linestimulus8.png,TMT-B_1_2greenlinestimulus8.png,TMT-B_1_2redlinestimulus8.png,10,,,,,,,,,,,,,0,10,10,10,,,,,,,,,,,,,,,,,,,,,,,,,,,,,,,,,,,,49.29100069998822,None,['1'],1,[-0.0015223999944282696],49.29100069998822,None,,,,001,2021_Nov_17_1805,TMTAB,2021.2.3,None,
12,['3'],TMT-B_1_2linestimulus9.png,TMT-B_1_2greenlinestimulus9.png,TMT-B_1_2redlinestimulus9.png,10,,,,,,,,,,,,,0,11,11,11,,,,,,,,,,,,,,,,,,,,,,,,,,,,,,,,,,,,49.432033899996895,None,['2'],0,[-0.05303769999591168],49.432033899996895,None,,,,001,2021_Nov_17_1805,TMTAB,2021.2.3,None,
13,['2'],TMT-B_1_2linestimulus10.png,TMT-B_1_2greenlinestimulus10.png,TMT-B_1_2redlinestimulus10.png,1,,,,,,,,,,,,,0,12,12,12,,,,,,,,,,,,,,,,,,,,,,,,,,,,,,,,,,,,49.56866199999058,None,['3'],0,[-0.11078599999018479],49.56866199999058,None,,,,001,2021_Nov_17_1805,TMTAB,2021.2.3,None,
14,['3'],TMT-B_1_2linestimulus11.png,TMT-B_1_2greenlinestimulus11.png,TMT-B_1_2redlinestimulus11.png,None,,,,,,,,,,,,,0,13,13,13,,,,,,,,,,,,,,,,,,,,,,,,,,,,,,,,,,,,49.70678149999003,None,['1'],0,[-0.04323069998645224],49.70678149999003,None,,,,001,2021_Nov_17_1805,TMTAB,2021.2.3,None,
15,['1'],TMT-B_1_2linestimulus12.png,TMT-B_1_2greenlinestimulus12.png,TMT-B_1_2redlinestimulus12.png,None,,,,,,,,,,,,,0,14,14,14,,,,,,,,,,,,,,,,,,,,,,,,,,,,,,,,,,,,49.84585579999839,None,['2'],0,[-0.08185170000069775],49.84585579999839,None,,,,001,2021_Nov_17_1805,TMTAB,2021.2.3,None,
16,['2'],TMT-B_1_2linestimulus13.png,TMT-B_1_2greenlinestimulus13.png,TMT-B_1_2redlinestimulus13.png,None,,,,,,,,,,,,,0,15,15,15,,,,,,,,,,,,,,,,,,,,,,,,,,,,,,,,,,,,49.985861599998316,None,['1'],0,[0.20691370000713505],49.985861599998316,None,,,,001,2021_Nov_17_1805,TMTAB,2021.2.3,None,
17,['3'],TMT-B_1_2linestimulus14.png,TMT-B_1_2greenlinestimulus14.png,TMT-B_1_2redlinestimulus14.png,None,,,,,,,,,,,,,0,16,16,16,,,,,,,,,,,,,,,,,,,,,,,,,,,,,,,,,,,,50.38986529999238,None,['2'],0,[-0.06033180000667926],50.38986529999238,None,,,,001,2021_Nov_17_1805,TMTAB,2021.2.3,None,
18,['2'],TMT-B_1_2linestimulus15.png,TMT-B_1_2greenlinestimulus15.png,TMT-B_1_2redlinestimulus15.png,None,,,,,,,,,,,,,0,17,17,17,,,,,,,,,,,,,,,,,,,,,,,,,,,,,,,,,,,,50.52891129998898,None,['3'],0,[-0.07854159999988042],50.52891129998898,None,,,,001,2021_Nov_17_1805,TMTAB,2021.2.3,None,
19,['3'],TMT-B_1_2linestimulus16.png,TMT-B_1_2greenlinestimulus16.png,TMT-B_1_2redlinestimulus16.png,None,,,,,,,,,,,,,0,18,18,18,,,,,,,,,,,,,,,,,,,,,,,,,,,,,,,,,,,,50.66830849999678,None,['1'],0,[-0.06765629998699296],50.66830849999678,None,,,,001,2021_Nov_17_1805,TMTAB,2021.2.3,None,
20,['2'],TMT-B_1_2linestimulus17.png,TMT-B_1_2greenlinestimulus17.png,TMT-B_1_2redlinestimulus17.png,None,,,,,,,,,,,,,0,19,19,19,,,,,,,,,,,,,,,,,,,,,,,,,,,,,,,,,,,,50.80405469999823,None,['1'],0,[0.10154279999551363],50.80405469999823,None,,,,001,2021_Nov_17_1805,TMTAB,2021.2.3,None,
21,['3'],TMT-B_1_2linestimulus18.png,TMT-B_1_2greenlinestimulus18.png,TMT-B_1_2redlinestimulus18.png,None,,,,,,,,,,,,,0,20,20,20,,,,,,,,,,,,,,,,,,,,,,,,,,,,,,,,,,,,51.054858399991645,None,['2'],0,[-0.051557400001911446],51.054858399991645,None,,,,001,2021_Nov_17_1805,TMTAB,2021.2.3,None,
22,['1'],TMT-B_1_2linestimulus19.png,TMT-B_1_2greenlinestimulus19.png,TMT-B_1_2redlinestimulus19.png,None,,,,,,,,,,,,,0,21,21,21,,,,,,,,,,,,,,,,,,,,,,,,,,,,,,,,,,,,51.19269309999072,None,['3'],0,[-0.11734789999900386],51.19269309999072,None,,,,001,2021_Nov_17_1805,TMTAB,2021.2.3,None,
23,['3'],TMT-B_1_2linestimulus20.png,TMT-B_1_2greenlinestimulus20.png,TMT-B_1_2redlinestimulus20.png,None,,,,,,,,,,,,,0,22,22,22,,,,,,,,,,,,,,,,,,,,,,,,,,,,,,,,,,,,51.330174299990176,None,"['1', '2']",0,"[-0.10781479999423027, -0.032454599990160204]",51.330174299990176,None,,,,001,2021_Nov_17_1805,TMTAB,2021.2.3,None,
24,['1'],TMT-B_1_2linestimulus21.png,TMT-B_1_2greenlinestimulus21.png,TMT-B_1_2redlinestimulus21.png,None,,,,,,,,,,,,,0,23,23,23,,,,,,,,,,,,,,,,,,,,,,,,,,,,,,,,,,,,51.46917630000098,None,['3'],0,[-0.08622669999022037],51.46917630000098,None,,,,001,2021_Nov_17_1805,TMTAB,2021.2.3,None,
25,['3'],TMT-B_1_2linestimulus22.png,TMT-B_1_2greenlinestimulus22.png,TMT-B_1_2redlinestimulus22.png,None,,,,,,,,,,,,,0,24,24,24,,,,,,,,,,,,,,,,,,,,,,,,,,,,,,,,,,,,51.60862129999441,None,['1'],0,[-0.07477099999960046],51.60862129999441,None,,,,001,2021_Nov_17_1805,TMTAB,2021.2.3,None,
None,None,TMT-B_1_2linestimulus23.png,TMT-B_1_2greenlinestimulus23.png,TMT-B_1_2redlinestimulus23.png,None,,,,,,,,,,,,,0,25,25,25,,,,,,,,,,,,,,,,,,,,,,,,,,,,,,,,,,,,51.74611969999387,None,['2'],0,[-0.1296911999961594],51.74611969999387,None,,,,001,2021_Nov_17_1805,TMTAB,2021.2.3,None,
1,['3'],TMT-B_1_3.png,TMT-B_1_3.png,TMT-B_1_3.png,10,,,,,,,,,,,,,,,,,0,0,0,0,,,,,,,,,,,,,,,,,51.76719669999147,None,,,,,,,,,,,,,,54.94949459999043,None,['3'],1,[-3.1999740000028396],54.94949459999043,None,,,,001,2021_Nov_17_1805,TMTAB,2021.2.3,None,
2,['2'],TMT-B_1_3.png,TMT-B_1_3firstgreen.png,TMT-B_1_3firstred.png,10,,,,,,,,,,,,,,,,,0,1,1,1,,,,,,,,,,,,,,,,,,,,,,,,,,,,,,,,55.08713369999896,None,['1'],0,[2.6203114000090864],55.08713369999896,None,,,,001,2021_Nov_17_1805,TMTAB,2021.2.3,None,
3,['3'],TMT-B_1_3linestimulus0.png,TMT-B_1_3greenlinestimulus0.png,TMT-B_1_3redlinestimulus0.png,10,,,,,,,,,,,,,,,,,0,2,2,2,,,,,,,,,,,,,,,,,,,,,,,,,,,,,,,,57.852786699993885,None,['2'],0,[-0.033336799999233335],57.852786699993885,None,,,,001,2021_Nov_17_1805,TMTAB,2021.2.3,None,
4,['1'],TMT-B_1_3linestimulus1.png,TMT-B_1_3greenlinestimulus1.png,TMT-B_1_3redlinestimulus1.png,10,,,,,,,,,,,,,,,,,0,3,3,3,,,,,,,,,,,,,,,,,,,,,,,,,,,,,,,,57.9904780999932,None,['3'],0,[-0.011420700000599027],57.9904780999932,None,,,,001,2021_Nov_17_1805,TMTAB,2021.2.3,None,
5,['2'],TMT-B_1_3linestimulus2.png,TMT-B_1_3greenlinestimulus2.png,TMT-B_1_3redlinestimulus2.png,10,,,,,,,,,,,,,,,,,0,4,4,4,,,,,,,,,,,,,,,,,,,,,,,,,,,,,,,,58.128552299996954,None,['1'],0,[0.10771589999785647],58.128552299996954,None,,,,001,2021_Nov_17_1805,TMTAB,2021.2.3,None,
6,['3'],TMT-B_1_3linestimulus3.png,TMT-B_1_3greenlinestimulus3.png,TMT-B_1_3redlinestimulus3.png,10,,,,,,,,,,,,,,,,,0,5,5,5,,,,,,,,,,,,,,,,,,,,,,,,,,,,,,,,58.39387590000115,None,['2'],0,[-0.09387110000534449],58.39387590000115,None,,,,001,2021_Nov_17_1805,TMTAB,2021.2.3,None,
7,['2'],TMT-B_1_3linestimulus4.png,TMT-B_1_3greenlinestimulus4.png,TMT-B_1_3redlinestimulus4.png,10,,,,,,,,,,,,,,,,,0,6,6,6,,,,,,,,,,,,,,,,,,,,,,,,,,,,,,,,58.532807399999,None,['3'],0,[-0.09193160000722855],58.532807399999,None,,,,001,2021_Nov_17_1805,TMTAB,2021.2.3,None,
8,['3'],TMT-B_1_3linestimulus5.png,TMT-B_1_3greenlinestimulus5.png,TMT-B_1_3redlinestimulus5.png,10,,,,,,,,,,,,,,,,,0,7,7,7,,,,,,,,,,,,,,,,,,,,,,,,,,,,,,,,58.67224169999827,None,['1'],0,[-0.028404900003806688],58.67224169999827,None,,,,001,2021_Nov_17_1805,TMTAB,2021.2.3,None,
9,['1'],TMT-B_1_3linestimulus6.png,TMT-B_1_3greenlinestimulus6.png,TMT-B_1_3redlinestimulus6.png,10,,,,,,,,,,,,,,,,,0,8,8,8,,,,,,,,,,,,,,,,,,,,,,,,,,,,,,,,58.82458739999856,None,['2'],0,[-0.10849909999524243],58.82458739999856,None,,,,001,2021_Nov_17_1805,TMTAB,2021.2.3,None,
10,['3'],TMT-B_1_3linestimulus7.png,TMT-B_1_3greenlinestimulus7.png,TMT-B_1_3redlinestimulus7.png,10,,,,,,,,,,,,,,,,,0,9,9,9,,,,,,,,,,,,,,,,,,,,,,,,,,,,,,,,58.955262399991625,None,['3'],1,[-0.09059050001087599],58.955262399991625,None,,,,001,2021_Nov_17_1805,TMTAB,2021.2.3,None,
11,['1'],TMT-B_1_3linestimulus8.png,TMT-B_1_3greenlinestimulus8.png,TMT-B_1_3redlinestimulus8.png,10,,,,,,,,,,,,,,,,,0,10,10,10,,,,,,,,,,,,,,,,,,,,,,,,,,,,,,,,59.087053399998695,None,"['1', '2']",0,"[-0.09592999999586027, -0.053779299996676855]",59.087053399998695,None,,,,001,2021_Nov_17_1805,TMTAB,2021.2.3,None,
12,['2'],TMT-B_1_3linestimulus9.png,TMT-B_1_3greenlinestimulus9.png,TMT-B_1_3redlinestimulus9.png,10,,,,,,,,,,,,,,,,,0,11,11,11,,,,,,,,,,,,,,,,,,,,,,,,,,,,,,,,59.225758699991275,None,['3'],0,[-0.07047540000348818],59.225758699991275,None,,,,001,2021_Nov_17_1805,TMTAB,2021.2.3,None,
13,['3'],TMT-B_1_3linestimulus10.png,TMT-B_1_3greenlinestimulus10.png,TMT-B_1_3redlinestimulus10.png,1,,,,,,,,,,,,,,,,,0,12,12,12,,,,,,,,,,,,,,,,,,,,,,,,,,,,,,,,59.36389449999842,None,['1'],0,[-0.06103840000287164],59.36389449999842,None,,,,001,2021_Nov_17_1805,TMTAB,2021.2.3,None,
14,['2'],TMT-B_1_3linestimulus11.png,TMT-B_1_3greenlinestimulus11.png,TMT-B_1_3redlinestimulus11.png,None,,,,,,,,,,,,,,,,,0,13,13,13,,,,,,,,,,,,,,,,,,,,,,,,,,,,,,,,59.501544400001876,None,"['2', '3']",0,"[-0.11996400001225993, -0.020825500003411435]",59.501544400001876,None,,,,001,2021_Nov_17_1805,TMTAB,2021.2.3,None,
15,['3'],TMT-B_1_3linestimulus12.png,TMT-B_1_3greenlinestimulus12.png,TMT-B_1_3redlinestimulus12.png,None,,,,,,,,,,,,,,,,,0,14,14,14,,,,,,,,,,,,,,,,,,,,,,,,,,,,,,,,59.639558800001396,None,['1'],0,[0.0439289999922039],59.639558800001396,None,,,,001,2021_Nov_17_1805,TMTAB,2021.2.3,None,
16,['2'],TMT-B_1_3linestimulus13.png,TMT-B_1_3greenlinestimulus13.png,TMT-B_1_3redlinestimulus13.png,None,,,,,,,,,,,,,,,,,0,15,15,15,,,,,,,,,,,,,,,,,,,,,,,,,,,,,,,,59.77895359999093,None,['2'],1,[0.018894500011811033],59.77895359999093,None,,,,001,2021_Nov_17_1805,TMTAB,2021.2.3,None,
17,['1'],TMT-B_1_3linestimulus14.png,TMT-B_1_3greenlinestimulus14.png,TMT-B_1_3redlinestimulus14.png,None,,,,,,,,,,,,,,,,,0,16,16,16,,,,,,,,,,,,,,,,,,,,,,,,,,,,,,,,59.92059549999249,None,['3'],0,[-0.017180099996039644],59.92059549999249,None,,,,001,2021_Nov_17_1805,TMTAB,2021.2.3,None,
18,['3'],TMT-B_1_3linestimulus15.png,TMT-B_1_3greenlinestimulus15.png,TMT-B_1_3redlinestimulus15.png,None,,,,,,,,,,,,,,,,,0,17,17,17,,,,,,,,,,,,,,,,,,,,,,,,,,,,,,,,60.05558519999613,None,['1'],0,[0.04867039999226108],60.05558519999613,None,,,,001,2021_Nov_17_1805,TMTAB,2021.2.3,None,
19,['2'],TMT-B_1_3linestimulus16.png,TMT-B_1_3greenlinestimulus16.png,TMT-B_1_3redlinestimulus16.png,None,,,,,,,,,,,,,,,,,0,18,18,18,,,,,,,,,,,,,,,,,,,,,,,,,,,,,,,,60.32031039999856,None,"['2', '3']",0,"[-0.12420670001301914, -0.06548800000746269]",60.32031039999856,None,,,,001,2021_Nov_17_1805,TMTAB,2021.2.3,None,
20,['1'],TMT-B_1_3linestimulus17.png,TMT-B_1_3greenlinestimulus17.png,TMT-B_1_3redlinestimulus17.png,None,,,,,,,,,,,,,,,,,0,19,19,19,,,,,,,,,,,,,,,,,,,,,,,,,,,,,,,,60.45658189999813,None,['1'],1,[0.38949450000654906],60.45658189999813,None,,,,001,2021_Nov_17_1805,TMTAB,2021.2.3,None,
21,['3'],TMT-B_1_3linestimulus18.png,TMT-B_1_3greenlinestimulus18.png,TMT-B_1_3redlinestimulus18.png,None,,,,,,,,,,,,,,,,,0,20,20,20,,,,,,,,,,,,,,,,,,,,,,,,,,,,,,,,61.01539889999549,None,['2'],0,[0.3777813999913633],61.01539889999549,None,,,,001,2021_Nov_17_1805,TMTAB,2021.2.3,None,
22,['2'],TMT-B_1_3linestimulus19.png,TMT-B_1_3greenlinestimulus19.png,TMT-B_1_3redlinestimulus19.png,None,,,,,,,,,,,,,,,,,0,21,21,21,,,,,,,,,,,,,,,,,,,,,,,,,,,,,,,,61.508699300000444,None,['3'],0,[0.48001810000278056],61.508699300000444,None,,,,001,2021_Nov_17_1805,TMTAB,2021.2.3,None,
23,['3'],TMT-B_1_3linestimulus20.png,TMT-B_1_3greenlinestimulus20.png,TMT-B_1_3redlinestimulus20.png,None,,,,,,,,,,,,,,,,,0,22,22,22,,,,,,,,,,,,,,,,,,,,,,,,,,,,,,,,62.18811689999711,None,['2'],0,[0.1805622000101721],62.18811689999711,None,,,,001,2021_Nov_17_1805,TMTAB,2021.2.3,None,
24,['2'],TMT-B_1_3linestimulus21.png,TMT-B_1_3greenlinestimulus21.png,TMT-B_1_3redlinestimulus21.png,None,,,,,,,,,,,,,,,,,0,23,23,23,,,,,,,,,,,,,,,,,,,,,,,,,,,,,,,,62.49223209999036,None,['2'],1,[0.8703349999996135],62.49223209999036,None,,,,001,2021_Nov_17_1805,TMTAB,2021.2.3,None,
25,['1'],TMT-B_1_3linestimulus22.png,TMT-B_1_3greenlinestimulus22.png,TMT-B_1_3redlinestimulus22.png,None,,,,,,,,,,,,,,,,,0,24,24,24,,,,,,,,,,,,,,,,,,,,,,,,,,,,,,,,63.569110799988266,None,['1'],1,[0.8340115000028163],63.569110799988266,None,,,,001,2021_Nov_17_1805,TMTAB,2021.2.3,None,
None,None,TMT-B_1_3linestimulus23.png,TMT-B_1_3greenlinestimulus23.png,TMT-B_1_3redlinestimulus23.png,None,,,,,,,,,,,,,,,,,0,25,25,25,,,,,,,,,,,,,,,,,,,,,,,,,,,,,,,,64.54407229999197,None,None,1,,64.54407229999197,None,,,,001,2021_Nov_17_1805,TMTAB,2021.2.3,None,
1,['1'],TMT-B_1_4.png,TMT-B_1_4.png,TMT-B_1_4.png,10,,,,,,,,,,,,,,,,,,,,,0,0,0,0,,,,,,,,,,,,,65.54025479999837,None,,,,,,,,,,,,,,68.64182799999253,None,['1'],1,[0.4981302000087453],68.64182799999253,None,,,,001,2021_Nov_17_1805,TMTAB,2021.2.3,None,
2,['3'],TMT-B_1_4.png,TMT-B_1_4firstgreen.png,TMT-B_1_4firstred.png,10,,,,,,,,,,,,,,,,,,,,,0,1,1,1,,,,,,,,,,,,,,,,,,,,,,,,,,,,69.3224249999912,None,['2'],0,[-0.0772696000058204],69.3224249999912,None,,,,001,2021_Nov_17_1805,TMTAB,2021.2.3,None,
3,['1'],TMT-B_1_4linestimulus0.png,TMT-B_1_4greenlinestimulus0.png,TMT-B_1_4redlinestimulus0.png,10,,,,,,,,,,,,,,,,,,,,,0,2,2,2,,,,,,,,,,,,,,,,,,,,,,,,,,,,69.46066559999599,None,['3'],0,[-0.13189000000420492],69.46066559999599,None,,,,001,2021_Nov_17_1805,TMTAB,2021.2.3,None,
4,['3'],TMT-B_1_4linestimulus1.png,TMT-B_1_4greenlinestimulus1.png,TMT-B_1_4redlinestimulus1.png,10,,,,,,,,,,,,,,,,,,,,,0,3,3,3,,,,,,,,,,,,,,,,,,,,,,,,,,,,69.59823160000087,None,"['1', '2']",0,"[-0.08484719999250956, -0.02071820000128355]",69.59823160000087,None,,,,001,2021_Nov_17_1805,TMTAB,2021.2.3,None,
5,['2'],TMT-B_1_4linestimulus2.png,TMT-B_1_4greenlinestimulus2.png,TMT-B_1_4redlinestimulus2.png,10,,,,,,,,,,,,,,,,,,,,,0,4,4,4,,,,,,,,,,,,,,,,,,,,,,,,,,,,69.73649669998849,None,['3'],0,[-0.04025859999819659],69.73649669998849,None,,,,001,2021_Nov_17_1805,TMTAB,2021.2.3,None,
6,['3'],TMT-B_1_4linestimulus3.png,TMT-B_1_4greenlinestimulus3.png,TMT-B_1_4redlinestimulus3.png,10,,,,,,,,,,,,,,,,,,,,,0,5,5,5,,,,,,,,,,,,,,,,,,,,,,,,,,,,69.87486719999288,None,['1'],0,[-0.004434300004504621],69.87486719999288,None,,,,001,2021_Nov_17_1805,TMTAB,2021.2.3,None,
7,['1'],TMT-B_1_4linestimulus4.png,TMT-B_1_4greenlinestimulus4.png,TMT-B_1_4redlinestimulus4.png,10,,,,,,,,,,,,,,,,,,,,,0,6,6,6,,,,,,,,,,,,,,,,,,,,,,,,,,,,70.01261299999896,None,['2'],0,[-0.10082880000118166],70.01261299999896,None,,,,001,2021_Nov_17_1805,TMTAB,2021.2.3,None,
8,['2'],TMT-B_1_4linestimulus5.png,TMT-B_1_4greenlinestimulus5.png,TMT-B_1_4redlinestimulus5.png,10,,,,,,,,,,,,,,,,,,,,,0,7,7,7,,,,,,,,,,,,,,,,,,,,,,,,,,,,70.15024119999725,None,['3'],0,[-0.11636189999990165],70.15024119999725,None,,,,001,2021_Nov_17_1805,TMTAB,2021.2.3,None,
9,['1'],TMT-B_1_4linestimulus6.png,TMT-B_1_4greenlinestimulus6.png,TMT-B_1_4redlinestimulus6.png,10,,,,,,,,,,,,,,,,,,,,,0,8,8,8,,,,,,,,,,,,,,,,,,,,,,,,,,,,70.28849710000213,None,"['1', '2']",0,"[-0.09845999999379274, -0.04432299999461975]",70.28849710000213,None,,,,001,2021_Nov_17_1805,TMTAB,2021.2.3,None,
10,['3'],TMT-B_1_4linestimulus7.png,TMT-B_1_4greenlinestimulus7.png,TMT-B_1_4redlinestimulus7.png,10,,,,,,,,,,,,,,,,,,,,,0,9,9,9,,,,,,,,,,,,,,,,,,,,,,,,,,,,70.42729379999219,None,['3'],1,[-0.0272289999993518],70.42729379999219,None,,,,001,2021_Nov_17_1805,TMTAB,2021.2.3,None,
11,['1'],TMT-B_1_4linestimulus8.png,TMT-B_1_4greenlinestimulus8.png,TMT-B_1_4redlinestimulus8.png,10,,,,,,,,,,,,,,,,,,,,,0,10,10,10,,,,,,,,,,,,,,,,,,,,,,,,,,,,70.56479799999215,None,['1'],1,[-0.024934000000939704],70.56479799999215,None,,,,001,2021_Nov_17_1805,TMTAB,2021.2.3,None,
12,['2'],TMT-B_1_4linestimulus9.png,TMT-B_1_4greenlinestimulus9.png,TMT-B_1_4redlinestimulus9.png,10,,,,,,,,,,,,,,,,,,,,,0,11,11,11,,,,,,,,,,,,,,,,,,,,,,,,,,,,70.70395049999934,None,['2'],1,[-0.10144559999753255],70.70395049999934,None,,,,001,2021_Nov_17_1805,TMTAB,2021.2.3,None,
13,['1'],TMT-B_1_4linestimulus10.png,TMT-B_1_4greenlinestimulus10.png,TMT-B_1_4redlinestimulus10.png,1,,,,,,,,,,,,,,,,,,,,,0,12,12,12,,,,,,,,,,,,,,,,,,,,,,,,,,,,70.84219159999338,None,['3'],0,[-0.1203148000058718],70.84219159999338,None,,,,001,2021_Nov_17_1805,TMTAB,2021.2.3,None,
14,['3'],TMT-B_1_4linestimulus11.png,TMT-B_1_4greenlinestimulus11.png,TMT-B_1_4redlinestimulus11.png,None,,,,,,,,,,,,,,,,,,,,,0,13,13,13,,,,,,,,,,,,,,,,,,,,,,,,,,,,70.97988400000031,None,"['1', '2']",0,"[-0.09527659999730531, -0.03854270000010729]",70.97988400000031,None,,,,001,2021_Nov_17_1805,TMTAB,2021.2.3,None,
15,['2'],TMT-B_1_4linestimulus12.png,TMT-B_1_4greenlinestimulus12.png,TMT-B_1_4redlinestimulus12.png,None,,,,,,,,,,,,,,,,,,,,,0,14,14,14,,,,,,,,,,,,,,,,,,,,,,,,,,,,71.11833019999904,None,['3'],0,[0.0007620000105816871],71.11833019999904,None,,,,001,2021_Nov_17_1805,TMTAB,2021.2.3,None,
16,['1'],TMT-B_1_4linestimulus13.png,TMT-B_1_4greenlinestimulus13.png,TMT-B_1_4redlinestimulus13.png,None,,,,,,,,,,,,,,,,,,,,,0,15,15,15,,,,,,,,,,,,,,,,,,,,,,,,,,,,71.2584838999901,None,['1'],1,[-0.014141399995423853],71.2584838999901,None,,,,001,2021_Nov_17_1805,TMTAB,2021.2.3,None,
17,['2'],TMT-B_1_4linestimulus14.png,TMT-B_1_4greenlinestimulus14.png,TMT-B_1_4redlinestimulus14.png,None,,,,,,,,,,,,,,,,,,,,,0,16,16,16,,,,,,,,,,,,,,,,,,,,,,,,,,,,71.3962232999911,None,['2'],1,[-0.05576469999505207],71.3962232999911,None,,,,001,2021_Nov_17_1805,TMTAB,2021.2.3,None,
18,['1'],TMT-B_1_4linestimulus15.png,TMT-B_1_4greenlinestimulus15.png,TMT-B_1_4redlinestimulus15.png,None,,,,,,,,,,,,,,,,,,,,,0,17,17,17,,,,,,,,,,,,,,,,,,,,,,,,,,,,71.53419330000179,None,['3'],0,[-0.09961429999384563],71.53419330000179,None,,,,001,2021_Nov_17_1805,TMTAB,2021.2.3,None,
19,['3'],TMT-B_1_4linestimulus16.png,TMT-B_1_4greenlinestimulus16.png,TMT-B_1_4redlinestimulus16.png,None,,,,,,,,,,,,,,,,,,,,,0,18,18,18,,,,,,,,,,,,,,,,,,,,,,,,,,,,71.6732362999901,None,"['1', '2']",0,"[-0.0959766000014497, -0.023789899991243146]",71.6732362999901,None,,,,001,2021_Nov_17_1805,TMTAB,2021.2.3,None,
20,['1'],TMT-B_1_4linestimulus17.png,TMT-B_1_4greenlinestimulus17.png,TMT-B_1_4redlinestimulus17.png,None,,,,,,,,,,,,,,,,,,,,,0,19,19,19,,,,,,,,,,,,,,,,,,,,,,,,,,,,71.81208619999234,None,['3'],0,[-0.03901509998831898],71.81208619999234,None,,,,001,2021_Nov_17_1805,TMTAB,2021.2.3,None,
21,['2'],TMT-B_1_4linestimulus18.png,TMT-B_1_4greenlinestimulus18.png,TMT-B_1_4redlinestimulus18.png,None,,,,,,,,,,,,,,,,,,,,,0,20,20,20,,,,,,,,,,,,,,,,,,,,,,,,,,,,71.95081270000082,None,['1'],0,[-0.04409260000102222],71.95081270000082,None,,,,001,2021_Nov_17_1805,TMTAB,2021.2.3,None,
22,['3'],TMT-B_1_4linestimulus19.png,TMT-B_1_4greenlinestimulus19.png,TMT-B_1_4redlinestimulus19.png,None,,,,,,,,,,,,,,,,,,,,,0,21,21,21,,,,,,,,,,,,,,,,,,,,,,,,,,,,72.08693059999496,None,"['2', '3']",0,"[-0.10278899999684654, -0.0008566000033169985]",72.08693059999496,None,,,,001,2021_Nov_17_1805,TMTAB,2021.2.3,None,
23,['1'],TMT-B_1_4linestimulus20.png,TMT-B_1_4greenlinestimulus20.png,TMT-B_1_4redlinestimulus20.png,None,,,,,,,,,,,,,,,,,,,,,0,22,22,22,,,,,,,,,,,,,,,,,,,,,,,,,,,,72.22701239999151,None,['1'],1,[0.01971409999532625],72.22701239999151,None,,,,001,2021_Nov_17_1805,TMTAB,2021.2.3,None,
24,['2'],TMT-B_1_4linestimulus21.png,TMT-B_1_4greenlinestimulus21.png,TMT-B_1_4redlinestimulus21.png,None,,,,,,,,,,,,,,,,,,,,,0,23,23,23,,,,,,,,,,,,,,,,,,,,,,,,,,,,72.36501929999213,None,['2'],1,[-0.018111199999111705],72.36501929999213,None,,,,001,2021_Nov_17_1805,TMTAB,2021.2.3,None,
25,['3'],TMT-B_1_4linestimulus22.png,TMT-B_1_4greenlinestimulus22.png,TMT-B_1_4redlinestimulus22.png,None,,,,,,,,,,,,,,,,,,,,,0,24,24,24,,,,,,,,,,,,,,,,,,,,,,,,,,,,72.50283859999035,None,['3'],1,[-0.1002267000003485],72.50283859999035,None,,,,001,2021_Nov_17_1805,TMTAB,2021.2.3,None,
None,None,TMT-B_1_4linestimulus23.png,TMT-B_1_4greenlinestimulus23.png,TMT-B_1_4redlinestimulus23.png,None,,,,,,,,,,,,,,,,,,,,,0,25,25,25,,,,,,,,,,,,,,,,,,,,,,,,,,,,72.64250729999912,None,['1'],0,[0.09920339999371208],72.64250729999912,None,,,,001,2021_Nov_17_1805,TMTAB,2021.2.3,None,
1,['3'],TMT-B_1_5.png,TMT-B_1_5.png,TMT-B_1_5.png,10,,,,,,,,,,,,,,,,,,,,,,,,,0,0,0,0,,,,,,,,,72.79521929999464,None,,,,,,,,,,,,,,75.88219540000136,None,['1'],0,[1.9224964000022737],75.88219540000136,None,,,,001,2021_Nov_17_1805,TMTAB,2021.2.3,None,
2,['2'],TMT-B_1_5.png,TMT-B_1_5firstgreen.png,TMT-B_1_5firstred.png,10,,,,,,,,,,,,,,,,,,,,,,,,,0,1,1,1,,,,,,,,,,,,,,,,,,,,,,,,78.01480049999373,None,['2'],1,[-0.07182290000491776],78.01480049999373,None,,,,001,2021_Nov_17_1805,TMTAB,2021.2.3,None,
3,['3'],TMT-B_1_5linestimulus0.png,TMT-B_1_5greenlinestimulus0.png,TMT-B_1_5redlinestimulus0.png,10,,,,,,,,,,,,,,,,,,,,,,,,,0,2,2,2,,,,,,,,,,,,,,,,,,,,,,,,78.15345630000229,None,['3'],1,[-0.08715180000581313],78.15345630000229,None,,,,001,2021_Nov_17_1805,TMTAB,2021.2.3,None,
4,['2'],TMT-B_1_5linestimulus1.png,TMT-B_1_5greenlinestimulus1.png,TMT-B_1_5redlinestimulus1.png,10,,,,,,,,,,,,,,,,,,,,,,,,,0,3,3,3,,,,,,,,,,,,,,,,,,,,,,,,78.2923499999888,None,['1'],0,[-0.01590940001187846],78.2923499999888,None,,,,001,2021_Nov_17_1805,TMTAB,2021.2.3,None,
5,['3'],TMT-B_1_5linestimulus2.png,TMT-B_1_5greenlinestimulus2.png,TMT-B_1_5redlinestimulus2.png,10,,,,,,,,,,,,,,,,,,,,,,,,,0,4,4,4,,,,,,,,,,,,,,,,,,,,,,,,78.43151959999523,None,['2'],0,[-0.06817210000008345],78.43151959999523,None,,,,001,2021_Nov_17_1805,TMTAB,2021.2.3,None,
6,['1'],TMT-B_1_5linestimulus3.png,TMT-B_1_5greenlinestimulus3.png,TMT-B_1_5redlinestimulus3.png,10,,,,,,,,,,,,,,,,,,,,,,,,,0,5,5,5,,,,,,,,,,,,,,,,,,,,,,,,78.56926979999116,None,['3'],0,[-0.09435100000700913],78.56926979999116,None,,,,001,2021_Nov_17_1805,TMTAB,2021.2.3,None,
7,['3'],TMT-B_1_5linestimulus4.png,TMT-B_1_5greenlinestimulus4.png,TMT-B_1_5redlinestimulus4.png,10,,,,,,,,,,,,,,,,,,,,,,,,,0,6,6,6,,,,,,,,,,,,,,,,,,,,,,,,78.70812789999763,None,"['1', '2']",0,"[-0.049625599989667535, -0.01268329999584239]",78.70812789999763,None,,,,001,2021_Nov_17_1805,TMTAB,2021.2.3,None,
8,['1'],TMT-B_1_5linestimulus5.png,TMT-B_1_5greenlinestimulus5.png,TMT-B_1_5redlinestimulus5.png,10,,,,,,,,,,,,,,,,,,,,,,,,,0,7,7,7,,,,,,,,,,,,,,,,,,,,,,,,78.84626259999641,None,['3'],0,[-0.04330869999830611],78.84626259999641,None,,,,001,2021_Nov_17_1805,TMTAB,2021.2.3,None,
9,['2'],TMT-B_1_5linestimulus6.png,TMT-B_1_5greenlinestimulus6.png,TMT-B_1_5redlinestimulus6.png,10,,,,,,,,,,,,,,,,,,,,,,,,,0,8,8,8,,,,,,,,,,,,,,,,,,,,,,,,78.98620269999083,None,['1'],0,[0.001368400000501424],78.98620269999083,None,,,,001,2021_Nov_17_1805,TMTAB,2021.2.3,None,
10,['3'],TMT-B_1_5linestimulus7.png,TMT-B_1_5greenlinestimulus7.png,TMT-B_1_5redlinestimulus7.png,10,,,,,,,,,,,,,,,,,,,,,,,,,0,9,9,9,,,,,,,,,,,,,,,,,,,,,,,,79.12331619999895,None,['2'],0,[-0.09031600000162143],79.12331619999895,None,,,,001,2021_Nov_17_1805,TMTAB,2021.2.3,None,
11,['1'],TMT-B_1_5linestimulus8.png,TMT-B_1_5greenlinestimulus8.png,TMT-B_1_5redlinestimulus8.png,10,,,,,,,,,,,,,,,,,,,,,,,,,0,10,10,10,,,,,,,,,,,,,,,,,,,,,,,,79.26253079999879,None,['3'],0,[-0.11356610000075307],79.26253079999879,None,,,,001,2021_Nov_17_1805,TMTAB,2021.2.3,None,
12,['2'],TMT-B_1_5linestimulus9.png,TMT-B_1_5greenlinestimulus9.png,TMT-B_1_5redlinestimulus9.png,10,,,,,,,,,,,,,,,,,,,,,,,,,0,11,11,11,,,,,,,,,,,,,,,,,,,,,,,,79.40045049999026,None,"['1', '2']",0,"[-0.08193270000629127, -0.02028440000140108]",79.40045049999026,None,,,,001,2021_Nov_17_1805,TMTAB,2021.2.3,None,
13,['3'],TMT-B_1_5linestimulus10.png,TMT-B_1_5greenlinestimulus10.png,TMT-B_1_5redlinestimulus10.png,1,,,,,,,,,,,,,,,,,,,,,,,,,0,12,12,12,,,,,,,,,,,,,,,,,,,,,,,,79.53739349999523,None,['3'],1,[-0.0328289000026416],79.53739349999523,None,,,,001,2021_Nov_17_1805,TMTAB,2021.2.3,None,
14,['2'],TMT-B_1_5linestimulus11.png,TMT-B_1_5greenlinestimulus11.png,TMT-B_1_5redlinestimulus11.png,None,,,,,,,,,,,,,,,,,,,,,,,,,0,13,13,13,,,,,,,,,,,,,,,,,,,,,,,,79.67521059999126,None,['1'],0,[0.022203700005775318],79.67521059999126,None,,,,001,2021_Nov_17_1805,TMTAB,2021.2.3,None,
15,['3'],TMT-B_1_5linestimulus12.png,TMT-B_1_5greenlinestimulus12.png,TMT-B_1_5redlinestimulus12.png,None,,,,,,,,,,,,,,,,,,,,,,,,,0,14,14,14,,,,,,,,,,,,,,,,,,,,,,,,79.81484300000011,None,['2'],0,[-0.044381400002748705],79.81484300000011,None,,,,001,2021_Nov_17_1805,TMTAB,2021.2.3,None,
16,['1'],TMT-B_1_5linestimulus13.png,TMT-B_1_5greenlinestimulus13.png,TMT-B_1_5redlinestimulus13.png,None,,,,,,,,,,,,,,,,,,,,,,,,,0,15,15,15,,,,,,,,,,,,,,,,,,,,,,,,79.95357549999608,None,['3'],0,[-0.059245799988275394],79.95357549999608,None,,,,001,2021_Nov_17_1805,TMTAB,2021.2.3,None,
17,['2'],TMT-B_1_5linestimulus14.png,TMT-B_1_5greenlinestimulus14.png,TMT-B_1_5redlinestimulus14.png,None,,,,,,,,,,,,,,,,,,,,,,,,,0,16,16,16,,,,,,,,,,,,,,,,,,,,,,,,80.09112409999943,None,['1'],0,[-0.04156840000359807],80.09112409999943,None,,,,001,2021_Nov_17_1805,TMTAB,2021.2.3,None,
18,['1'],TMT-B_1_5linestimulus15.png,TMT-B_1_5greenlinestimulus15.png,TMT-B_1_5redlinestimulus15.png,None,,,,,,,,,,,,,,,,,,,,,,,,,0,17,17,17,,,,,,,,,,,,,,,,,,,,,,,,80.22933950000152,None,['2'],0,[-0.11172509999596514],80.22933950000152,None,,,,001,2021_Nov_17_1805,TMTAB,2021.2.3,None,
19,['3'],TMT-B_1_5linestimulus16.png,TMT-B_1_5greenlinestimulus16.png,TMT-B_1_5redlinestimulus16.png,None,,,,,,,,,,,,,,,,,,,,,,,,,0,18,18,18,,,,,,,,,,,,,,,,,,,,,,,,80.3686369999923,None,['3'],1,[-0.0677640999929281],80.3686369999923,None,,,,001,2021_Nov_17_1805,TMTAB,2021.2.3,None,
20,['2'],TMT-B_1_5linestimulus17.png,TMT-B_1_5greenlinestimulus17.png,TMT-B_1_5redlinestimulus17.png,None,,,,,,,,,,,,,,,,,,,,,,,,,0,19,19,19,,,,,,,,,,,,,,,,,,,,,,,,80.50567689999298,None,['1'],0,[-0.03862459999800194],80.50567689999298,None,,,,001,2021_Nov_17_1805,TMTAB,2021.2.3,None,
21,['1'],TMT-B_1_5linestimulus18.png,TMT-B_1_5greenlinestimulus18.png,TMT-B_1_5redlinestimulus18.png,None,,,,,,,,,,,,,,,,,,,,,,,,,0,20,20,20,,,,,,,,,,,,,,,,,,,,,,,,80.64399050000065,None,['2'],0,[-0.08209070000157226],80.64399050000065,None,,,,001,2021_Nov_17_1805,TMTAB,2021.2.3,None,
22,['2'],TMT-B_1_5linestimulus19.png,TMT-B_1_5greenlinestimulus19.png,TMT-B_1_5redlinestimulus19.png,None,,,,,,,,,,,,,,,,,,,,,,,,,0,21,21,21,,,,,,,,,,,,,,,,,,,,,,,,80.78240529999312,None,['3'],0,[-0.017132799999671988],80.78240529999312,None,,,,001,2021_Nov_17_1805,TMTAB,2021.2.3,None,
23,['3'],TMT-B_1_5linestimulus20.png,TMT-B_1_5greenlinestimulus20.png,TMT-B_1_5redlinestimulus20.png,None,,,,,,,,,,,,,,,,,,,,,,,,,0,22,22,22,,,,,,,,,,,,,,,,,,,,,,,,80.91980769998918,None,['1'],0,[-0.10469490000104997],80.91980769998918,None,,,,001,2021_Nov_17_1805,TMTAB,2021.2.3,None,
24,['2'],TMT-B_1_5linestimulus21.png,TMT-B_1_5greenlinestimulus21.png,TMT-B_1_5redlinestimulus21.png,None,,,,,,,,,,,,,,,,,,,,,,,,,0,23,23,23,,,,,,,,,,,,,,,,,,,,,,,,81.04849229998945,None,['1'],0,[0.024306300008902326],81.04849229998945,None,,,,001,2021_Nov_17_1805,TMTAB,2021.2.3,None,
25,['1'],TMT-B_1_5linestimulus22.png,TMT-B_1_5greenlinestimulus22.png,TMT-B_1_5redlinestimulus22.png,None,,,,,,,,,,,,,,,,,,,,,,,,,0,24,24,24,,,,,,,,,,,,,,,,,,,,,,,,81.18427250000241,None,['3'],0,[0.05838680001033936],81.18427250000241,None,,,,001,2021_Nov_17_1805,TMTAB,2021.2.3,None,
None,None,TMT-B_1_5linestimulus23.png,TMT-B_1_5greenlinestimulus23.png,TMT-B_1_5redlinestimulus23.png,None,,,,,,,,,,,,,,,,,,,,,,,,,0,25,25,25,,,,,,,,,,,,,,,,,,,,,,,,81.45921609998913,None,['1'],0,[-0.060254099997109734],81.45921609998913,None,,,,001,2021_Nov_17_1805,TMTAB,2021.2.3,None,
,,,,,,,,,,,,,,,,,,,,,,,,,,,,,,,,,,,,,,,,,,,,,,,,,,,,,,,,,,,,,,,,81.48061129999405,None,,,,,,,
