NumberLetter,corrAns,StimFile,Correct_StimFile,False_StimFile,DurationTrial,restartpractice.thisRepN,restartpractice.thisTrialN,restartpractice.thisN,restartpractice.thisIndex,trials_practice.thisRepN,trials_practice.thisTrialN,trials_practice.thisN,trials_practice.thisIndex,trials.thisRepN,trials.thisTrialN,trials.thisN,trials.thisIndex,trials_2.thisRepN,trials_2.thisTrialN,trials_2.thisN,trials_2.thisIndex,trials_3.thisRepN,trials_3.thisTrialN,trials_3.thisN,trials_3.thisIndex,trials_4.thisRepN,trials_4.thisTrialN,trials_4.thisN,trials_4.thisIndex,trials_5.thisRepN,trials_5.thisTrialN,trials_5.thisN,trials_5.thisIndex,trials_6.thisRepN,trials_6.thisTrialN,trials_6.thisN,trials_6.thisIndex,trials_7.thisRepN,trials_7.thisTrialN,trials_7.thisN,trials_7.thisIndex,trials_8.thisRepN,trials_8.thisTrialN,trials_8.thisN,trials_8.thisIndex,Instruct.started,Instruct.stopped,image_2.started,image_2.stopped,key_resp_6.keys,key_resp_6.rt,key_resp_6.started,key_resp_6.stopped,polygon.started,polygon.stopped,Stim_practice.started,Stim_practice.stopped,key_resp_practice.keys,key_resp_practice.corr,key_resp_practice.rt,key_resp_practice.started,key_resp_practice.stopped,text_5.started,text_5.stopped,key_resp_5.keys,key_resp_5.rt,key_resp_5.started,key_resp_5.stopped,Stim.started,Stim.stopped,key_resp_2.keys,key_resp_2.corr,key_resp_2.rt,key_resp_2.started,key_resp_2.stopped,text.started,text.stopped,participant,session,date,expName,psychopyVersion,frameRate,
,,,,,,,,,,,,,,,,,,,,,,,,,,,,,,,,,,,,,,,,,,,,,,12.927760499995202,None,13.598494000005303,None,3,0.49448320000374224,13.598494000005303,None,,,,,,,,,,,,,,,,,,,,,,,,,,001,2021_Nov_17_1847,TMTAB,2021.2.3,None,
1,2,TMTstop-Control_1_practice.png,TMTstop-Control_1_practice.png,TMTstop-Control_1_practice.png,10,0,0,0,0,0,0,0,0,,,,,,,,,,,,,,,,,,,,,,,,,,,,,,,,,,,,,,,,,14.114663400003337,None,17.29678309999872,None,1,0,0.5997549999883631,17.29678309999872,None,,,,,,,,,,,,,,,,,001,2021_Nov_17_1847,TMTAB,2021.2.3,None,
2,3,TMTstop-Control_1_practice.png,TMTstop-Control_1_practicefirstgreen.png,TMTstop-Control_1_practicefirstred.png,10,0,0,0,0,0,1,1,1,,,,,,,,,,,,,,,,,,,,,,,,,,,,,,,,,,,,,,,,,,,18.111801599996397,None,1,0,0.23129799999878742,18.111801599996397,None,,,,,,,,,,,,,,,,,001,2021_Nov_17_1847,TMTAB,2021.2.3,None,
3,2,TMTstop-Control_1_practicelinestimulus0.png,TMTstop-Control_1_practicegreenlinestimulus0.png,TMTstop-Control_1_practiceredlinestimulus0.png,10,0,0,0,0,0,2,2,2,,,,,,,,,,,,,,,,,,,,,,,,,,,,,,,,,,,,,,,,,,,18.52677009999752,None,2,1,1.2783593000058318,18.52677009999752,None,,,,,,,,,,,,,,,,,001,2021_Nov_17_1847,TMTAB,2021.2.3,None,
4,1,TMTstop-Control_1_practicelinestimulus1.png,TMTstop-Control_1_practicegreenlinestimulus1.png,TMTstop-Control_1_practiceredlinestimulus1.png,10,0,0,0,0,0,3,3,3,,,,,,,,,,,,,,,,,,,,,,,,,,,,,,,,,,,,,,,,,,,19.91785919999529,None,1,1,0.4988554000010481,19.91785919999529,None,,,,,,,,,,,,,,,,,001,2021_Nov_17_1847,TMTAB,2021.2.3,None,
5,2,TMTstop-Control_1_practicelinestimulus2.png,TMTstop-Control_1_practicegreenlinestimulus2.png,TMTstop-Control_1_practiceredlinestimulus2.png,10,0,0,0,0,0,4,4,4,,,,,,,,,,,,,,,,,,,,,,,,,,,,,,,,,,,,,,,,,,,20.603038800007198,None,3,0,0.091239500005031,20.603038800007198,None,,,,,,,,,,,,,,,,,001,2021_Nov_17_1847,TMTAB,2021.2.3,None,
6,1,TMTstop-Control_1_practicelinestimulus3.png,TMTstop-Control_1_practicegreenlinestimulus3.png,TMTstop-Control_1_practiceredlinestimulus3.png,10,0,0,0,0,0,5,5,5,,,,,,,,,,,,,,,,,,,,,,,,,,,,,,,,,,,,,,,,,,,20.880006599996705,None,3,0,0.08927250000124332,20.880006599996705,None,,,,,,,,,,,,,,,,,001,2021_Nov_17_1847,TMTAB,2021.2.3,None,
7,2,TMTstop-Control_1_practicelinestimulus4.png,TMTstop-Control_1_practicegreenlinestimulus4.png,TMTstop-Control_1_practiceredlinestimulus4.png,10,0,0,0,0,0,6,6,6,,,,,,,,,,,,,,,,,,,,,,,,,,,,,,,,,,,,,,,,,,,21.15689569999813,None,3,0,0.09346749998803716,21.15689569999813,None,,,,,,,,,,,,,,,,,001,2021_Nov_17_1847,TMTAB,2021.2.3,None,
8,1,TMTstop-Control_1_practicelinestimulus5.png,TMTstop-Control_1_practicegreenlinestimulus5.png,TMTstop-Control_1_practiceredlinestimulus5.png,10,0,0,0,0,0,7,7,7,,,,,,,,,,,,,,,,,,,,,,,,,,,,,,,,,,,,,,,,,,,21.433672099999967,None,3,0,0.09566979999362957,21.433672099999967,None,,,,,,,,,,,,,,,,,001,2021_Nov_17_1847,TMTAB,2021.2.3,None,
9,3,TMTstop-Control_1_practicelinestimulus6.png,TMTstop-Control_1_practicegreenlinestimulus6.png,TMTstop-Control_1_practiceredlinestimulus6.png,10,0,0,0,0,0,8,8,8,,,,,,,,,,,,,,,,,,,,,,,,,,,,,,,,,,,,,,,,,,,21.71057419999852,None,3,1,0.08007340000767726,21.71057419999852,None,,,,,,,,,,,,,,,,,001,2021_Nov_17_1847,TMTAB,2021.2.3,None,
10,1,TMTstop-Control_1_practicelinestimulus7.png,TMTstop-Control_1_practicegreenlinestimulus7.png,TMTstop-Control_1_practiceredlinestimulus7.png,10,0,0,0,0,0,9,9,9,,,,,,,,,,,,,,,,,,,,,,,,,,,,,,,,,,,,,,,,,,,21.987119500001427,None,2,0,0.018732299999101087,21.987119500001427,None,,,,,,,,,,,,,,,,,001,2021_Nov_17_1847,TMTAB,2021.2.3,None,
11,3,TMTstop-Control_1_practicelinestimulus8.png,TMTstop-Control_1_practicegreenlinestimulus8.png,TMTstop-Control_1_practiceredlinestimulus8.png,10,0,0,0,0,0,10,10,10,,,,,,,,,,,,,,,,,,,,,,,,,,,,,,,,,,,,,,,,,,,22.10210499999812,None,1,0,0.12652499999967404,22.10210499999812,None,,,,,,,,,,,,,,,,,001,2021_Nov_17_1847,TMTAB,2021.2.3,None,
12,1,TMTstop-Control_1_practicelinestimulus9.png,TMTstop-Control_1_practicegreenlinestimulus9.png,TMTstop-Control_1_practiceredlinestimulus9.png,10,0,0,0,0,0,11,11,11,,,,,,,,,,,,,,,,,,,,,,,,,,,,,,,,,,,,,,,,,,,22.326167299994268,None,3,0,0.04276840000238735,22.326167299994268,None,,,,,,,,,,,,,,,,,001,2021_Nov_17_1847,TMTAB,2021.2.3,None,
None,None,TMTstop-Control_1_practicelinestimulus10.png,TMTstop-Control_1_practicegreenlinestimulus10.png,TMTstop-Control_1_practiceredlinestimulus10.png,None,0,0,0,0,0,12,12,12,,,,,,,,,,,,,,,,,,,,,,,,,,,,,,,,,,,,,,,,,,,22.46874399999797,None,1,0,0.030267399997683242,22.46874399999797,None,,,,,,,,,,,,,,,,,001,2021_Nov_17_1847,TMTAB,2021.2.3,None,
,,,,,,0,0,0,0,,,,,,,,,,,,,,,,,,,,,,,,,,,,,,,,,,,,,,,,,,,,,,,,,,,,,,22.616896499996074,None,3,0.02978189999703318,22.616896499996074,None,,,,,,,,,,,001,2021_Nov_17_1847,TMTAB,2021.2.3,None,
1,['2'],TMTstop-control_1_1.png,TMTstop-control_1_1.png,TMTstop-control_1_1.png,10,,,,,,,,,0,0,0,0,,,,,,,,,,,,,,,,,,,,,,,,,,,,,,,,,,,,,22.740956099994946,None,,,,,,,,,,,,,,25.80564289999893,None,['1'],0,[0.4782954999973299],25.80564289999893,None,,,,001,2021_Nov_17_1847,TMTAB,2021.2.3,None,
2,['1'],TMTstop-control_1_1.png,TMTstop-control_1_1firstgreen.png,TMTstop-control_1_1firstred.png,10,,,,,,,,,0,1,1,1,,,,,,,,,,,,,,,,,,,,,,,,,,,,,,,,,,,,,,,,,,,,,,,,,,,,26.46377400000347,None,"['2', '3']",0,"[-0.11466639999707695, -0.016364099996280856]",26.46377400000347,None,,,,001,2021_Nov_17_1847,TMTAB,2021.2.3,None,
3,['2'],TMTstop-control_1_1linestimulus0.png,TMTstop-control_1_1greenlinestimulus0.png,TMTstop-control_1_1redlinestimulus0.png,10,,,,,,,,,0,2,2,2,,,,,,,,,,,,,,,,,,,,,,,,,,,,,,,,,,,,,,,,,,,,,,,,,,,,26.60235699999612,None,['1'],0,[-0.041497300000628456],26.60235699999612,None,,,,001,2021_Nov_17_1847,TMTAB,2021.2.3,None,
4,['3'],TMTstop-control_1_1linestimulus1.png,TMTstop-control_1_1greenlinestimulus1.png,TMTstop-control_1_1redlinestimulus1.png,10,,,,,,,,,0,3,3,3,,,,,,,,,,,,,,,,,,,,,,,,,,,,,,,,,,,,,,,,,,,,,,,,,,,,26.741084399996907,None,"['2', '3']",0,"[-0.1345263000112027, -0.030555500008631498]",26.741084399996907,None,,,,001,2021_Nov_17_1847,TMTAB,2021.2.3,None,
5,['2'],TMTstop-control_1_1linestimulus2.png,TMTstop-control_1_1greenlinestimulus2.png,TMTstop-control_1_1redlinestimulus2.png,10,,,,,,,,,0,4,4,4,,,,,,,,,,,,,,,,,,,,,,,,,,,,,,,,,,,,,,,,,,,,,,,,,,,,26.879096999997273,None,['1'],0,[-0.05359489998954814],26.879096999997273,None,,,,001,2021_Nov_17_1847,TMTAB,2021.2.3,None,
6,['1'],TMTstop-control_1_1linestimulus3.png,TMTstop-control_1_1greenlinestimulus3.png,TMTstop-control_1_1redlinestimulus3.png,10,,,,,,,,,0,5,5,5,,,,,,,,,,,,,,,,,,,,,,,,,,,,,,,,,,,,,,,,,,,,,,,,,,,,27.018122499997844,None,"['2', '3']",0,"[-0.12002810000558384, -0.031519800002570264]",27.018122499997844,None,,,,001,2021_Nov_17_1847,TMTAB,2021.2.3,None,
7,['3'],TMTstop-control_1_1linestimulus4.png,TMTstop-control_1_1greenlinestimulus4.png,TMTstop-control_1_1redlinestimulus4.png,10,,,,,,,,,0,6,6,6,,,,,,,,,,,,,,,,,,,,,,,,,,,,,,,,,,,,,,,,,,,,,,,,,,,,27.156196399999317,None,"['1', '2']",0,"[-0.05467079998925328, -0.011887200002092868]",27.156196399999317,None,,,,001,2021_Nov_17_1847,TMTAB,2021.2.3,None,
8,['2'],TMTstop-control_1_1linestimulus4.png,TMTstop-control_1_1greenlinestimulus5.png,TMTstop-control_1_1redlinestimulus5.png,10,,,,,,,,,0,7,7,7,,,,,,,,,,,,,,,,,,,,,,,,,,,,,,,,,,,,,,,,,,,,,,,,,,,,27.294459199998528,None,['3'],0,[-0.058645699988119304],27.294459199998528,None,,,,001,2021_Nov_17_1847,TMTAB,2021.2.3,None,
9,['3'],TMTstop-control_1_1linestimulus6.png,TMTstop-control_1_1greenlinestimulus6.png,TMTstop-control_1_1redlinestimulus6.png,10,,,,,,,,,0,8,8,8,,,,,,,,,,,,,,,,,,,,,,,,,,,,,,,,,,,,,,,,,,,,,,,,,,,,27.432770500003244,None,"['1', '2']",0,"[-0.08260039999731816, -0.03272519999882206]",27.432770500003244,None,,,,001,2021_Nov_17_1847,TMTAB,2021.2.3,None,
10,['2'],TMTstop-control_1_1linestimulus7.png,TMTstop-control_1_1greenlinestimulus7.png,TMTstop-control_1_1redlinestimulus7.png,10,,,,,,,,,0,9,9,9,,,,,,,,,,,,,,,,,,,,,,,,,,,,,,,,,,,,,,,,,,,,,,,,,,,,27.57113520000712,None,['3'],0,[-0.09704409999540076],27.57113520000712,None,,,,001,2021_Nov_17_1847,TMTAB,2021.2.3,None,
11,['3'],TMTstop-control_1_1linestimulus8.png,TMTstop-control_1_1greenlinestimulus8.png,TMTstop-control_1_1redlinestimulus8.png,10,,,,,,,,,0,10,10,10,,,,,,,,,,,,,,,,,,,,,,,,,,,,,,,,,,,,,,,,,,,,,,,,,,,,27.70912440000393,None,"['1', '2']",0,"[-0.11558240000158548, -0.06350439999368973]",27.70912440000393,None,,,,001,2021_Nov_17_1847,TMTAB,2021.2.3,None,
12,['1'],TMTstop-control_1_1linestimulus9.png,TMTstop-control_1_1greenlinestimulus9.png,TMTstop-control_1_1redlinestimulus9.png,10,,,,,,,,,0,11,11,11,,,,,,,,,,,,,,,,,,,,,,,,,,,,,,,,,,,,,,,,,,,,,,,,,,,,27.84820029999537,None,"['3', '1']",0,"[-0.1333225999987917, -0.005771500000264496]",27.84820029999537,None,,,,001,2021_Nov_17_1847,TMTAB,2021.2.3,None,
13,['3'],TMTstop-control_1_1linestimulus10.png,TMTstop-control_1_1greenlinestimulus10.png,TMTstop-control_1_1redlinestimulus10.png,1,,,,,,,,,0,12,12,12,,,,,,,,,,,,,,,,,,,,,,,,,,,,,,,,,,,,,,,,,,,,,,,,,,,,27.987559500004863,None,"['2', '3']",0,"[-0.1056071999919368, -0.03132379999442492]",27.987559500004863,None,,,,001,2021_Nov_17_1847,TMTAB,2021.2.3,None,
14,['1'],TMTstop-control_1_1linestimulus11.png,TMTstop-control_1_1greenlinestimulus11.png,TMTstop-control_1_1redlinestimulus11.png,None,,,,,,,,,0,13,13,13,,,,,,,,,,,,,,,,,,,,,,,,,,,,,,,,,,,,,,,,,,,,,,,,,,,,28.124521599995205,None,['1'],1,[-0.053941000005579554],28.124521599995205,None,,,,001,2021_Nov_17_1847,TMTAB,2021.2.3,None,
15,['3'],TMTstop-control_1_1linestimulus12.png,TMTstop-control_1_1greenlinestimulus12.png,TMTstop-control_1_1redlinestimulus12.png,None,,,,,,,,,0,14,14,14,,,,,,,,,,,,,,,,,,,,,,,,,,,,,,,,,,,,,,,,,,,,,,,,,,,,28.26296629999706,None,"['2', '3']",0,"[-0.1301252000121167, -0.060797600002842955]",28.26296629999706,None,,,,001,2021_Nov_17_1847,TMTAB,2021.2.3,None,
16,['1'],TMTstop-control_1_1linestimulus13.png,TMTstop-control_1_1greenlinestimulus13.png,TMTstop-control_1_1redlinestimulus13.png,None,,,,,,,,,0,15,15,15,,,,,,,,,,,,,,,,,,,,,,,,,,,,,,,,,,,,,,,,,,,,,,,,,,,,28.402113000003737,None,"['1', '2']",0,"[-0.07371779999812134, -0.027639799998723902]",28.402113000003737,None,,,,001,2021_Nov_17_1847,TMTAB,2021.2.3,None,
17,['2'],TMTstop-control_1_1linestimulus14.png,TMTstop-control_1_1greenlinestimulus14.png,TMTstop-control_1_1redlinestimulus14.png,None,,,,,,,,,0,16,16,16,,,,,,,,,,,,,,,,,,,,,,,,,,,,,,,,,,,,,,,,,,,,,,,,,,,,28.540015399994445,None,['3'],0,[-0.09120059999986552],28.540015399994445,None,,,,001,2021_Nov_17_1847,TMTAB,2021.2.3,None,
18,['1'],TMTstop-control_1_1linestimulus15.png,TMTstop-control_1_1greenlinestimulus15.png,TMTstop-control_1_1redlinestimulus15.png,None,,,,,,,,,0,17,17,17,,,,,,,,,,,,,,,,,,,,,,,,,,,,,,,,,,,,,,,,,,,,,,,,,,,,28.678199600006337,None,['1'],1,[0.009871699992800131],28.678199600006337,None,,,,001,2021_Nov_17_1847,TMTAB,2021.2.3,None,
19,['3'],TMTstop-control_1_1linestimulus16.png,TMTstop-control_1_1greenlinestimulus16.png,TMTstop-control_1_1redlinestimulus16.png,None,,,,,,,,,0,18,18,18,,,,,,,,,,,,,,,,,,,,,,,,,,,,,,,,,,,,,,,,,,,,,,,,,,,,28.81674419999763,None,['3'],1,[-0.03842000001168344],28.81674419999763,None,,,,001,2021_Nov_17_1847,TMTAB,2021.2.3,None,
20,['1'],TMTstop-control_1_1linestimulus17.png,TMTstop-control_1_1greenlinestimulus17.png,TMTstop-control_1_1redlinestimulus17.png,None,,,,,,,,,0,19,19,19,,,,,,,,,,,,,,,,,,,,,,,,,,,,,,,,,,,,,,,,,,,,,,,,,,,,28.955339599997387,None,"['2', '1']",0,"[-0.13248169999860693, -0.00910450000083074]",28.955339599997387,None,,,,001,2021_Nov_17_1847,TMTAB,2021.2.3,None,
21,['3'],TMTstop-control_1_1linestimulus18.png,TMTstop-control_1_1greenlinestimulus18.png,TMTstop-control_1_1redlinestimulus18.png,None,,,,,,,,,0,20,20,20,,,,,,,,,,,,,,,,,,,,,,,,,,,,,,,,,,,,,,,,,,,,,,,,,,,,29.09332309999445,None,"['2', '3']",0,"[-0.08793309998873156, -0.010381899992353283]",29.09332309999445,None,,,,001,2021_Nov_17_1847,TMTAB,2021.2.3,None,
22,['1'],TMTstop-control_1_1linestimulus19.png,TMTstop-control_1_1greenlinestimulus19.png,TMTstop-control_1_1redlinestimulus19.png,None,,,,,,,,,0,21,21,21,,,,,,,,,,,,,,,,,,,,,,,,,,,,,,,,,,,,,,,,,,,,,,,,,,,,29.23144420000608,None,['1'],1,[-0.002526600001147017],29.23144420000608,None,,,,001,2021_Nov_17_1847,TMTAB,2021.2.3,None,
23,['3'],TMTstop-control_1_1linestimulus20.png,TMTstop-control_1_1greenlinestimulus20.png,TMTstop-control_1_1redlinestimulus20.png,None,,,,,,,,,0,22,22,22,,,,,,,,,,,,,,,,,,,,,,,,,,,,,,,,,,,,,,,,,,,,,,,,,,,,29.370155800002976,None,"['2', '3']",0,"[-0.09054679999826476, -0.0010578000074019656]",29.370155800002976,None,,,,001,2021_Nov_17_1847,TMTAB,2021.2.3,None,
24,['1'],TMTstop-control_1_1linestimulus21.png,TMTstop-control_1_1greenlinestimulus21.png,TMTstop-control_1_1redlinestimulus21.png,None,,,,,,,,,0,23,23,23,,,,,,,,,,,,,,,,,,,,,,,,,,,,,,,,,,,,,,,,,,,,,,,,,,,,29.50902650000353,None,['1'],1,[-0.016557800001464784],29.50902650000353,None,,,,001,2021_Nov_17_1847,TMTAB,2021.2.3,None,
25,['3'],TMTstop-control_1_1linestimulus22.png,TMTstop-control_1_1greenlinestimulus22.png,TMTstop-control_1_1redlinestimulus22.png,None,,,,,,,,,0,24,24,24,,,,,,,,,,,,,,,,,,,,,,,,,,,,,,,,,,,,,,,,,,,,,,,,,,,,29.646449899999425,None,"['2', '3']",0,"[-0.09876480000093579, -0.01225289999274537]",29.646449899999425,None,,,,001,2021_Nov_17_1847,TMTAB,2021.2.3,None,
None,None,TMTstop-control_1_1linestimulus23.png,TMTstop-control_1_1greenlinestimulus23.png,TMTstop-control_1_1redlinestimulus23.png,None,,,,,,,,,0,25,25,25,,,,,,,,,,,,,,,,,,,,,,,,,,,,,,,,,,,,,,,,,,,,,,,,,,,,29.769867199996952,None,['1'],0,[-0.014889600002788939],29.769867199996952,None,,,,001,2021_Nov_17_1847,TMTAB,2021.2.3,None,
A,['3'],TMTstop-control_1_a.png,TMTstop-control_1_a.png,TMTstop-control_1_a.png,10,,,,,,,,,,,,,0,0,0,0,,,,,,,,,,,,,,,,,,,,,,,,,,,,,,,,,29.788280099994154,None,,,,,,,,,,,,,,32.87561360000109,None,"['2', '3', '2']",0,"[-3.061654000004637, -2.980654900005902, -1.4440485999948578]",32.87561360000109,None,,,,001,2021_Nov_17_1847,TMTAB,2021.2.3,None,
B,['1'],TMTstop-control_1_a.png,TMTstop-control_1_afirstgreen.png,TMTstop-control_1_afirstred.png,10,,,,,,,,,,,,,0,1,1,1,,,,,,,,,,,,,,,,,,,,,,,,,,,,,,,,,,,,,,,,,,,,,,,,32.95446949999314,None,['2'],0,[0.7066313999966951],32.95446949999314,None,,,,001,2021_Nov_17_1847,TMTAB,2021.2.3,None,
C,['3'],TMTstop-control_1_alinestimulus0.png,TMTstop-control_1_agreenlinestimulus0.png,TMTstop-control_1_aredlinestimulus0.png,10,,,,,,,,,,,,,0,2,2,2,,,,,,,,,,,,,,,,,,,,,,,,,,,,,,,,,,,,,,,,,,,,,,,,33.79237130000547,None,['3'],1,[0.22689429999445565],33.79237130000547,None,,,,001,2021_Nov_17_1847,TMTAB,2021.2.3,None,
D,['2'],TMTstop-control_1_alinestimulus1.png,TMTstop-control_1_agreenlinestimulus1.png,TMTstop-control_1_aredlinestimulus1.png,10,,,,,,,,,,,,,0,3,3,3,,,,,,,,,,,,,,,,,,,,,,,,,,,,,,,,,,,,,,,,,,,,,,,,34.19821450000745,None,['1'],0,[0.074902700012899],34.19821450000745,None,,,,001,2021_Nov_17_1847,TMTAB,2021.2.3,None,
E,['1'],TMTstop-control_1_alinestimulus2.png,TMTstop-control_1_agreenlinestimulus2.png,TMTstop-control_1_aredlinestimulus2.png,10,,,,,,,,,,,,,0,4,4,4,,,,,,,,,,,,,,,,,,,,,,,,,,,,,,,,,,,,,,,,,,,,,,,,34.47610569999961,None,"['2', '3']",0,"[-0.12818099999276455, -0.02394659999117721]",34.47610569999961,None,,,,001,2021_Nov_17_1847,TMTAB,2021.2.3,None,
F,['3'],TMTstop-control_1_alinestimulus3.png,TMTstop-control_1_agreenlinestimulus3.png,TMTstop-control_1_aredlinestimulus3.png,10,,,,,,,,,,,,,0,5,5,5,,,,,,,,,,,,,,,,,,,,,,,,,,,,,,,,,,,,,,,,,,,,,,,,34.6132546000008,None,['1'],0,[0.04960220000066329],34.6132546000008,None,,,,001,2021_Nov_17_1847,TMTAB,2021.2.3,None,
G,['2'],TMTstop-control_1_alinestimulus4.png,TMTstop-control_1_agreenlinestimulus4.png,TMTstop-control_1_aredlinestimulus4.png,10,,,,,,,,,,,,,0,6,6,6,,,,,,,,,,,,,,,,,,,,,,,,,,,,,,,,,,,,,,,,,,,,,,,,34.75220089999493,None,['2'],1,[-0.06471120000060182],34.75220089999493,None,,,,001,2021_Nov_17_1847,TMTAB,2021.2.3,None,
H,['3'],TMTstop-control_1_alinestimulus5.png,TMTstop-control_1_agreenlinestimulus5.png,TMTstop-control_1_aredlinestimulus5.png,10,,,,,,,,,,,,,0,7,7,7,,,,,,,,,,,,,,,,,,,,,,,,,,,,,,,,,,,,,,,,,,,,,,,,34.89144609999494,None,['3'],1,[-0.0711347000033129],34.89144609999494,None,,,,001,2021_Nov_17_1847,TMTAB,2021.2.3,None,
I,['1'],TMTstop-control_1_alinestimulus6.png,TMTstop-control_1_agreenlinestimulus6.png,TMTstop-control_1_aredlinestimulus6.png,10,,,,,,,,,,,,,0,8,8,8,,,,,,,,,,,,,,,,,,,,,,,,,,,,,,,,,,,,,,,,,,,,,,,,35.02849280000373,None,['1'],1,[-0.03142220000154339],35.02849280000373,None,,,,001,2021_Nov_17_1847,TMTAB,2021.2.3,None,
J,['2'],TMTstop-control_1_alinestimulus7.png,TMTstop-control_1_agreenlinestimulus7.png,TMTstop-control_1_aredlinestimulus7.png,10,,,,,,,,,,,,,0,9,9,9,,,,,,,,,,,,,,,,,,,,,,,,,,,,,,,,,,,,,,,,,,,,,,,,35.166995000006864,None,"['2', '3']",0,"[-0.13309039999148808, -0.024383099997066893]",35.166995000006864,None,,,,001,2021_Nov_17_1847,TMTAB,2021.2.3,None,
K,['3'],TMTstop-control_1_alinestimulus8.png,TMTstop-control_1_agreenlinestimulus8.png,TMTstop-control_1_aredlinestimulus8.png,10,,,,,,,,,,,,,0,10,10,10,,,,,,,,,,,,,,,,,,,,,,,,,,,,,,,,,,,,,,,,,,,,,,,,35.30552860000171,None,['1'],0,[0.01680290000513196],35.30552860000171,None,,,,001,2021_Nov_17_1847,TMTAB,2021.2.3,None,
L,['1'],TMTstop-control_1_alinestimulus9.png,TMTstop-control_1_agreenlinestimulus9.png,TMTstop-control_1_aredlinestimulus9.png,10,,,,,,,,,,,,,0,11,11,11,,,,,,,,,,,,,,,,,,,,,,,,,,,,,,,,,,,,,,,,,,,,,,,,35.44333199999528,None,['2'],0,[-0.08919340001011733],35.44333199999528,None,,,,001,2021_Nov_17_1847,TMTAB,2021.2.3,None,
M,['3'],TMTstop-control_1_alinestimulus10.png,TMTstop-control_1_agreenlinestimulus10.png,TMTstop-control_1_aredlinestimulus10.png,1,,,,,,,,,,,,,0,12,12,12,,,,,,,,,,,,,,,,,,,,,,,,,,,,,,,,,,,,,,,,,,,,,,,,35.58227210000041,None,['3'],1,[-0.10005449999880511],35.58227210000041,None,,,,001,2021_Nov_17_1847,TMTAB,2021.2.3,None,
N,['2'],TMTstop-control_1_alinestimulus11.png,TMTstop-control_1_agreenlinestimulus11.png,TMTstop-control_1_aredlinestimulus11.png,None,,,,,,,,,,,,,0,13,13,13,,,,,,,,,,,,,,,,,,,,,,,,,,,,,,,,,,,,,,,,,,,,,,,,35.720989699999336,None,"['1', '2']",0,"[-0.051403499994194135, -0.02897080000548158]",35.720989699999336,None,,,,001,2021_Nov_17_1847,TMTAB,2021.2.3,None,
O,['1'],TMTstop-control_1_alinestimulus12.png,TMTstop-control_1_agreenlinestimulus12.png,TMTstop-control_1_aredlinestimulus12.png,None,,,,,,,,,,,,,0,14,14,14,,,,,,,,,,,,,,,,,,,,,,,,,,,,,,,,,,,,,,,,,,,,,,,,35.858510200007004,None,['3'],0,[-0.0313153000024613],35.858510200007004,None,,,,001,2021_Nov_17_1847,TMTAB,2021.2.3,None,
P,['3'],TMTstop-control_1_alinestimulus13.png,TMTstop-control_1_agreenlinestimulus13.png,TMTstop-control_1_aredlinestimulus13.png,None,,,,,,,,,,,,,0,15,15,15,,,,,,,,,,,,,,,,,,,,,,,,,,,,,,,,,,,,,,,,,,,,,,,,35.99677719999454,None,['1'],0,[-0.03724740000325255],35.99677719999454,None,,,,001,2021_Nov_17_1847,TMTAB,2021.2.3,None,
Q,['2'],TMTstop-control_1_alinestimulus14.png,TMTstop-control_1_agreenlinestimulus14.png,TMTstop-control_1_aredlinestimulus14.png,None,,,,,,,,,,,,,0,16,16,16,,,,,,,,,,,,,,,,,,,,,,,,,,,,,,,,,,,,,,,,,,,,,,,,36.13537659999565,None,"['2', '3']",0,"[-0.12670589999470394, -0.01525979999860283]",36.13537659999565,None,,,,001,2021_Nov_17_1847,TMTAB,2021.2.3,None,
R,['3'],TMTstop-control_1_alinestimulus15.png,TMTstop-control_1_agreenlinestimulus15.png,TMTstop-control_1_aredlinestimulus15.png,None,,,,,,,,,,,,,0,17,17,17,,,,,,,,,,,,,,,,,,,,,,,,,,,,,,,,,,,,,,,,,,,,,,,,36.27357309999934,None,['1'],0,[-0.005355300003429875],36.27357309999934,None,,,,001,2021_Nov_17_1847,TMTAB,2021.2.3,None,
S,['2'],TMTstop-control_1_alinestimulus16.png,TMTstop-control_1_agreenlinestimulus16.png,TMTstop-control_1_aredlinestimulus16.png,None,,,,,,,,,,,,,0,18,18,18,,,,,,,,,,,,,,,,,,,,,,,,,,,,,,,,,,,,,,,,,,,,,,,,36.41220960000646,None,['2'],1,[-0.07119089999468997],36.41220960000646,None,,,,001,2021_Nov_17_1847,TMTAB,2021.2.3,None,
T,['1'],TMTstop-control_1_alinestimulus17.png,TMTstop-control_1_agreenlinestimulus17.png,TMTstop-control_1_aredlinestimulus17.png,None,,,,,,,,,,,,,0,19,19,19,,,,,,,,,,,,,,,,,,,,,,,,,,,,,,,,,,,,,,,,,,,,,,,,36.55180539999856,None,['3'],0,[-0.11908769998990465],36.55180539999856,None,,,,001,2021_Nov_17_1847,TMTAB,2021.2.3,None,
U,['3'],TMTstop-control_1_alinestimulus18.png,TMTstop-control_1_agreenlinestimulus18.png,TMTstop-control_1_aredlinestimulus18.png,None,,,,,,,,,,,,,0,20,20,20,,,,,,,,,,,,,,,,,,,,,,,,,,,,,,,,,,,,,,,,,,,,,,,,36.68928180000512,None,"['1', '2']",0,"[-0.058446299997740425, -0.027489399988553487]",36.68928180000512,None,,,,001,2021_Nov_17_1847,TMTAB,2021.2.3,None,
V,['2'],TMTstop-control_1_alinestimulus19.png,TMTstop-control_1_agreenlinestimulus19.png,TMTstop-control_1_aredlinestimulus19.png,None,,,,,,,,,,,,,0,21,21,21,,,,,,,,,,,,,,,,,,,,,,,,,,,,,,,,,,,,,,,,,,,,,,,,36.8269716000068,None,['3'],0,[-0.035325899996678345],36.8269716000068,None,,,,001,2021_Nov_17_1847,TMTAB,2021.2.3,None,
W,['1'],TMTstop-control_1_alinestimulus20.png,TMTstop-control_1_agreenlinestimulus20.png,TMTstop-control_1_aredlinestimulus20.png,None,,,,,,,,,,,,,0,22,22,22,,,,,,,,,,,,,,,,,,,,,,,,,,,,,,,,,,,,,,,,,,,,,,,,36.96553030000359,None,['1'],1,[-0.03591569999116473],36.96553030000359,None,,,,001,2021_Nov_17_1847,TMTAB,2021.2.3,None,
X,['2'],TMTstop-control_1_alinestimulus21.png,TMTstop-control_1_agreenlinestimulus21.png,TMTstop-control_1_aredlinestimulus21.png,None,,,,,,,,,,,,,0,23,23,23,,,,,,,,,,,,,,,,,,,,,,,,,,,,,,,,,,,,,,,,,,,,,,,,37.103747300003306,None,"['2', '3']",0,"[-0.11210130000836216, -0.00246690001222305]",37.103747300003306,None,,,,001,2021_Nov_17_1847,TMTAB,2021.2.3,None,
Y,['1'],TMTstop-control_1_alinestimulus22.png,TMTstop-control_1_agreenlinestimulus22.png,TMTstop-control_1_aredlinestimulus22.png,None,,,,,,,,,,,,,0,24,24,24,,,,,,,,,,,,,,,,,,,,,,,,,,,,,,,,,,,,,,,,,,,,,,,,37.24425540000084,None,['1'],1,[0.023092799994628876],37.24425540000084,None,,,,001,2021_Nov_17_1847,TMTAB,2021.2.3,None,
None,None,TMTstop-control_1_alinestimulus23.png,TMTstop-control_1_agreenlinestimulus23.png,TMTstop-control_1_aredlinestimulus23.png,None,,,,,,,,,,,,,0,25,25,25,,,,,,,,,,,,,,,,,,,,,,,,,,,,,,,,,,,,,,,,,,,,,,,,37.394257399995695,None,['2'],0,[-0.07274580000375863],37.394257399995695,None,,,,001,2021_Nov_17_1847,TMTAB,2021.2.3,None,
1,['1'],TMTstop-control_1_2.png,TMTstop-control_1_2.png,TMTstop-control_1_2.png,10,,,,,,,,,,,,,,,,,0,0,0,0,,,,,,,,,,,,,,,,,,,,,,,,,,,,,37.408488100001705,None,,,,,,,,,,,,,,40.56227300000319,None,['3'],0,[-3.1142825999995694],40.56227300000319,None,,,,001,2021_Nov_17_1847,TMTAB,2021.2.3,None,
2,['3'],TMTstop-control_1_2.png,TMTstop-control_1_2firstgreen.png,TMTstop-control_1_2firstred.png,10,,,,,,,,,,,,,,,,,0,1,1,1,,,,,,,,,,,,,,,,,,,,,,,,,,,,,,,,,,,,,,,,,,,,40.70128219999606,None,['1'],0,[0.25362430000677705],40.70128219999606,None,,,,001,2021_Nov_17_1847,TMTAB,2021.2.3,None,
3,['2'],TMTstop-control_1_2linestimulus0.png,TMTstop-control_1_2greenlinestimulus0.png,TMTstop-control_1_2redlinestimulus0.png,10,,,,,,,,,,,,,,,,,0,2,2,2,,,,,,,,,,,,,,,,,,,,,,,,,,,,,,,,,,,,,,,,,,,,41.116359199993894,None,"['2', '3']",0,"[-0.11484559999371413, -0.018391599995084107]",41.116359199993894,None,,,,001,2021_Nov_17_1847,TMTAB,2021.2.3,None,
4,['3'],TMTstop-control_1_2linestimulus1.png,TMTstop-control_1_2greenlinestimulus1.png,TMTstop-control_1_2redlinestimulus1.png,10,,,,,,,,,,,,,,,,,0,3,3,3,,,,,,,,,,,,,,,,,,,,,,,,,,,,,,,,,,,,,,,,,,,,41.25438040000154,None,['1'],0,[-0.004532599996309727],41.25438040000154,None,,,,001,2021_Nov_17_1847,TMTAB,2021.2.3,None,
5,['1'],TMTstop-control_1_2linestimulus2.png,TMTstop-control_1_2greenlinestimulus2.png,TMTstop-control_1_2redlinestimulus2.png,10,,,,,,,,,,,,,,,,,0,4,4,4,,,,,,,,,,,,,,,,,,,,,,,,,,,,,,,,,,,,,,,,,,,,41.393147700000554,None,['2'],0,[-0.02481029999034945],41.393147700000554,None,,,,001,2021_Nov_17_1847,TMTAB,2021.2.3,None,
6,['3'],TMTstop-control_1_2linestimulus3.png,TMTstop-control_1_2greenlinestimulus3.png,TMTstop-control_1_2redlinestimulus3.png,10,,,,,,,,,,,,,,,,,0,5,5,5,,,,,,,,,,,,,,,,,,,,,,,,,,,,,,,,,,,,,,,,,,,,41.531388100003824,None,['3'],1,[-0.06218320000334643],41.531388100003824,None,,,,001,2021_Nov_17_1847,TMTAB,2021.2.3,None,
7,['2'],TMTstop-control_1_2linestimulus4.png,TMTstop-control_1_2greenlinestimulus4.png,TMTstop-control_1_2redlinestimulus4.png,10,,,,,,,,,,,,,,,,,0,6,6,6,,,,,,,,,,,,,,,,,,,,,,,,,,,,,,,,,,,,,,,,,,,,41.669840000002296,None,['1'],0,[-0.059723999991547316],41.669840000002296,None,,,,001,2021_Nov_17_1847,TMTAB,2021.2.3,None,
8,['1'],TMTstop-control_1_2linestimulus4.png,TMTstop-control_1_2greenlinestimulus5.png,TMTstop-control_1_2redlinestimulus5.png,10,,,,,,,,,,,,,,,,,0,7,7,7,,,,,,,,,,,,,,,,,,,,,,,,,,,,,,,,,,,,,,,,,,,,41.80854480000562,None,"['2', '3']",0,"[-0.13377799998852424, -0.03862469999876339]",41.80854480000562,None,,,,001,2021_Nov_17_1847,TMTAB,2021.2.3,None,
9,['2'],TMTstop-control_1_2linestimulus6.png,TMTstop-control_1_2greenlinestimulus6.png,TMTstop-control_1_2redlinestimulus6.png,10,,,,,,,,,,,,,,,,,0,8,8,8,,,,,,,,,,,,,,,,,,,,,,,,,,,,,,,,,,,,,,,,,,,,41.94647179999447,None,['1'],0,[-0.03566400001000147],41.94647179999447,None,,,,001,2021_Nov_17_1847,TMTAB,2021.2.3,None,
10,['3'],TMTstop-control_1_2linestimulus7.png,TMTstop-control_1_2greenlinestimulus7.png,TMTstop-control_1_2redlinestimulus7.png,10,,,,,,,,,,,,,,,,,0,9,9,9,,,,,,,,,,,,,,,,,,,,,,,,,,,,,,,,,,,,,,,,,,,,42.08503689999634,None,"['2', '3']",0,"[-0.1351959000021452, -0.027389399998355657]",42.08503689999634,None,,,,001,2021_Nov_17_1847,TMTAB,2021.2.3,None,
11,['1'],TMTstop-control_1_2linestimulus8.png,TMTstop-control_1_2greenlinestimulus8.png,TMTstop-control_1_2redlinestimulus8.png,10,,,,,,,,,,,,,,,,,0,10,10,10,,,,,,,,,,,,,,,,,,,,,,,,,,,,,,,,,,,,,,,,,,,,42.223445199997514,None,['1'],1,[-0.022513800009619445],42.223445199997514,None,,,,001,2021_Nov_17_1847,TMTAB,2021.2.3,None,
12,['2'],TMTstop-control_1_2linestimulus9.png,TMTstop-control_1_2greenlinestimulus9.png,TMTstop-control_1_2redlinestimulus9.png,10,,,,,,,,,,,,,,,,,0,11,11,11,,,,,,,,,,,,,,,,,,,,,,,,,,,,,,,,,,,,,,,,,,,,42.364222200005315,None,['2'],1,[-0.13562529999762774],42.364222200005315,None,,,,001,2021_Nov_17_1847,TMTAB,2021.2.3,None,
13,['3'],TMTstop-control_1_2linestimulus10.png,TMTstop-control_1_2greenlinestimulus10.png,TMTstop-control_1_2redlinestimulus10.png,1,,,,,,,,,,,,,,,,,0,12,12,12,,,,,,,,,,,,,,,,,,,,,,,,,,,,,,,,,,,,,,,,,,,,42.500122700002976,None,['3'],1,[-0.10067689999414142],42.500122700002976,None,,,,001,2021_Nov_17_1847,TMTAB,2021.2.3,None,
14,['1'],TMTstop-control_1_2linestimulus11.png,TMTstop-control_1_2greenlinestimulus11.png,TMTstop-control_1_2redlinestimulus11.png,None,,,,,,,,,,,,,,,,,0,13,13,13,,,,,,,,,,,,,,,,,,,,,,,,,,,,,,,,,,,,,,,,,,,,42.63900920000742,None,"['1', '2']",0,"[-0.1089664999890374, -0.0887588999903528]",42.63900920000742,None,,,,001,2021_Nov_17_1847,TMTAB,2021.2.3,None,
15,['2'],TMTstop-control_1_2linestimulus12.png,TMTstop-control_1_2greenlinestimulus12.png,TMTstop-control_1_2redlinestimulus12.png,None,,,,,,,,,,,,,,,,,0,14,14,14,,,,,,,,,,,,,,,,,,,,,,,,,,,,,,,,,,,,,,,,,,,,42.78026240000327,None,['3'],0,[0.02072980000230018],42.78026240000327,None,,,,001,2021_Nov_17_1847,TMTAB,2021.2.3,None,
16,['1'],TMTstop-control_1_2linestimulus13.png,TMTstop-control_1_2greenlinestimulus13.png,TMTstop-control_1_2redlinestimulus13.png,None,,,,,,,,,,,,,,,,,0,15,15,15,,,,,,,,,,,,,,,,,,,,,,,,,,,,,,,,,,,,,,,,,,,,42.930178499998874,None,"['1', '2']",0,"[-0.11551770000369288, -0.04783100000349805]",42.930178499998874,None,,,,001,2021_Nov_17_1847,TMTAB,2021.2.3,None,
17,['2'],TMTstop-control_1_2linestimulus14.png,TMTstop-control_1_2greenlinestimulus14.png,TMTstop-control_1_2redlinestimulus14.png,None,,,,,,,,,,,,,,,,,0,16,16,16,,,,,,,,,,,,,,,,,,,,,,,,,,,,,,,,,,,,,,,,,,,,43.063614500002586,None,['1'],0,[0.09531540000170935],43.063614500002586,None,,,,001,2021_Nov_17_1847,TMTAB,2021.2.3,None,
18,['1'],TMTstop-control_1_2linestimulus15.png,TMTstop-control_1_2greenlinestimulus15.png,TMTstop-control_1_2redlinestimulus15.png,None,,,,,,,,,,,,,,,,,0,17,17,17,,,,,,,,,,,,,,,,,,,,,,,,,,,,,,,,,,,,,,,,,,,,43.347097799996845,None,"['2', '3']",0,"[-0.11215390000143088, -0.011343799997121096]",43.347097799996845,None,,,,001,2021_Nov_17_1847,TMTAB,2021.2.3,None,
19,['3'],TMTstop-control_1_2linestimulus16.png,TMTstop-control_1_2greenlinestimulus16.png,TMTstop-control_1_2redlinestimulus16.png,None,,,,,,,,,,,,,,,,,0,18,18,18,,,,,,,,,,,,,,,,,,,,,,,,,,,,,,,,,,,,,,,,,,,,43.47030850000738,None,['1'],0,[-0.0068826999922748655],43.47030850000738,None,,,,001,2021_Nov_17_1847,TMTAB,2021.2.3,None,
20,['1'],TMTstop-control_1_2linestimulus17.png,TMTstop-control_1_2greenlinestimulus17.png,TMTstop-control_1_2redlinestimulus17.png,None,,,,,,,,,,,,,,,,,0,19,19,19,,,,,,,,,,,,,,,,,,,,,,,,,,,,,,,,,,,,,,,,,,,,43.60887989999901,None,"['2', '3']",0,"[-0.10880800000450108, 0.001250200002687052]",43.60887989999901,None,,,,001,2021_Nov_17_1847,TMTAB,2021.2.3,None,
21,['2'],TMTstop-control_1_2linestimulus18.png,TMTstop-control_1_2greenlinestimulus18.png,TMTstop-control_1_2redlinestimulus18.png,None,,,,,,,,,,,,,,,,,0,20,20,20,,,,,,,,,,,,,,,,,,,,,,,,,,,,,,,,,,,,,,,,,,,,43.746117000002414,None,['1'],0,[-0.002925099994172342],43.746117000002414,None,,,,001,2021_Nov_17_1847,TMTAB,2021.2.3,None,
22,['1'],TMTstop-control_1_2linestimulus19.png,TMTstop-control_1_2greenlinestimulus19.png,TMTstop-control_1_2redlinestimulus19.png,None,,,,,,,,,,,,,,,,,0,21,21,21,,,,,,,,,,,,,,,,,,,,,,,,,,,,,,,,,,,,,,,,,,,,43.88442750000104,None,['2'],0,[-0.08710979999159463],43.88442750000104,None,,,,001,2021_Nov_17_1847,TMTAB,2021.2.3,None,
23,['3'],TMTstop-control_1_2linestimulus20.png,TMTstop-control_1_2greenlinestimulus20.png,TMTstop-control_1_2redlinestimulus20.png,None,,,,,,,,,,,,,,,,,0,22,22,22,,,,,,,,,,,,,,,,,,,,,,,,,,,,,,,,,,,,,,,,,,,,44.02241600000707,None,['3'],1,[-0.10422609999659471],44.02241600000707,None,,,,001,2021_Nov_17_1847,TMTAB,2021.2.3,None,
24,['1'],TMTstop-control_1_2linestimulus21.png,TMTstop-control_1_2greenlinestimulus21.png,TMTstop-control_1_2redlinestimulus21.png,None,,,,,,,,,,,,,,,,,0,23,23,23,,,,,,,,,,,,,,,,,,,,,,,,,,,,,,,,,,,,,,,,,,,,44.16152280000097,None,"['1', '2']",0,"[-0.12771889999567065, -0.08728110000083689]",44.16152280000097,None,,,,001,2021_Nov_17_1847,TMTAB,2021.2.3,None,
25,['3'],TMTstop-control_1_2linestimulus22.png,TMTstop-control_1_2greenlinestimulus22.png,TMTstop-control_1_2redlinestimulus22.png,None,,,,,,,,,,,,,,,,,0,24,24,24,,,,,,,,,,,,,,,,,,,,,,,,,,,,,,,,,,,,,,,,,,,,44.31434779999836,None,"['3', '1']",0,"[-0.12445249999291264, -0.0006201000069268048]",44.31434779999836,None,,,,001,2021_Nov_17_1847,TMTAB,2021.2.3,None,
None,None,TMTstop-control_1_2linestimulus23.png,TMTstop-control_1_2greenlinestimulus23.png,TMTstop-control_1_2redlinestimulus23.png,None,,,,,,,,,,,,,,,,,0,25,25,25,,,,,,,,,,,,,,,,,,,,,,,,,,,,,,,,,,,,,,,,,,,,44.44927939999616,None,['2'],0,[-0.0914780999883078],44.44927939999616,None,,,,001,2021_Nov_17_1847,TMTAB,2021.2.3,None,
A,['1'],TMTstop-control_1_b.png,TMTstop-control_1_b.png,TMTstop-control_1_b.png,10,,,,,,,,,,,,,,,,,,,,,0,0,0,0,,,,,,,,,,,,,,,,,,,,,,,,,44.46178230000078,None,,,,,,,,,,,,,,47.62045479999506,None,"['3', '1', '2', '3']",0,"[-3.160531000001356, -3.0316044999926817, -2.9782271000003675, -2.8846420999907423]",47.62045479999506,None,,,,001,2021_Nov_17_1847,TMTAB,2021.2.3,None,
B,['2'],TMTstop-control_1_b.png,TMTstop-control_1_bfirstgreen.png,TMTstop-control_1_bfirstred.png,10,,,,,,,,,,,,,,,,,,,,,0,1,1,1,,,,,,,,,,,,,,,,,,,,,,,,,,,,,,,,,,,,,,,,47.75900659999752,None,['3'],0,[0.6830224000004819],47.75900659999752,None,,,,001,2021_Nov_17_1847,TMTAB,2021.2.3,None,
C,['1'],TMTstop-control_1_blinestimulus0.png,TMTstop-control_1_bgreenlinestimulus0.png,TMTstop-control_1_bredlinestimulus0.png,10,,,,,,,,,,,,,,,,,,,,,0,2,2,2,,,,,,,,,,,,,,,,,,,,,,,,,,,,,,,,,,,,,,,,48.589239399996586,None,['1'],1,[-0.011504200010676868],48.589239399996586,None,,,,001,2021_Nov_17_1847,TMTAB,2021.2.3,None,
D,['3'],TMTstop-control_1_blinestimulus1.png,TMTstop-control_1_bgreenlinestimulus1.png,TMTstop-control_1_bredlinestimulus1.png,10,,,,,,,,,,,,,,,,,,,,,0,3,3,3,,,,,,,,,,,,,,,,,,,,,,,,,,,,,,,,,,,,,,,,48.72824749999563,None,['2'],0,[-0.0920654000074137],48.72824749999563,None,,,,001,2021_Nov_17_1847,TMTAB,2021.2.3,None,
E,['1'],TMTstop-control_1_blinestimulus2.png,TMTstop-control_1_bgreenlinestimulus2.png,TMTstop-control_1_bredlinestimulus2.png,10,,,,,,,,,,,,,,,,,,,,,0,4,4,4,,,,,,,,,,,,,,,,,,,,,,,,,,,,,,,,,,,,,,,,48.86566870000388,None,"['3', '1']",0,"[-0.129024699999718, -0.0012664000096265227]",48.86566870000388,None,,,,001,2021_Nov_17_1847,TMTAB,2021.2.3,None,
F,['3'],TMTstop-control_1_blinestimulus3.png,TMTstop-control_1_bgreenlinestimulus3.png,TMTstop-control_1_bredlinestimulus3.png,10,,,,,,,,,,,,,,,,,,,,,0,5,5,5,,,,,,,,,,,,,,,,,,,,,,,,,,,,,,,,,,,,,,,,49.00465119999717,None,"['2', '3']",0,"[-0.08535619999747723, -0.007269199995789677]",49.00465119999717,None,,,,001,2021_Nov_17_1847,TMTAB,2021.2.3,None,
G,['2'],TMTstop-control_1_blinestimulus4.png,TMTstop-control_1_bgreenlinestimulus4.png,TMTstop-control_1_bredlinestimulus4.png,10,,,,,,,,,,,,,,,,,,,,,0,6,6,6,,,,,,,,,,,,,,,,,,,,,,,,,,,,,,,,,,,,,,,,49.14299000000756,None,['1'],0,[-0.013449099991703406],49.14299000000756,None,,,,001,2021_Nov_17_1847,TMTAB,2021.2.3,None,
H,['1'],TMTstop-control_1_blinestimulus5.png,TMTstop-control_1_bgreenlinestimulus5.png,TMTstop-control_1_bredlinestimulus5.png,10,,,,,,,,,,,,,,,,,,,,,0,7,7,7,,,,,,,,,,,,,,,,,,,,,,,,,,,,,,,,,,,,,,,,49.28096309999819,None,"['2', '3']",0,"[-0.11103220000222791, -0.025564000010490417]",49.28096309999819,None,,,,001,2021_Nov_17_1847,TMTAB,2021.2.3,None,
I,['3'],TMTstop-control_1_blinestimulus6.png,TMTstop-control_1_bgreenlinestimulus6.png,TMTstop-control_1_bredlinestimulus6.png,10,,,,,,,,,,,,,,,,,,,,,0,8,8,8,,,,,,,,,,,,,,,,,,,,,,,,,,,,,,,,,,,,,,,,49.419311300007394,None,['1'],0,[-0.031781300000147894],49.419311300007394,None,,,,001,2021_Nov_17_1847,TMTAB,2021.2.3,None,
J,['1'],TMTstop-control_1_blinestimulus7.png,TMTstop-control_1_bgreenlinestimulus7.png,TMTstop-control_1_bredlinestimulus7.png,10,,,,,,,,,,,,,,,,,,,,,0,9,9,9,,,,,,,,,,,,,,,,,,,,,,,,,,,,,,,,,,,,,,,,49.55891459999839,None,"['2', '3']",0,"[-0.1255776999896625, -0.04371509999327827]",49.55891459999839,None,,,,001,2021_Nov_17_1847,TMTAB,2021.2.3,None,
K,['2'],TMTstop-control_1_blinestimulus8.png,TMTstop-control_1_bgreenlinestimulus8.png,TMTstop-control_1_bredlinestimulus8.png,10,,,,,,,,,,,,,,,,,,,,,0,10,10,10,,,,,,,,,,,,,,,,,,,,,,,,,,,,,,,,,,,,,,,,49.69617310000467,None,"['1', '2']",0,"[-0.042550799989840016, -0.015776300002471544]",49.69617310000467,None,,,,001,2021_Nov_17_1847,TMTAB,2021.2.3,None,
L,['1'],TMTstop-control_1_blinestimulus9.png,TMTstop-control_1_bgreenlinestimulus9.png,TMTstop-control_1_bredlinestimulus9.png,10,,,,,,,,,,,,,,,,,,,,,0,11,11,11,,,,,,,,,,,,,,,,,,,,,,,,,,,,,,,,,,,,,,,,49.834183300001314,None,['3'],0,[-0.061284199997317046],49.834183300001314,None,,,,001,2021_Nov_17_1847,TMTAB,2021.2.3,None,
M,['2'],TMTstop-control_1_blinestimulus10.png,TMTstop-control_1_bgreenlinestimulus10.png,TMTstop-control_1_bredlinestimulus10.png,1,,,,,,,,,,,,,,,,,,,,,0,12,12,12,,,,,,,,,,,,,,,,,,,,,,,,,,,,,,,,,,,,,,,,49.973388200000045,None,['1'],0,[-0.06164699999499135],49.973388200000045,None,,,,001,2021_Nov_17_1847,TMTAB,2021.2.3,None,
N,['1'],TMTstop-control_1_blinestimulus11.png,TMTstop-control_1_bgreenlinestimulus11.png,TMTstop-control_1_bredlinestimulus11.png,None,,,,,,,,,,,,,,,,,,,,,0,13,13,13,,,,,,,,,,,,,,,,,,,,,,,,,,,,,,,,,,,,,,,,50.1123915000062,None,"['2', '3']",0,"[-0.11932320000778418, -0.06280359999800567]",50.1123915000062,None,,,,001,2021_Nov_17_1847,TMTAB,2021.2.3,None,
O,['3'],TMTstop-control_1_blinestimulus12.png,TMTstop-control_1_bgreenlinestimulus12.png,TMTstop-control_1_bredlinestimulus12.png,None,,,,,,,,,,,,,,,,,,,,,0,14,14,14,,,,,,,,,,,,,,,,,,,,,,,,,,,,,,,,,,,,,,,,50.249280599993654,None,"['1', '2']",0,"[-0.04405450000194833, -0.008674500000779517]",50.249280599993654,None,,,,001,2021_Nov_17_1847,TMTAB,2021.2.3,None,
P,['1'],TMTstop-control_1_blinestimulus13.png,TMTstop-control_1_bgreenlinestimulus13.png,TMTstop-control_1_bredlinestimulus13.png,None,,,,,,,,,,,,,,,,,,,,,0,15,15,15,,,,,,,,,,,,,,,,,,,,,,,,,,,,,,,,,,,,,,,,50.38756099999591,None,['3'],0,[-0.048715299999457784],50.38756099999591,None,,,,001,2021_Nov_17_1847,TMTAB,2021.2.3,None,
Q,['3'],TMTstop-control_1_blinestimulus14.png,TMTstop-control_1_bgreenlinestimulus14.png,TMTstop-control_1_bredlinestimulus14.png,None,,,,,,,,,,,,,,,,,,,,,0,16,16,16,,,,,,,,,,,,,,,,,,,,,,,,,,,,,,,,,,,,,,,,50.52611920000345,None,"['1', '2']",0,"[-0.052025699988007545, -0.03499879999435507]",50.52611920000345,None,,,,001,2021_Nov_17_1847,TMTAB,2021.2.3,None,
R,['2'],TMTstop-control_1_blinestimulus15.png,TMTstop-control_1_bgreenlinestimulus15.png,TMTstop-control_1_bredlinestimulus15.png,None,,,,,,,,,,,,,,,,,,,,,0,17,17,17,,,,,,,,,,,,,,,,,,,,,,,,,,,,,,,,,,,,,,,,50.66521439999633,None,['3'],0,[-0.07410349999554455],50.66521439999633,None,,,,001,2021_Nov_17_1847,TMTAB,2021.2.3,None,
S,['1'],TMTstop-control_1_blinestimulus16.png,TMTstop-control_1_bgreenlinestimulus16.png,TMTstop-control_1_bredlinestimulus16.png,None,,,,,,,,,,,,,,,,,,,,,0,18,18,18,,,,,,,,,,,,,,,,,,,,,,,,,,,,,,,,,,,,,,,,50.803025999994134,None,"['1', '2']",0,"[-0.08422279999649618, -0.05963970000448171]",50.803025999994134,None,,,,001,2021_Nov_17_1847,TMTAB,2021.2.3,None,
T,['3'],TMTstop-control_1_blinestimulus17.png,TMTstop-control_1_bgreenlinestimulus17.png,TMTstop-control_1_bredlinestimulus17.png,None,,,,,,,,,,,,,,,,,,,,,0,19,19,19,,,,,,,,,,,,,,,,,,,,,,,,,,,,,,,,,,,,,,,,50.94122849999985,None,['3'],1,[-0.09250579999934416],50.94122849999985,None,,,,001,2021_Nov_17_1847,TMTAB,2021.2.3,None,
U,['1'],TMTstop-control_1_blinestimulus18.png,TMTstop-control_1_bgreenlinestimulus18.png,TMTstop-control_1_bredlinestimulus18.png,None,,,,,,,,,,,,,,,,,,,,,0,20,20,20,,,,,,,,,,,,,,,,,,,,,,,,,,,,,,,,,,,,,,,,51.07957689999603,None,"['1', '2']",0,"[-0.10663369999383576, -0.05660709999210667]",51.07957689999603,None,,,,001,2021_Nov_17_1847,TMTAB,2021.2.3,None,
V,['2'],TMTstop-control_1_blinestimulus19.png,TMTstop-control_1_bgreenlinestimulus19.png,TMTstop-control_1_bredlinestimulus19.png,None,,,,,,,,,,,,,,,,,,,,,0,21,21,21,,,,,,,,,,,,,,,,,,,,,,,,,,,,,,,,,,,,,,,,51.234118000007584,None,"['3', '1']",0,"[-0.11450500000501052, -0.0005757000035373494]",51.234118000007584,None,,,,001,2021_Nov_17_1847,TMTAB,2021.2.3,None,
W,['1'],TMTstop-control_1_blinestimulus20.png,TMTstop-control_1_bgreenlinestimulus20.png,TMTstop-control_1_bredlinestimulus20.png,None,,,,,,,,,,,,,,,,,,,,,0,22,22,22,,,,,,,,,,,,,,,,,,,,,,,,,,,,,,,,,,,,,,,,51.35620389999531,None,['2'],0,[-0.09275239999988116],51.35620389999531,None,,,,001,2021_Nov_17_1847,TMTAB,2021.2.3,None,
X,['2'],TMTstop-control_1_blinestimulus21.png,TMTstop-control_1_bgreenlinestimulus21.png,TMTstop-control_1_bredlinestimulus21.png,None,,,,,,,,,,,,,,,,,,,,,0,23,23,23,,,,,,,,,,,,,,,,,,,,,,,,,,,,,,,,,,,,,,,,51.49594609999622,None,['3'],0,[-0.12919600000896025],51.49594609999622,None,,,,001,2021_Nov_17_1847,TMTAB,2021.2.3,None,
Y,['3'],TMTstop-control_1_blinestimulus22.png,TMTstop-control_1_bgreenlinestimulus22.png,TMTstop-control_1_bredlinestimulus22.png,None,,,,,,,,,,,,,,,,,,,,,0,24,24,24,,,,,,,,,,,,,,,,,,,,,,,,,,,,,,,,,,,,,,,,51.63566970000102,None,"['1', '2', '3']",0,"[-0.13497909999568947, -0.1209112000069581, -0.01409379999677185]",51.63566970000102,None,,,,001,2021_Nov_17_1847,TMTAB,2021.2.3,None,
None,None,TMTstop-control_1_blinestimulus23.png,TMTstop-control_1_bgreenlinestimulus23.png,TMTstop-control_1_bredlinestimulus23.png,None,,,,,,,,,,,,,,,,,,,,,0,25,25,25,,,,,,,,,,,,,,,,,,,,,,,,,,,,,,,,,,,,,,,,51.77199819999805,None,['1'],0,[-0.028446700001950376],51.77199819999805,None,,,,001,2021_Nov_17_1847,TMTAB,2021.2.3,None,
1,['3'],TMTstop-control_1_3.png,TMTstop-control_1_3.png,TMTstop-control_1_3.png,10,,,,,,,,,,,,,,,,,,,,,,,,,0,0,0,0,,,,,,,,,,,,,,,,,,,,,51.796731499998714,None,,,,,,,,,,,,,,54.88592479999352,None,"['2', '3']",0,"[-3.070956200012006, -2.993986200002837]",54.88592479999352,None,,,,001,2021_Nov_17_1847,TMTAB,2021.2.3,None,
2,['1'],TMTstop-control_1_3.png,TMTstop-control_1_3firstgreen.png,TMTstop-control_1_3firstred.png,10,,,,,,,,,,,,,,,,,,,,,,,,,0,1,1,1,,,,,,,,,,,,,,,,,,,,,,,,,,,,,,,,,,,,55.01916159999382,None,"['1', '2']",0,"[0.7737194000073941, 0.8095227000012528]",55.01916159999382,None,,,,001,2021_Nov_17_1847,TMTAB,2021.2.3,None,
3,['3'],TMTstop-control_1_3linestimulus0.png,TMTstop-control_1_3greenlinestimulus0.png,TMTstop-control_1_3redlinestimulus0.png,10,,,,,,,,,,,,,,,,,,,,,,,,,0,2,2,2,,,,,,,,,,,,,,,,,,,,,,,,,,,,,,,,,,,,55.9699241000053,None,['3'],1,[-0.016622600000118837],55.9699241000053,None,,,,001,2021_Nov_17_1847,TMTAB,2021.2.3,None,
4,['1'],TMTstop-control_1_3linestimulus1.png,TMTstop-control_1_3greenlinestimulus1.png,TMTstop-control_1_3redlinestimulus1.png,10,,,,,,,,,,,,,,,,,,,,,,,,,0,3,3,3,,,,,,,,,,,,,,,,,,,,,,,,,,,,,,,,,,,,56.108181999996305,None,['1'],1,[0.0004027999966638163],56.108181999996305,None,,,,001,2021_Nov_17_1847,TMTAB,2021.2.3,None,
5,['3'],TMTstop-control_1_3linestimulus2.png,TMTstop-control_1_3greenlinestimulus2.png,TMTstop-control_1_3redlinestimulus2.png,10,,,,,,,,,,,,,,,,,,,,,,,,,0,4,4,4,,,,,,,,,,,,,,,,,,,,,,,,,,,,,,,,,,,,56.248160500006634,None,['2'],0,[-0.06391399999847636],56.248160500006634,None,,,,001,2021_Nov_17_1847,TMTAB,2021.2.3,None,
6,['2'],TMTstop-control_1_3linestimulus3.png,TMTstop-control_1_3greenlinestimulus3.png,TMTstop-control_1_3redlinestimulus3.png,10,,,,,,,,,,,,,,,,,,,,,,,,,0,5,5,5,,,,,,,,,,,,,,,,,,,,,,,,,,,,,,,,,,,,56.38567800000601,None,['3'],0,[-0.03616150000016205],56.38567800000601,None,,,,001,2021_Nov_17_1847,TMTAB,2021.2.3,None,
7,['1'],TMTstop-control_1_3linestimulus4.png,TMTstop-control_1_3greenlinestimulus4.png,TMTstop-control_1_3redlinestimulus4.png,10,,,,,,,,,,,,,,,,,,,,,,,,,0,6,6,6,,,,,,,,,,,,,,,,,,,,,,,,,,,,,,,,,,,,56.53644880000502,None,"['1', '2']",0,"[-0.14592879998963326, -0.06405989998893347]",56.53644880000502,None,,,,001,2021_Nov_17_1847,TMTAB,2021.2.3,None,
8,['3'],TMTstop-control_1_3linestimulus4.png,TMTstop-control_1_3greenlinestimulus5.png,TMTstop-control_1_3redlinestimulus5.png,10,,,,,,,,,,,,,,,,,,,,,,,,,0,7,7,7,,,,,,,,,,,,,,,,,,,,,,,,,,,,,,,,,,,,56.66184460000659,None,['3'],1,[-0.04762939999636728],56.66184460000659,None,,,,001,2021_Nov_17_1847,TMTAB,2021.2.3,None,
9,['2'],TMTstop-control_1_3linestimulus6.png,TMTstop-control_1_3greenlinestimulus6.png,TMTstop-control_1_3redlinestimulus6.png,10,,,,,,,,,,,,,,,,,,,,,,,,,0,8,8,8,,,,,,,,,,,,,,,,,,,,,,,,,,,,,,,,,,,,56.80360959999962,None,['1'],0,[-0.13154539999959525],56.80360959999962,None,,,,001,2021_Nov_17_1847,TMTAB,2021.2.3,None,
10,['3'],TMTstop-control_1_3linestimulus7.png,TMTstop-control_1_3greenlinestimulus7.png,TMTstop-control_1_3redlinestimulus7.png,10,,,,,,,,,,,,,,,,,,,,,,,,,0,9,9,9,,,,,,,,,,,,,,,,,,,,,,,,,,,,,,,,,,,,56.93873110000277,None,"['2', '3']",0,"[-0.11052380000182893, -0.028585000007296912]",56.93873110000277,None,,,,001,2021_Nov_17_1847,TMTAB,2021.2.3,None,
11,['2'],TMTstop-control_1_3linestimulus8.png,TMTstop-control_1_3greenlinestimulus8.png,TMTstop-control_1_3redlinestimulus8.png,10,,,,,,,,,,,,,,,,,,,,,,,,,0,10,10,10,,,,,,,,,,,,,,,,,,,,,,,,,,,,,,,,,,,,57.07689529999334,None,['1'],0,[-0.05639589999918826],57.07689529999334,None,,,,001,2021_Nov_17_1847,TMTAB,2021.2.3,None,
12,['1'],TMTstop-control_1_3linestimulus9.png,TMTstop-control_1_3greenlinestimulus9.png,TMTstop-control_1_3redlinestimulus9.png,10,,,,,,,,,,,,,,,,,,,,,,,,,0,11,11,11,,,,,,,,,,,,,,,,,,,,,,,,,,,,,,,,,,,,57.215616500005126,None,"['2', '3']",0,"[-0.1347418000077596, -0.02147750000585802]",57.215616500005126,None,,,,001,2021_Nov_17_1847,TMTAB,2021.2.3,None,
13,['2'],TMTstop-control_1_3linestimulus10.png,TMTstop-control_1_3greenlinestimulus10.png,TMTstop-control_1_3redlinestimulus10.png,1,,,,,,,,,,,,,,,,,,,,,,,,,0,12,12,12,,,,,,,,,,,,,,,,,,,,,,,,,,,,,,,,,,,,57.35355549999804,None,['1'],0,[-0.021692599999369122],57.35355549999804,None,,,,001,2021_Nov_17_1847,TMTAB,2021.2.3,None,
14,['3'],TMTstop-control_1_3linestimulus11.png,TMTstop-control_1_3greenlinestimulus11.png,TMTstop-control_1_3redlinestimulus11.png,None,,,,,,,,,,,,,,,,,,,,,,,,,0,13,13,13,,,,,,,,,,,,,,,,,,,,,,,,,,,,,,,,,,,,57.50373579999723,None,"['2', '3']",0,"[-0.11963380000088364, -0.001679699998931028]",57.50373579999723,None,,,,001,2021_Nov_17_1847,TMTAB,2021.2.3,None,
15,['2'],TMTstop-control_1_3linestimulus12.png,TMTstop-control_1_3greenlinestimulus12.png,TMTstop-control_1_3redlinestimulus12.png,None,,,,,,,,,,,,,,,,,,,,,,,,,0,14,14,14,,,,,,,,,,,,,,,,,,,,,,,,,,,,,,,,,,,,57.63080889999401,None,['1'],0,[0.19911400000273716],57.63080889999401,None,,,,001,2021_Nov_17_1847,TMTAB,2021.2.3,None,
16,['1'],TMTstop-control_1_3linestimulus13.png,TMTstop-control_1_3greenlinestimulus13.png,TMTstop-control_1_3redlinestimulus13.png,None,,,,,,,,,,,,,,,,,,,,,,,,,0,15,15,15,,,,,,,,,,,,,,,,,,,,,,,,,,,,,,,,,,,,58.04550619999645,None,['1'],1,[0.18326259999594186],58.04550619999645,None,,,,001,2021_Nov_17_1847,TMTAB,2021.2.3,None,
17,['2'],TMTstop-control_1_3linestimulus14.png,TMTstop-control_1_3greenlinestimulus14.png,TMTstop-control_1_3redlinestimulus14.png,None,,,,,,,,,,,,,,,,,,,,,,,,,0,16,16,16,,,,,,,,,,,,,,,,,,,,,,,,,,,,,,,,,,,,58.32297189999372,None,['2'],1,[-0.015148899998166598],58.32297189999372,None,,,,001,2021_Nov_17_1847,TMTAB,2021.2.3,None,
18,['3'],TMTstop-control_1_3linestimulus15.png,TMTstop-control_1_3greenlinestimulus15.png,TMTstop-control_1_3redlinestimulus15.png,None,,,,,,,,,,,,,,,,,,,,,,,,,0,17,17,17,,,,,,,,,,,,,,,,,,,,,,,,,,,,,,,,,,,,58.46061939999345,None,['3'],1,[-0.07476259999384638],58.46061939999345,None,,,,001,2021_Nov_17_1847,TMTAB,2021.2.3,None,
19,['1'],TMTstop-control_1_3linestimulus16.png,TMTstop-control_1_3greenlinestimulus16.png,TMTstop-control_1_3redlinestimulus16.png,None,,,,,,,,,,,,,,,,,,,,,,,,,0,18,18,18,,,,,,,,,,,,,,,,,,,,,,,,,,,,,,,,,,,,58.59955379999883,None,"['1', '2']",0,"[-0.08431489999929909, -0.05207900000095833]",58.59955379999883,None,,,,001,2021_Nov_17_1847,TMTAB,2021.2.3,None,
20,['2'],TMTstop-control_1_3linestimulus17.png,TMTstop-control_1_3greenlinestimulus17.png,TMTstop-control_1_3redlinestimulus17.png,None,,,,,,,,,,,,,,,,,,,,,,,,,0,19,19,19,,,,,,,,,,,,,,,,,,,,,,,,,,,,,,,,,,,,58.73730759999307,None,['3'],0,[-0.06340210000053048],58.73730759999307,None,,,,001,2021_Nov_17_1847,TMTAB,2021.2.3,None,
21,['3'],TMTstop-control_1_3linestimulus18.png,TMTstop-control_1_3greenlinestimulus18.png,TMTstop-control_1_3redlinestimulus18.png,None,,,,,,,,,,,,,,,,,,,,,,,,,0,20,20,20,,,,,,,,,,,,,,,,,,,,,,,,,,,,,,,,,,,,58.87572490000457,None,"['1', '2']",0,"[-0.05299310000555124, -0.020853900001384318]",58.87572490000457,None,,,,001,2021_Nov_17_1847,TMTAB,2021.2.3,None,
22,['2'],TMTstop-control_1_3linestimulus19.png,TMTstop-control_1_3greenlinestimulus19.png,TMTstop-control_1_3redlinestimulus19.png,None,,,,,,,,,,,,,,,,,,,,,,,,,0,21,21,21,,,,,,,,,,,,,,,,,,,,,,,,,,,,,,,,,,,,59.01414230000228,None,['3'],0,[0.019682099999045022],59.01414230000228,None,,,,001,2021_Nov_17_1847,TMTAB,2021.2.3,None,
23,['1'],TMTstop-control_1_3linestimulus20.png,TMTstop-control_1_3greenlinestimulus20.png,TMTstop-control_1_3redlinestimulus20.png,None,,,,,,,,,,,,,,,,,,,,,,,,,0,22,22,22,,,,,,,,,,,,,,,,,,,,,,,,,,,,,,,,,,,,59.15239859999565,None,['1'],1,[-0.049208399999770336],59.15239859999565,None,,,,001,2021_Nov_17_1847,TMTAB,2021.2.3,None,
24,['3'],TMTstop-control_1_3linestimulus21.png,TMTstop-control_1_3greenlinestimulus21.png,TMTstop-control_1_3redlinestimulus21.png,None,,,,,,,,,,,,,,,,,,,,,,,,,0,23,23,23,,,,,,,,,,,,,,,,,,,,,,,,,,,,,,,,,,,,59.29065100000298,None,['2'],0,[-0.06778839998878539],59.29065100000298,None,,,,001,2021_Nov_17_1847,TMTAB,2021.2.3,None,
25,['1'],TMTstop-control_1_3linestimulus22.png,TMTstop-control_1_3greenlinestimulus22.png,TMTstop-control_1_3redlinestimulus22.png,None,,,,,,,,,,,,,,,,,,,,,,,,,0,24,24,24,,,,,,,,,,,,,,,,,,,,,,,,,,,,,,,,,,,,59.42889880000439,None,"['3', '1']",0,"[-0.1328469000000041, -0.028910400011227466]",59.42889880000439,None,,,,001,2021_Nov_17_1847,TMTAB,2021.2.3,None,
None,None,TMTstop-control_1_3linestimulus23.png,TMTstop-control_1_3greenlinestimulus23.png,TMTstop-control_1_3redlinestimulus23.png,None,,,,,,,,,,,,,,,,,,,,,,,,,0,25,25,25,,,,,,,,,,,,,,,,,,,,,,,,,,,,,,,,,,,,59.567624300005264,None,['3'],0,[0.15453829999023583],59.567624300005264,None,,,,001,2021_Nov_17_1847,TMTAB,2021.2.3,None,
A,['2'],TMTstop-control_1_c.png,TMTstop-control_1_c.png,TMTstop-control_1_c.png,10,,,,,,,,,,,,,,,,,,,,,,,,,,,,,0,0,0,0,,,,,,,,,,,,,,,,,59.75340149999829,None,,,,,,,,,,,,,,62.88901590000023,None,"['1', '2']",0,"[0.6385306000011042, 0.6660011999920243]",62.88901590000023,None,,,,001,2021_Nov_17_1847,TMTAB,2021.2.3,None,
B,['1'],TMTstop-control_1_c.png,TMTstop-control_1_cfirstgreen.png,TMTstop-control_1_cfirstred.png,10,,,,,,,,,,,,,,,,,,,,,,,,,,,,,0,1,1,1,,,,,,,,,,,,,,,,,,,,,,,,,,,,,,,,63.7194187999994,None,['3'],0,[-0.03452359999937471],63.7194187999994,None,,,,001,2021_Nov_17_1847,TMTAB,2021.2.3,None,
C,['2'],TMTstop-control_1_clinestimulus0.png,TMTstop-control_1_cgreenlinestimulus0.png,TMTstop-control_1_credlinestimulus0.png,10,,,,,,,,,,,,,,,,,,,,,,,,,,,,,0,2,2,2,,,,,,,,,,,,,,,,,,,,,,,,,,,,,,,,63.85814440000104,None,['1'],0,[-0.026300800003809854],63.85814440000104,None,,,,001,2021_Nov_17_1847,TMTAB,2021.2.3,None,
D,['3'],TMTstop-control_1_clinestimulus1.png,TMTstop-control_1_cgreenlinestimulus1.png,TMTstop-control_1_credlinestimulus1.png,10,,,,,,,,,,,,,,,,,,,,,,,,,,,,,0,3,3,3,,,,,,,,,,,,,,,,,,,,,,,,,,,,,,,,64.00843919999897,None,"['2', '3']",0,"[-0.11717589999898337, -0.02717260000645183]",64.00843919999897,None,,,,001,2021_Nov_17_1847,TMTAB,2021.2.3,None,
E,['2'],TMTstop-control_1_clinestimulus2.png,TMTstop-control_1_cgreenlinestimulus2.png,TMTstop-control_1_credlinestimulus2.png,10,,,,,,,,,,,,,,,,,,,,,,,,,,,,,0,4,4,4,,,,,,,,,,,,,,,,,,,,,,,,,,,,,,,,64.13536240000394,None,['1'],0,[-0.02523309999378398],64.13536240000394,None,,,,001,2021_Nov_17_1847,TMTAB,2021.2.3,None,
F,['3'],TMTstop-control_1_clinestimulus3.png,TMTstop-control_1_cgreenlinestimulus3.png,TMTstop-control_1_credlinestimulus3.png,10,,,,,,,,,,,,,,,,,,,,,,,,,,,,,0,5,5,5,,,,,,,,,,,,,,,,,,,,,,,,,,,,,,,,64.27258560000337,None,"['2', '3']",0,"[-0.11488639999879524, -0.010275499997078441]",64.27258560000337,None,,,,001,2021_Nov_17_1847,TMTAB,2021.2.3,None,
G,['1'],TMTstop-control_1_clinestimulus4.png,TMTstop-control_1_cgreenlinestimulus4.png,TMTstop-control_1_credlinestimulus4.png,10,,,,,,,,,,,,,,,,,,,,,,,,,,,,,0,6,6,6,,,,,,,,,,,,,,,,,,,,,,,,,,,,,,,,64.41133170000103,None,['1'],1,[-0.014760499994736165],64.41133170000103,None,,,,001,2021_Nov_17_1847,TMTAB,2021.2.3,None,
H,['3'],TMTstop-control_1_clinestimulus5.png,TMTstop-control_1_cgreenlinestimulus5.png,TMTstop-control_1_credlinestimulus5.png,10,,,,,,,,,,,,,,,,,,,,,,,,,,,,,0,7,7,7,,,,,,,,,,,,,,,,,,,,,,,,,,,,,,,,64.5523097999976,None,"['2', '3']",0,"[-0.09176569999544881, -0.004656799996155314]",64.5523097999976,None,,,,001,2021_Nov_17_1847,TMTAB,2021.2.3,None,
I,['1'],TMTstop-control_1_clinestimulus6.png,TMTstop-control_1_cgreenlinestimulus6.png,TMTstop-control_1_credlinestimulus6.png,10,,,,,,,,,,,,,,,,,,,,,,,,,,,,,0,8,8,8,,,,,,,,,,,,,,,,,,,,,,,,,,,,,,,,64.6878629999992,None,['1'],1,[0.002290099990204908],64.6878629999992,None,,,,001,2021_Nov_17_1847,TMTAB,2021.2.3,None,
J,['2'],TMTstop-control_1_clinestimulus7.png,TMTstop-control_1_cgreenlinestimulus7.png,TMTstop-control_1_credlinestimulus7.png,10,,,,,,,,,,,,,,,,,,,,,,,,,,,,,0,9,9,9,,,,,,,,,,,,,,,,,,,,,,,,,,,,,,,,64.82629909999378,None,['2'],1,[-0.10366979999525938],64.82629909999378,None,,,,001,2021_Nov_17_1847,TMTAB,2021.2.3,None,
K,['3'],TMTstop-control_1_clinestimulus8.png,TMTstop-control_1_cgreenlinestimulus8.png,TMTstop-control_1_credlinestimulus8.png,10,,,,,,,,,,,,,,,,,,,,,,,,,,,,,0,10,10,10,,,,,,,,,,,,,,,,,,,,,,,,,,,,,,,,64.96501729999727,None,['3'],1,[-0.10966729999927338],64.96501729999727,None,,,,001,2021_Nov_17_1847,TMTAB,2021.2.3,None,
L,['2'],TMTstop-control_1_clinestimulus9.png,TMTstop-control_1_cgreenlinestimulus9.png,TMTstop-control_1_credlinestimulus9.png,10,,,,,,,,,,,,,,,,,,,,,,,,,,,,,0,11,11,11,,,,,,,,,,,,,,,,,,,,,,,,,,,,,,,,65.10307820000162,None,"['1', '2']",0,"[-0.10570320000988431, -0.06809280000743456]",65.10307820000162,None,,,,001,2021_Nov_17_1847,TMTAB,2021.2.3,None,
M,['3'],TMTstop-control_1_clinestimulus10.png,TMTstop-control_1_cgreenlinestimulus10.png,TMTstop-control_1_credlinestimulus10.png,1,,,,,,,,,,,,,,,,,,,,,,,,,,,,,0,12,12,12,,,,,,,,,,,,,,,,,,,,,,,,,,,,,,,,65.24208500000532,None,['1'],0,[0.18253970000660047],65.24208500000532,None,,,,001,2021_Nov_17_1847,TMTAB,2021.2.3,None,
N,['1'],TMTstop-control_1_clinestimulus11.png,TMTstop-control_1_cgreenlinestimulus11.png,TMTstop-control_1_credlinestimulus11.png,None,,,,,,,,,,,,,,,,,,,,,,,,,,,,,0,13,13,13,,,,,,,,,,,,,,,,,,,,,,,,,,,,,,,,65.5193539000029,None,['2'],0,[-0.05732520000310615],65.5193539000029,None,,,,001,2021_Nov_17_1847,TMTAB,2021.2.3,None,
O,['3'],TMTstop-control_1_clinestimulus12.png,TMTstop-control_1_cgreenlinestimulus12.png,TMTstop-control_1_credlinestimulus12.png,None,,,,,,,,,,,,,,,,,,,,,,,,,,,,,0,14,14,14,,,,,,,,,,,,,,,,,,,,,,,,,,,,,,,,65.65654090000317,None,['3'],1,[-0.0016656999941915274],65.65654090000317,None,,,,001,2021_Nov_17_1847,TMTAB,2021.2.3,None,
P,['2'],TMTstop-control_1_clinestimulus13.png,TMTstop-control_1_cgreenlinestimulus13.png,TMTstop-control_1_credlinestimulus13.png,None,,,,,,,,,,,,,,,,,,,,,,,,,,,,,0,15,15,15,,,,,,,,,,,,,,,,,,,,,,,,,,,,,,,,65.80762269999832,None,['1'],0,[-0.055339899990940467],65.80762269999832,None,,,,001,2021_Nov_17_1847,TMTAB,2021.2.3,None,
Q,['3'],TMTstop-control_1_clinestimulus14.png,TMTstop-control_1_cgreenlinestimulus14.png,TMTstop-control_1_credlinestimulus14.png,None,,,,,,,,,,,,,,,,,,,,,,,,,,,,,0,16,16,16,,,,,,,,,,,,,,,,,,,,,,,,,,,,,,,,65.93342549999943,None,['2'],0,[-0.09732729999814183],65.93342549999943,None,,,,001,2021_Nov_17_1847,TMTAB,2021.2.3,None,
R,['2'],TMTstop-control_1_clinestimulus15.png,TMTstop-control_1_cgreenlinestimulus15.png,TMTstop-control_1_credlinestimulus15.png,None,,,,,,,,,,,,,,,,,,,,,,,,,,,,,0,17,17,17,,,,,,,,,,,,,,,,,,,,,,,,,,,,,,,,66.07456029999594,None,"['3', '1']",0,"[-0.12655820000509266, -0.03280159999849275]",66.07456029999594,None,,,,001,2021_Nov_17_1847,TMTAB,2021.2.3,None,
S,['3'],TMTstop-control_1_clinestimulus16.png,TMTstop-control_1_cgreenlinestimulus16.png,TMTstop-control_1_credlinestimulus16.png,None,,,,,,,,,,,,,,,,,,,,,,,,,,,,,0,18,18,18,,,,,,,,,,,,,,,,,,,,,,,,,,,,,,,,66.21009290000075,None,['2'],0,[-0.07640019999234937],66.21009290000075,None,,,,001,2021_Nov_17_1847,TMTAB,2021.2.3,None,
T,['2'],TMTstop-control_1_clinestimulus17.png,TMTstop-control_1_cgreenlinestimulus17.png,TMTstop-control_1_credlinestimulus17.png,None,,,,,,,,,,,,,,,,,,,,,,,,,,,,,0,19,19,19,,,,,,,,,,,,,,,,,,,,,,,,,,,,,,,,66.34851149999304,None,['3'],0,[-0.1135985000000801],66.34851149999304,None,,,,001,2021_Nov_17_1847,TMTAB,2021.2.3,None,
U,['3'],TMTstop-control_1_clinestimulus18.png,TMTstop-control_1_cgreenlinestimulus18.png,TMTstop-control_1_credlinestimulus18.png,None,,,,,,,,,,,,,,,,,,,,,,,,,,,,,0,20,20,20,,,,,,,,,,,,,,,,,,,,,,,,,,,,,,,,66.49039740000444,None,"['1', '2']",0,"[-0.12275020001106896, -0.05459230000269599]",66.49039740000444,None,,,,001,2021_Nov_17_1847,TMTAB,2021.2.3,None,
V,['1'],TMTstop-control_1_clinestimulus19.png,TMTstop-control_1_cgreenlinestimulus19.png,TMTstop-control_1_credlinestimulus19.png,None,,,,,,,,,,,,,,,,,,,,,,,,,,,,,0,21,21,21,,,,,,,,,,,,,,,,,,,,,,,,,,,,,,,,66.62538979999954,None,['2'],0,[0.5488063000084367],66.62538979999954,None,,,,001,2021_Nov_17_1847,TMTAB,2021.2.3,None,
W,['3'],TMTstop-control_1_clinestimulus20.png,TMTstop-control_1_cgreenlinestimulus20.png,TMTstop-control_1_credlinestimulus20.png,None,,,,,,,,,,,,,,,,,,,,,,,,,,,,,0,22,22,22,,,,,,,,,,,,,,,,,,,,,,,,,,,,,,,,67.31710109999403,None,['1'],0,[-0.07015359999786597],67.31710109999403,None,,,,001,2021_Nov_17_1847,TMTAB,2021.2.3,None,
X,['2'],TMTstop-control_1_clinestimulus21.png,TMTstop-control_1_cgreenlinestimulus21.png,TMTstop-control_1_credlinestimulus21.png,None,,,,,,,,,,,,,,,,,,,,,,,,,,,,,0,23,23,23,,,,,,,,,,,,,,,,,,,,,,,,,,,,,,,,67.45569719999912,None,['1'],0,[-0.01955209999869112],67.45569719999912,None,,,,001,2021_Nov_17_1847,TMTAB,2021.2.3,None,
Y,['3'],TMTstop-control_1_clinestimulus22.png,TMTstop-control_1_cgreenlinestimulus22.png,TMTstop-control_1_credlinestimulus22.png,None,,,,,,,,,,,,,,,,,,,,,,,,,,,,,0,24,24,24,,,,,,,,,,,,,,,,,,,,,,,,,,,,,,,,67.59358159999829,None,['2'],0,[-0.08088159999169875],67.59358159999829,None,,,,001,2021_Nov_17_1847,TMTAB,2021.2.3,None,
None,None,TMTstop-control_1_clinestimulus23.png,TMTstop-control_1_cgreenlinestimulus23.png,TMTstop-control_1_credlinestimulus23.png,None,,,,,,,,,,,,,,,,,,,,,,,,,,,,,0,25,25,25,,,,,,,,,,,,,,,,,,,,,,,,,,,,,,,,67.73218249999627,None,['3'],0,[-0.11284770000202116],67.73218249999627,None,,,,001,2021_Nov_17_1847,TMTAB,2021.2.3,None,
1,['2'],TMTstop-control_1_4.png,TMTstop-control_1_4.png,TMTstop-control_1_4.png,10,,,,,,,,,,,,,,,,,,,,,,,,,,,,,,,,,0,0,0,0,,,,,,,,,,,,,67.75420239999949,None,,,,,,,,,,,,,,70.91492239999934,None,"['1', '2', '3']",0,"[-3.175923300004797, -3.1339138000039384, -3.011322000005748]",70.91492239999934,None,,,,001,2021_Nov_17_1847,TMTAB,2021.2.3,None,
2,['1'],TMTstop-control_1_4.png,TMTstop-control_1_4firstgreen.png,TMTstop-control_1_4firstred.png,10,,,,,,,,,,,,,,,,,,,,,,,,,,,,,,,,,0,1,1,1,,,,,,,,,,,,,,,,,,,,,,,,,,,,71.05324259999907,None,['1'],1,[0.5317488000000594],71.05324259999907,None,,,,001,2021_Nov_17_1847,TMTAB,2021.2.3,None,
3,['3'],TMTstop-control_1_4linestimulus0.png,TMTstop-control_1_4greenlinestimulus0.png,TMTstop-control_1_4redlinestimulus0.png,10,,,,,,,,,,,,,,,,,,,,,,,,,,,,,,,,,0,2,2,2,,,,,,,,,,,,,,,,,,,,,,,,,,,,71.7458609000023,None,['2'],0,[-0.1254592000041157],71.7458609000023,None,,,,001,2021_Nov_17_1847,TMTAB,2021.2.3,None,
4,['1'],TMTstop-control_1_4linestimulus1.png,TMTstop-control_1_4greenlinestimulus1.png,TMTstop-control_1_4redlinestimulus1.png,10,,,,,,,,,,,,,,,,,,,,,,,,,,,,,,,,,0,3,3,3,,,,,,,,,,,,,,,,,,,,,,,,,,,,71.88391489999776,None,['3'],0,[-0.0862797000008868],71.88391489999776,None,,,,001,2021_Nov_17_1847,TMTAB,2021.2.3,None,
5,['2'],TMTstop-control_1_4linestimulus2.png,TMTstop-control_1_4greenlinestimulus2.png,TMTstop-control_1_4redlinestimulus2.png,10,,,,,,,,,,,,,,,,,,,,,,,,,,,,,,,,,0,4,4,4,,,,,,,,,,,,,,,,,,,,,,,,,,,,72.02239800000098,None,['1'],0,[0.09773559999302961],72.02239800000098,None,,,,001,2021_Nov_17_1847,TMTAB,2021.2.3,None,
6,['1'],TMTstop-control_1_4linestimulus3.png,TMTstop-control_1_4greenlinestimulus3.png,TMTstop-control_1_4redlinestimulus3.png,10,,,,,,,,,,,,,,,,,,,,,,,,,,,,,,,,,0,5,5,5,,,,,,,,,,,,,,,,,,,,,,,,,,,,72.29887270000472,None,['1'],1,[2.481203400006052],72.29887270000472,None,,,,001,2021_Nov_17_1847,TMTAB,2021.2.3,None,
7,['3'],TMTstop-control_1_4linestimulus4.png,TMTstop-control_1_4greenlinestimulus4.png,TMTstop-control_1_4redlinestimulus4.png,10,,,,,,,,,,,,,,,,,,,,,,,,,,,,,,,,,0,6,6,6,,,,,,,,,,,,,,,,,,,,,,,,,,,,74.9290600999957,None,['2'],0,[-0.07752530000288971],74.9290600999957,None,,,,001,2021_Nov_17_1847,TMTAB,2021.2.3,None,
8,['1'],TMTstop-control_1_4linestimulus4.png,TMTstop-control_1_4greenlinestimulus5.png,TMTstop-control_1_4redlinestimulus5.png,10,,,,,,,,,,,,,,,,,,,,,,,,,,,,,,,,,0,7,7,7,,,,,,,,,,,,,,,,,,,,,,,,,,,,75.06742069999746,None,['3'],0,[-0.1097215000045253],75.06742069999746,None,,,,001,2021_Nov_17_1847,TMTAB,2021.2.3,None,
9,['2'],TMTstop-control_1_4linestimulus6.png,TMTstop-control_1_4greenlinestimulus6.png,TMTstop-control_1_4redlinestimulus6.png,10,,,,,,,,,,,,,,,,,,,,,,,,,,,,,,,,,0,8,8,8,,,,,,,,,,,,,,,,,,,,,,,,,,,,75.20532399999502,None,"['1', '2']",0,"[-0.09418240000377409, -0.0359772000083467]",75.20532399999502,None,,,,001,2021_Nov_17_1847,TMTAB,2021.2.3,None,
10,['1'],TMTstop-control_1_4linestimulus7.png,TMTstop-control_1_4greenlinestimulus7.png,TMTstop-control_1_4redlinestimulus7.png,10,,,,,,,,,,,,,,,,,,,,,,,,,,,,,,,,,0,9,9,9,,,,,,,,,,,,,,,,,,,,,,,,,,,,75.34525779999967,None,['3'],0,[-0.07983059999241959],75.34525779999967,None,,,,001,2021_Nov_17_1847,TMTAB,2021.2.3,None,
11,['2'],TMTstop-control_1_4linestimulus8.png,TMTstop-control_1_4greenlinestimulus8.png,TMTstop-control_1_4redlinestimulus8.png,10,,,,,,,,,,,,,,,,,,,,,,,,,,,,,,,,,0,10,10,10,,,,,,,,,,,,,,,,,,,,,,,,,,,,75.48237840000365,None,"['1', '2']",0,"[-0.06926299999759067, -0.024174199992557988]",75.48237840000365,None,,,,001,2021_Nov_17_1847,TMTAB,2021.2.3,None,
12,['1'],TMTstop-control_1_4linestimulus9.png,TMTstop-control_1_4greenlinestimulus9.png,TMTstop-control_1_4redlinestimulus9.png,10,,,,,,,,,,,,,,,,,,,,,,,,,,,,,,,,,0,11,11,11,,,,,,,,,,,,,,,,,,,,,,,,,,,,75.62077730000601,None,['3'],0,[0.0133025999966776],75.62077730000601,None,,,,001,2021_Nov_17_1847,TMTAB,2021.2.3,None,
13,['2'],TMTstop-control_1_4linestimulus10.png,TMTstop-control_1_4greenlinestimulus10.png,TMTstop-control_1_4redlinestimulus10.png,1,,,,,,,,,,,,,,,,,,,,,,,,,,,,,,,,,0,12,12,12,,,,,,,,,,,,,,,,,,,,,,,,,,,,75.75899170000048,None,['1'],0,[0.027357400002074428],75.75899170000048,None,,,,001,2021_Nov_17_1847,TMTAB,2021.2.3,None,
14,['1'],TMTstop-control_1_4linestimulus11.png,TMTstop-control_1_4greenlinestimulus11.png,TMTstop-control_1_4redlinestimulus11.png,None,,,,,,,,,,,,,,,,,,,,,,,,,,,,,,,,,0,13,13,13,,,,,,,,,,,,,,,,,,,,,,,,,,,,75.91234350000741,None,['2'],0,[-0.001553900001454167],75.91234350000741,None,,,,001,2021_Nov_17_1847,TMTAB,2021.2.3,None,
15,['2'],TMTstop-control_1_4linestimulus12.png,TMTstop-control_1_4greenlinestimulus12.png,TMTstop-control_1_4redlinestimulus12.png,None,,,,,,,,,,,,,,,,,,,,,,,,,,,,,,,,,0,14,14,14,,,,,,,,,,,,,,,,,,,,,,,,,,,,76.03591000000597,None,['3'],0,[-0.029254400011268444],76.03591000000597,None,,,,001,2021_Nov_17_1847,TMTAB,2021.2.3,None,
16,['3'],TMTstop-control_1_4linestimulus13.png,TMTstop-control_1_4greenlinestimulus13.png,TMTstop-control_1_4redlinestimulus13.png,None,,,,,,,,,,,,,,,,,,,,,,,,,,,,,,,,,0,15,15,15,,,,,,,,,,,,,,,,,,,,,,,,,,,,76.17438789999869,None,['1'],0,[-0.026429899997310713],76.17438789999869,None,,,,001,2021_Nov_17_1847,TMTAB,2021.2.3,None,
17,['2'],TMTstop-control_1_4linestimulus14.png,TMTstop-control_1_4greenlinestimulus14.png,TMTstop-control_1_4redlinestimulus14.png,None,,,,,,,,,,,,,,,,,,,,,,,,,,,,,,,,,0,16,16,16,,,,,,,,,,,,,,,,,,,,,,,,,,,,76.31276950000029,None,['2'],1,[-0.10970899999665562],76.31276950000029,None,,,,001,2021_Nov_17_1847,TMTAB,2021.2.3,None,
18,['3'],TMTstop-control_1_4linestimulus15.png,TMTstop-control_1_4greenlinestimulus15.png,TMTstop-control_1_4redlinestimulus15.png,None,,,,,,,,,,,,,,,,,,,,,,,,,,,,,,,,,0,17,17,17,,,,,,,,,,,,,,,,,,,,,,,,,,,,76.45106930000475,None,['3'],1,[-0.1358967000123812],76.45106930000475,None,,,,001,2021_Nov_17_1847,TMTAB,2021.2.3,None,
19,['1'],TMTstop-control_1_4linestimulus16.png,TMTstop-control_1_4greenlinestimulus16.png,TMTstop-control_1_4redlinestimulus16.png,None,,,,,,,,,,,,,,,,,,,,,,,,,,,,,,,,,0,18,18,18,,,,,,,,,,,,,,,,,,,,,,,,,,,,76.58910610000021,None,"['1', '2']",0,"[-0.13306989999546204, -0.1038375000061933]",76.58910610000021,None,,,,001,2021_Nov_17_1847,TMTAB,2021.2.3,None,
20,['3'],TMTstop-control_1_4linestimulus17.png,TMTstop-control_1_4greenlinestimulus17.png,TMTstop-control_1_4redlinestimulus17.png,None,,,,,,,,,,,,,,,,,,,,,,,,,,,,,,,,,0,19,19,19,,,,,,,,,,,,,,,,,,,,,,,,,,,,76.72757299999648,None,"['3', '1']",0,"[-0.11842899999464862, -0.008883000002242625]",76.72757299999648,None,,,,001,2021_Nov_17_1847,TMTAB,2021.2.3,None,
21,['2'],TMTstop-control_1_4linestimulus18.png,TMTstop-control_1_4greenlinestimulus18.png,TMTstop-control_1_4redlinestimulus18.png,None,,,,,,,,,,,,,,,,,,,,,,,,,,,,,,,,,0,20,20,20,,,,,,,,,,,,,,,,,,,,,,,,,,,,76.86617700000352,None,"['2', '3']",0,"[-0.0822380999888992, 0.00046270000166259706]",76.86617700000352,None,,,,001,2021_Nov_17_1847,TMTAB,2021.2.3,None,
22,['3'],TMTstop-control_1_4linestimulus19.png,TMTstop-control_1_4greenlinestimulus19.png,TMTstop-control_1_4redlinestimulus19.png,None,,,,,,,,,,,,,,,,,,,,,,,,,,,,,,,,,0,21,21,21,,,,,,,,,,,,,,,,,,,,,,,,,,,,77.00403320000623,None,['1'],0,[-0.0012578000023495406],77.00403320000623,None,,,,001,2021_Nov_17_1847,TMTAB,2021.2.3,None,
23,['2'],TMTstop-control_1_4linestimulus20.png,TMTstop-control_1_4greenlinestimulus20.png,TMTstop-control_1_4redlinestimulus20.png,None,,,,,,,,,,,,,,,,,,,,,,,,,,,,,,,,,0,22,22,22,,,,,,,,,,,,,,,,,,,,,,,,,,,,77.14297600000282,None,"['2', '3']",0,"[-0.09445969999069348, -0.005798500002129003]",77.14297600000282,None,,,,001,2021_Nov_17_1847,TMTAB,2021.2.3,None,
24,['1'],TMTstop-control_1_4linestimulus21.png,TMTstop-control_1_4greenlinestimulus21.png,TMTstop-control_1_4redlinestimulus21.png,None,,,,,,,,,,,,,,,,,,,,,,,,,,,,,,,,,0,23,23,23,,,,,,,,,,,,,,,,,,,,,,,,,,,,77.28074299999571,None,['1'],1,[-0.009989900005166419],77.28074299999571,None,,,,001,2021_Nov_17_1847,TMTAB,2021.2.3,None,
25,['3'],TMTstop-control_1_4linestimulus22.png,TMTstop-control_1_4greenlinestimulus22.png,TMTstop-control_1_4redlinestimulus22.png,None,,,,,,,,,,,,,,,,,,,,,,,,,,,,,,,,,0,24,24,24,,,,,,,,,,,,,,,,,,,,,,,,,,,,77.42049639999459,None,"['2', '3']",0,"[-0.0980489000066882, -0.015742999996291474]",77.42049639999459,None,,,,001,2021_Nov_17_1847,TMTAB,2021.2.3,None,
None,None,TMTstop-control_1_4linestimulus23.png,TMTstop-control_1_4greenlinestimulus23.png,TMTstop-control_1_4redlinestimulus23.png,None,,,,,,,,,,,,,,,,,,,,,,,,,,,,,,,,,0,25,25,25,,,,,,,,,,,,,,,,,,,,,,,,,,,,77.55813629999466,None,['1'],0,[-0.027146300009917468],77.55813629999466,None,,,,001,2021_Nov_17_1847,TMTAB,2021.2.3,None,
A,['2'],TMTstop-control_1_d.png,TMTstop-control_1_d.png,TMTstop-control_1_d.png,10,,,,,,,,,,,,,,,,,,,,,,,,,,,,,,,,,,,,,0,0,0,0,,,,,,,,,77.57719799999904,None,,,,,,,,,,,,,,80.64761450000515,None,"['2', '3', '1', '2', '3']",0,"[-3.061652899996261, -2.973512700002175, -0.27893349999794737, -0.16114129999186844, -0.07879430000321008]",80.64761450000515,None,,,,001,2021_Nov_17_1847,TMTAB,2021.2.3,None,
B,['1'],TMTstop-control_1_d.png,TMTstop-control_1_dfirstgreen.png,TMTstop-control_1_dfirstred.png,10,,,,,,,,,,,,,,,,,,,,,,,,,,,,,,,,,,,,,0,1,1,1,,,,,,,,,,,,,,,,,,,,,,,,80.72632309999608,None,['1'],1,[-0.009636100003262982],80.72632309999608,None,,,,001,2021_Nov_17_1847,TMTAB,2021.2.3,None,
C,['2'],TMTstop-control_1_dlinestimulus0.png,TMTstop-control_1_dgreenlinestimulus0.png,TMTstop-control_1_dredlinestimulus0.png,10,,,,,,,,,,,,,,,,,,,,,,,,,,,,,,,,,,,,,0,2,2,2,,,,,,,,,,,,,,,,,,,,,,,,80.86356599999999,None,['2'],1,[-0.04241059999912977],80.86356599999999,None,,,,001,2021_Nov_17_1847,TMTAB,2021.2.3,None,
D,['1'],TMTstop-control_1_dlinestimulus1.png,TMTstop-control_1_dgreenlinestimulus1.png,TMTstop-control_1_dredlinestimulus1.png,10,,,,,,,,,,,,,,,,,,,,,,,,,,,,,,,,,,,,,0,3,3,3,,,,,,,,,,,,,,,,,,,,,,,,81.001211099996,None,['3'],0,[-0.09590230000321753],81.001211099996,None,,,,001,2021_Nov_17_1847,TMTAB,2021.2.3,None,
E,['3'],TMTstop-control_1_dlinestimulus2.png,TMTstop-control_1_dgreenlinestimulus2.png,TMTstop-control_1_dredlinestimulus2.png,10,,,,,,,,,,,,,,,,,,,,,,,,,,,,,,,,,,,,,0,4,4,4,,,,,,,,,,,,,,,,,,,,,,,,81.13998859999992,None,['3'],1,[0.05461390000709798],81.13998859999992,None,,,,001,2021_Nov_17_1847,TMTAB,2021.2.3,None,
F,['1'],TMTstop-control_1_dlinestimulus3.png,TMTstop-control_1_dgreenlinestimulus3.png,TMTstop-control_1_dredlinestimulus3.png,10,,,,,,,,,,,,,,,,,,,,,,,,,,,,,,,,,,,,,0,5,5,5,,,,,,,,,,,,,,,,,,,,,,,,81.27934470000037,None,['1'],1,[-0.0012848000042140484],81.27934470000037,None,,,,001,2021_Nov_17_1847,TMTAB,2021.2.3,None,
G,['3'],TMTstop-control_1_dlinestimulus4.png,TMTstop-control_1_dgreenlinestimulus4.png,TMTstop-control_1_dredlinestimulus4.png,10,,,,,,,,,,,,,,,,,,,,,,,,,,,,,,,,,,,,,0,6,6,6,,,,,,,,,,,,,,,,,,,,,,,,81.41645659999631,None,['2'],0,[-0.02209870000660885],81.41645659999631,None,,,,001,2021_Nov_17_1847,TMTAB,2021.2.3,None,
H,['2'],TMTstop-control_1_dlinestimulus5.png,TMTstop-control_1_dgreenlinestimulus5.png,TMTstop-control_1_dredlinestimulus5.png,10,,,,,,,,,,,,,,,,,,,,,,,,,,,,,,,,,,,,,0,7,7,7,,,,,,,,,,,,,,,,,,,,,,,,81.5551059999998,None,['3'],0,[-0.07138239999767393],81.5551059999998,None,,,,001,2021_Nov_17_1847,TMTAB,2021.2.3,None,
I,['3'],TMTstop-control_1_dlinestimulus6.png,TMTstop-control_1_dgreenlinestimulus6.png,TMTstop-control_1_dredlinestimulus6.png,10,,,,,,,,,,,,,,,,,,,,,,,,,,,,,,,,,,,,,0,8,8,8,,,,,,,,,,,,,,,,,,,,,,,,81.6934762000019,None,['1'],0,[-0.05300549999810755],81.6934762000019,None,,,,001,2021_Nov_17_1847,TMTAB,2021.2.3,None,
J,['1'],TMTstop-control_1_dlinestimulus7.png,TMTstop-control_1_dgreenlinestimulus7.png,TMTstop-control_1_dredlinestimulus7.png,10,,,,,,,,,,,,,,,,,,,,,,,,,,,,,,,,,,,,,0,9,9,9,,,,,,,,,,,,,,,,,,,,,,,,81.83116770000197,None,"['2', '3']",0,"[-0.1293671000021277, -0.02501670000492595]",81.83116770000197,None,,,,001,2021_Nov_17_1847,TMTAB,2021.2.3,None,
K,['2'],TMTstop-control_1_dlinestimulus8.png,TMTstop-control_1_dgreenlinestimulus8.png,TMTstop-control_1_dredlinestimulus8.png,10,,,,,,,,,,,,,,,,,,,,,,,,,,,,,,,,,,,,,0,10,10,10,,,,,,,,,,,,,,,,,,,,,,,,81.97001469999668,None,['1'],0,[-0.03536620001250412],81.97001469999668,None,,,,001,2021_Nov_17_1847,TMTAB,2021.2.3,None,
L,['1'],TMTstop-control_1_dlinestimulus9.png,TMTstop-control_1_dgreenlinestimulus9.png,TMTstop-control_1_dredlinestimulus9.png,10,,,,,,,,,,,,,,,,,,,,,,,,,,,,,,,,,,,,,0,11,11,11,,,,,,,,,,,,,,,,,,,,,,,,82.10843659999955,None,"['2', '3']",0,"[-0.1259795999940252, -0.03502479998860508]",82.10843659999955,None,,,,001,2021_Nov_17_1847,TMTAB,2021.2.3,None,
M,['3'],TMTstop-control_1_dlinestimulus10.png,TMTstop-control_1_dgreenlinestimulus10.png,TMTstop-control_1_dredlinestimulus10.png,1,,,,,,,,,,,,,,,,,,,,,,,,,,,,,,,,,,,,,0,12,12,12,,,,,,,,,,,,,,,,,,,,,,,,82.24701760000607,None,['1'],0,[-0.02610820000700187],82.24701760000607,None,,,,001,2021_Nov_17_1847,TMTAB,2021.2.3,None,
N,['2'],TMTstop-control_1_dlinestimulus11.png,TMTstop-control_1_dgreenlinestimulus11.png,TMTstop-control_1_dredlinestimulus11.png,None,,,,,,,,,,,,,,,,,,,,,,,,,,,,,,,,,,,,,0,13,13,13,,,,,,,,,,,,,,,,,,,,,,,,82.38496349999332,None,['3'],0,[-0.0226179999881424],82.38496349999332,None,,,,001,2021_Nov_17_1847,TMTAB,2021.2.3,None,
O,['1'],TMTstop-control_1_dlinestimulus12.png,TMTstop-control_1_dgreenlinestimulus12.png,TMTstop-control_1_dredlinestimulus12.png,None,,,,,,,,,,,,,,,,,,,,,,,,,,,,,,,,,,,,,0,14,14,14,,,,,,,,,,,,,,,,,,,,,,,,82.52735049999319,None,['1'],1,[0.0043268000008538365],82.52735049999319,None,,,,001,2021_Nov_17_1847,TMTAB,2021.2.3,None,
P,['3'],TMTstop-control_1_dlinestimulus13.png,TMTstop-control_1_dgreenlinestimulus13.png,TMTstop-control_1_dredlinestimulus13.png,None,,,,,,,,,,,,,,,,,,,,,,,,,,,,,,,,,,,,,0,15,15,15,,,,,,,,,,,,,,,,,,,,,,,,82.66523329999472,None,['2'],0,[-0.10134730000572745],82.66523329999472,None,,,,001,2021_Nov_17_1847,TMTAB,2021.2.3,None,
Q,['2'],TMTstop-control_1_dlinestimulus14.png,TMTstop-control_1_dgreenlinestimulus14.png,TMTstop-control_1_dredlinestimulus14.png,None,,,,,,,,,,,,,,,,,,,,,,,,,,,,,,,,,,,,,0,16,16,16,,,,,,,,,,,,,,,,,,,,,,,,82.79981159999443,None,['3'],0,[-0.1253534999996191],82.79981159999443,None,,,,001,2021_Nov_17_1847,TMTAB,2021.2.3,None,
R,['1'],TMTstop-control_1_dlinestimulus15.png,TMTstop-control_1_dgreenlinestimulus15.png,TMTstop-control_1_dredlinestimulus15.png,None,,,,,,,,,,,,,,,,,,,,,,,,,,,,,,,,,,,,,0,17,17,17,,,,,,,,,,,,,,,,,,,,,,,,82.93871010000294,None,"['1', '2']",0,"[-0.10718350000388455, -0.07667719999153633]",82.93871010000294,None,,,,001,2021_Nov_17_1847,TMTAB,2021.2.3,None,
S,['3'],TMTstop-control_1_dlinestimulus16.png,TMTstop-control_1_dgreenlinestimulus16.png,TMTstop-control_1_dredlinestimulus16.png,None,,,,,,,,,,,,,,,,,,,,,,,,,,,,,,,,,,,,,0,18,18,18,,,,,,,,,,,,,,,,,,,,,,,,83.07762510000612,None,['3'],1,[-0.10352220000640955],83.07762510000612,None,,,,001,2021_Nov_17_1847,TMTAB,2021.2.3,None,
T,['2'],TMTstop-control_1_dlinestimulus17.png,TMTstop-control_1_dgreenlinestimulus17.png,TMTstop-control_1_dredlinestimulus17.png,None,,,,,,,,,,,,,,,,,,,,,,,,,,,,,,,,,,,,,0,19,19,19,,,,,,,,,,,,,,,,,,,,,,,,83.21528679999756,None,"['1', '2']",0,"[-0.12823930000013206, -0.035554700007196516]",83.21528679999756,None,,,,001,2021_Nov_17_1847,TMTAB,2021.2.3,None,
U,['1'],TMTstop-control_1_dlinestimulus18.png,TMTstop-control_1_dgreenlinestimulus18.png,TMTstop-control_1_dredlinestimulus18.png,None,,,,,,,,,,,,,,,,,,,,,,,,,,,,,,,,,,,,,0,20,20,20,,,,,,,,,,,,,,,,,,,,,,,,83.35367799999949,None,['3'],0,[-0.10586640000110492],83.35367799999949,None,,,,001,2021_Nov_17_1847,TMTAB,2021.2.3,None,
V,['3'],TMTstop-control_1_dlinestimulus19.png,TMTstop-control_1_dgreenlinestimulus19.png,TMTstop-control_1_dredlinestimulus19.png,None,,,,,,,,,,,,,,,,,,,,,,,,,,,,,,,,,,,,,0,21,21,21,,,,,,,,,,,,,,,,,,,,,,,,83.49211099999957,None,"['1', '2']",0,"[-0.11458880000282079, -0.04605299999821]",83.49211099999957,None,,,,001,2021_Nov_17_1847,TMTAB,2021.2.3,None,
W,['2'],TMTstop-control_1_dlinestimulus20.png,TMTstop-control_1_dgreenlinestimulus20.png,TMTstop-control_1_dredlinestimulus20.png,None,,,,,,,,,,,,,,,,,,,,,,,,,,,,,,,,,,,,,0,22,22,22,,,,,,,,,,,,,,,,,,,,,,,,83.63321230000292,None,['3'],0,[-0.09046730000409298],83.63321230000292,None,,,,001,2021_Nov_17_1847,TMTAB,2021.2.3,None,
X,['1'],TMTstop-control_1_dlinestimulus21.png,TMTstop-control_1_dgreenlinestimulus21.png,TMTstop-control_1_dredlinestimulus21.png,None,,,,,,,,,,,,,,,,,,,,,,,,,,,,,,,,,,,,,0,23,23,23,,,,,,,,,,,,,,,,,,,,,,,,83.76909919999889,None,"['1', '2']",0,"[-0.10211579999304377, -0.06644219999725465]",83.76909919999889,None,,,,001,2021_Nov_17_1847,TMTAB,2021.2.3,None,
Y,['2'],TMTstop-control_1_dlinestimulus22.png,TMTstop-control_1_dgreenlinestimulus22.png,TMTstop-control_1_dredlinestimulus22.png,None,,,,,,,,,,,,,,,,,,,,,,,,,,,,,,,,,,,,,0,24,24,24,,,,,,,,,,,,,,,,,,,,,,,,83.90726710000308,None,['3'],0,[-0.08752939999976661],83.90726710000308,None,,,,001,2021_Nov_17_1847,TMTAB,2021.2.3,None,
None,None,TMTstop-control_1_dlinestimulus23.png,TMTstop-control_1_dgreenlinestimulus23.png,TMTstop-control_1_dredlinestimulus23.png,None,,,,,,,,,,,,,,,,,,,,,,,,,,,,,,,,,,,,,0,25,25,25,,,,,,,,,,,,,,,,,,,,,,,,84.0456228999974,None,"['1', '2']",0,"[-0.09350550000090152, -0.03295560000697151]",84.0456228999974,None,,,,001,2021_Nov_17_1847,TMTAB,2021.2.3,None,
,,,,,,,,,,,,,,,,,,,,,,,,,,,,,,,,,,,,,,,,,,,,,,,,,,,,,,,,,,,,,,,,,,,,,,,,,,,,84.06343650000053,None,,,,,,,
