NumberLetter,corrAns,StimFile,Correct_StimFile,False_StimFile,DurationTrial,restartpractice.thisRepN,restartpractice.thisTrialN,restartpractice.thisN,restartpractice.thisIndex,trials_practice.thisRepN,trials_practice.thisTrialN,trials_practice.thisN,trials_practice.thisIndex,trials.thisRepN,trials.thisTrialN,trials.thisN,trials.thisIndex,trials_2.thisRepN,trials_2.thisTrialN,trials_2.thisN,trials_2.thisIndex,trials_3.thisRepN,trials_3.thisTrialN,trials_3.thisN,trials_3.thisIndex,trials_4.thisRepN,trials_4.thisTrialN,trials_4.thisN,trials_4.thisIndex,trials_5.thisRepN,trials_5.thisTrialN,trials_5.thisN,trials_5.thisIndex,trials_6.thisRepN,trials_6.thisTrialN,trials_6.thisN,trials_6.thisIndex,trials_7.thisRepN,trials_7.thisTrialN,trials_7.thisN,trials_7.thisIndex,trials_8.thisRepN,trials_8.thisTrialN,trials_8.thisN,trials_8.thisIndex,Instruct.started,Instruct.stopped,image_2.started,image_2.stopped,key_resp_6.keys,key_resp_6.rt,key_resp_6.started,key_resp_6.stopped,polygon.started,polygon.stopped,Stim_practice.started,Stim_practice.stopped,key_resp_practice.keys,key_resp_practice.corr,key_resp_practice.rt,key_resp_practice.started,key_resp_practice.stopped,text_5.started,text_5.stopped,key_resp_5.keys,key_resp_5.rt,key_resp_5.started,key_resp_5.stopped,Stim.started,Stim.stopped,key_resp_2.keys,key_resp_2.corr,key_resp_2.rt,key_resp_2.started,key_resp_2.stopped,text.started,text.stopped,participant,session,date,expName,psychopyVersion,frameRate,
,,,,,,,,,,,,,,,,,,,,,,,,,,,,,,,,,,,,,,,,,,,,,,12.416600900003687,None,12.942547099999501,None,2,0.5119591999973636,12.942547099999501,None,,,,,,,,,,,,,,,,,,,,,,,,,,001,2021_Nov_17_1833,TMTAB,2021.2.3,None,
1,2,TMTstop-Control_1_practice.png,TMTstop-Control_1_practice.png,TMTstop-Control_1_practice.png,10,0,0,0,0,0,0,0,0,,,,,,,,,,,,,,,,,,,,,,,,,,,,,,,,,,,,,,,,,13.475069499996607,None,16.639582400006475,None,2,1,1.4632486000045901,16.639582400006475,None,,,,,,,,,,,,,,,,,001,2021_Nov_17_1833,TMTAB,2021.2.3,None,
2,3,TMTstop-Control_1_practice.png,TMTstop-Control_1_practicefirstgreen.png,TMTstop-Control_1_practicefirstred.png,10,0,0,0,0,0,1,1,1,,,,,,,,,,,,,,,,,,,,,,,,,,,,,,,,,,,,,,,,,,,18.29773040000873,None,3,1,0.9361821999918902,18.29773040000873,None,,,,,,,,,,,,,,,,,001,2021_Nov_17_1833,TMTAB,2021.2.3,None,
3,2,TMTstop-Control_1_practicelinestimulus0.png,TMTstop-Control_1_practicegreenlinestimulus0.png,TMTstop-Control_1_practiceredlinestimulus0.png,10,0,0,0,0,0,2,2,2,,,,,,,,,,,,,,,,,,,,,,,,,,,,,,,,,,,,,,,,,,,19.40574529999867,None,1,0,0.7536394000053406,19.40574529999867,None,,,,,,,,,,,,,,,,,001,2021_Nov_17_1833,TMTAB,2021.2.3,None,
4,1,TMTstop-Control_1_practicelinestimulus1.png,TMTstop-Control_1_practicegreenlinestimulus1.png,TMTstop-Control_1_practiceredlinestimulus1.png,10,0,0,0,0,0,3,3,3,,,,,,,,,,,,,,,,,,,,,,,,,,,,,,,,,,,,,,,,,,,20.373921300008078,None,3,0,0.8788439000054495,20.373921300008078,None,,,,,,,,,,,,,,,,,001,2021_Nov_17_1833,TMTAB,2021.2.3,None,
5,2,TMTstop-Control_1_practicelinestimulus2.png,TMTstop-Control_1_practicegreenlinestimulus2.png,TMTstop-Control_1_practiceredlinestimulus2.png,10,0,0,0,0,0,4,4,4,,,,,,,,,,,,,,,,,,,,,,,,,,,,,,,,,,,,,,,,,,,21.343918099999428,None,1,0,0.5279306000011275,21.343918099999428,None,,,,,,,,,,,,,,,,,001,2021_Nov_17_1833,TMTAB,2021.2.3,None,
6,1,TMTstop-Control_1_practicelinestimulus3.png,TMTstop-Control_1_practicegreenlinestimulus3.png,TMTstop-Control_1_practiceredlinestimulus3.png,10,0,0,0,0,0,5,5,5,,,,,,,,,,,,,,,,,,,,,,,,,,,,,,,,,,,,,,,,,,,22.03558019999764,None,3,0,0.10751669999444857,22.03558019999764,None,,,,,,,,,,,,,,,,,001,2021_Nov_17_1833,TMTAB,2021.2.3,None,
7,2,TMTstop-Control_1_practicelinestimulus4.png,TMTstop-Control_1_practicegreenlinestimulus4.png,TMTstop-Control_1_practiceredlinestimulus4.png,10,0,0,0,0,0,6,6,6,,,,,,,,,,,,,,,,,,,,,,,,,,,,,,,,,,,,,,,,,,,22.312487899995176,None,2,1,0.10024819998943713,22.312487899995176,None,,,,,,,,,,,,,,,,,001,2021_Nov_17_1833,TMTAB,2021.2.3,None,
8,1,TMTstop-Control_1_practicelinestimulus5.png,TMTstop-Control_1_practicegreenlinestimulus5.png,TMTstop-Control_1_practiceredlinestimulus5.png,10,0,0,0,0,0,7,7,7,,,,,,,,,,,,,,,,,,,,,,,,,,,,,,,,,,,,,,,,,,,22.58976430000621,None,3,0,0.01792889999342151,22.58976430000621,None,,,,,,,,,,,,,,,,,001,2021_Nov_17_1833,TMTAB,2021.2.3,None,
9,3,TMTstop-Control_1_practicelinestimulus6.png,TMTstop-Control_1_practicegreenlinestimulus6.png,TMTstop-Control_1_practiceredlinestimulus6.png,10,0,0,0,0,0,8,8,8,,,,,,,,,,,,,,,,,,,,,,,,,,,,,,,,,,,,,,,,,,,22.730200500009232,None,2,0,0.4067845999961719,22.730200500009232,None,,,,,,,,,,,,,,,,,001,2021_Nov_17_1833,TMTAB,2021.2.3,None,
10,1,TMTstop-Control_1_practicelinestimulus7.png,TMTstop-Control_1_practicegreenlinestimulus7.png,TMTstop-Control_1_practiceredlinestimulus7.png,10,0,0,0,0,0,9,9,9,,,,,,,,,,,,,,,,,,,,,,,,,,,,,,,,,,,,,,,,,,,23.263893800001824,None,2,0,0.2112736999988556,23.263893800001824,None,,,,,,,,,,,,,,,,,001,2021_Nov_17_1833,TMTAB,2021.2.3,None,
11,3,TMTstop-Control_1_practicelinestimulus8.png,TMTstop-Control_1_practicegreenlinestimulus8.png,TMTstop-Control_1_practiceredlinestimulus8.png,10,0,0,0,0,0,10,10,10,,,,,,,,,,,,,,,,,,,,,,,,,,,,,,,,,,,,,,,,,,,23.66724090000207,None,2,0,0.09658240000135265,23.66724090000207,None,,,,,,,,,,,,,,,,,001,2021_Nov_17_1833,TMTAB,2021.2.3,None,
12,1,TMTstop-Control_1_practicelinestimulus9.png,TMTstop-Control_1_practicegreenlinestimulus9.png,TMTstop-Control_1_practiceredlinestimulus9.png,10,0,0,0,0,0,11,11,11,,,,,,,,,,,,,,,,,,,,,,,,,,,,,,,,,,,,,,,,,,,23.945555300000706,None,2,0,0.0960447999968892,23.945555300000706,None,,,,,,,,,,,,,,,,,001,2021_Nov_17_1833,TMTAB,2021.2.3,None,
None,None,TMTstop-Control_1_practicelinestimulus10.png,TMTstop-Control_1_practicegreenlinestimulus10.png,TMTstop-Control_1_practiceredlinestimulus10.png,None,0,0,0,0,0,12,12,12,,,,,,,,,,,,,,,,,,,,,,,,,,,,,,,,,,,,,,,,,,,24.221394399995916,None,None,1,,24.221394399995916,None,,,,,,,,,,,,,,,,,001,2021_Nov_17_1833,TMTAB,2021.2.3,None,
,,,,,,0,0,0,0,,,,,,,,,,,,,,,,,,,,,,,,,,,,,,,,,,,,,,,,,,,,,,,,,,,,,,25.228705600005924,None,2,0.606689300009748,25.228705600005924,None,,,,,,,,,,,001,2021_Nov_17_1833,TMTAB,2021.2.3,None,
1,['2'],TMTstop-control_1_1.png,TMTstop-control_1_1.png,TMTstop-control_1_1.png,10,,,,,,,,,0,0,0,0,,,,,,,,,,,,,,,,,,,,,,,,,,,,,,,,,,,,,25.880868000007467,None,,,,,,,,,,,,,,29.063547500001732,None,['2'],1,[0.8343026999937138],29.063547500001732,None,,,,001,2021_Nov_17_1833,TMTAB,2021.2.3,None,
2,['1'],TMTstop-control_1_1.png,TMTstop-control_1_1firstgreen.png,TMTstop-control_1_1firstred.png,10,,,,,,,,,0,1,1,1,,,,,,,,,,,,,,,,,,,,,,,,,,,,,,,,,,,,,,,,,,,,,,,,,,,,30.022716899999068,None,['1'],1,[0.38879469998937566],30.022716899999068,None,,,,001,2021_Nov_17_1833,TMTAB,2021.2.3,None,
3,['2'],TMTstop-control_1_1linestimulus0.png,TMTstop-control_1_1greenlinestimulus0.png,TMTstop-control_1_1redlinestimulus0.png,10,,,,,,,,,0,2,2,2,,,,,,,,,,,,,,,,,,,,,,,,,,,,,,,,,,,,,,,,,,,,,,,,,,,,30.5617276999983,None,['2'],1,[-0.04893449999508448],30.5617276999983,None,,,,001,2021_Nov_17_1833,TMTAB,2021.2.3,None,
4,['3'],TMTstop-control_1_1linestimulus1.png,TMTstop-control_1_1greenlinestimulus1.png,TMTstop-control_1_1redlinestimulus1.png,10,,,,,,,,,0,3,3,3,,,,,,,,,,,,,,,,,,,,,,,,,,,,,,,,,,,,,,,,,,,,,,,,,,,,30.70118679999723,None,['3'],1,[-0.05944620000082068],30.70118679999723,None,,,,001,2021_Nov_17_1833,TMTAB,2021.2.3,None,
5,['2'],TMTstop-control_1_1linestimulus2.png,TMTstop-control_1_1greenlinestimulus2.png,TMTstop-control_1_1redlinestimulus2.png,10,,,,,,,,,0,4,4,4,,,,,,,,,,,,,,,,,,,,,,,,,,,,,,,,,,,,,,,,,,,,,,,,,,,,30.838961100002052,None,['1'],0,[0.013197099993703887],30.838961100002052,None,,,,001,2021_Nov_17_1833,TMTAB,2021.2.3,None,
6,['1'],TMTstop-control_1_1linestimulus3.png,TMTstop-control_1_1greenlinestimulus3.png,TMTstop-control_1_1redlinestimulus3.png,10,,,,,,,,,0,5,5,5,,,,,,,,,,,,,,,,,,,,,,,,,,,,,,,,,,,,,,,,,,,,,,,,,,,,30.977028100009193,None,['2'],0,[-0.02376150000782218],30.977028100009193,None,,,,001,2021_Nov_17_1833,TMTAB,2021.2.3,None,
7,['3'],TMTstop-control_1_1linestimulus4.png,TMTstop-control_1_1greenlinestimulus4.png,TMTstop-control_1_1redlinestimulus4.png,10,,,,,,,,,0,6,6,6,,,,,,,,,,,,,,,,,,,,,,,,,,,,,,,,,,,,,,,,,,,,,,,,,,,,31.115526599998702,None,['1'],0,[0.11056670000834856],31.115526599998702,None,,,,001,2021_Nov_17_1833,TMTAB,2021.2.3,None,
8,['2'],TMTstop-control_1_1linestimulus4.png,TMTstop-control_1_1greenlinestimulus5.png,TMTstop-control_1_1redlinestimulus5.png,10,,,,,,,,,0,7,7,7,,,,,,,,,,,,,,,,,,,,,,,,,,,,,,,,,,,,,,,,,,,,,,,,,,,,31.392953300004592,None,['2'],1,[-0.05678380001336336],31.392953300004592,None,,,,001,2021_Nov_17_1833,TMTAB,2021.2.3,None,
9,['3'],TMTstop-control_1_1linestimulus6.png,TMTstop-control_1_1greenlinestimulus6.png,TMTstop-control_1_1redlinestimulus6.png,10,,,,,,,,,0,8,8,8,,,,,,,,,,,,,,,,,,,,,,,,,,,,,,,,,,,,,,,,,,,,,,,,,,,,31.531682500004536,None,['3'],1,[0.00795030000153929],31.531682500004536,None,,,,001,2021_Nov_17_1833,TMTAB,2021.2.3,None,
10,['2'],TMTstop-control_1_1linestimulus7.png,TMTstop-control_1_1greenlinestimulus7.png,TMTstop-control_1_1redlinestimulus7.png,10,,,,,,,,,0,9,9,9,,,,,,,,,,,,,,,,,,,,,,,,,,,,,,,,,,,,,,,,,,,,,,,,,,,,31.67061939999985,None,['1'],0,[0.06617340000229888],31.67061939999985,None,,,,001,2021_Nov_17_1833,TMTAB,2021.2.3,None,
11,['3'],TMTstop-control_1_1linestimulus8.png,TMTstop-control_1_1greenlinestimulus8.png,TMTstop-control_1_1redlinestimulus8.png,10,,,,,,,,,0,10,10,10,,,,,,,,,,,,,,,,,,,,,,,,,,,,,,,,,,,,,,,,,,,,,,,,,,,,31.94904750000569,None,['2'],0,[0.5752789999969536],31.94904750000569,None,,,,001,2021_Nov_17_1833,TMTAB,2021.2.3,None,
12,['1'],TMTstop-control_1_1linestimulus9.png,TMTstop-control_1_1greenlinestimulus9.png,TMTstop-control_1_1redlinestimulus9.png,10,,,,,,,,,0,11,11,11,,,,,,,,,,,,,,,,,,,,,,,,,,,,,,,,,,,,,,,,,,,,,,,,,,,,32.65315470000496,None,['1'],1,[0.09309090000169817],32.65315470000496,None,,,,001,2021_Nov_17_1833,TMTAB,2021.2.3,None,
13,['3'],TMTstop-control_1_1linestimulus10.png,TMTstop-control_1_1greenlinestimulus10.png,TMTstop-control_1_1redlinestimulus10.png,1,,,,,,,,,0,12,12,12,,,,,,,,,,,,,,,,,,,,,,,,,,,,,,,,,,,,,,,,,,,,,,,,,,,,32.91751060000388,None,['3'],1,[-0.015475899999728426],32.91751060000388,None,,,,001,2021_Nov_17_1833,TMTAB,2021.2.3,None,
14,['1'],TMTstop-control_1_1linestimulus11.png,TMTstop-control_1_1greenlinestimulus11.png,TMTstop-control_1_1redlinestimulus11.png,None,,,,,,,,,0,13,13,13,,,,,,,,,,,,,,,,,,,,,,,,,,,,,,,,,,,,,,,,,,,,,,,,,,,,33.040850799996406,None,['1'],1,[0.03438500000629574],33.040850799996406,None,,,,001,2021_Nov_17_1833,TMTAB,2021.2.3,None,
15,['3'],TMTstop-control_1_1linestimulus12.png,TMTstop-control_1_1greenlinestimulus12.png,TMTstop-control_1_1redlinestimulus12.png,None,,,,,,,,,0,14,14,14,,,,,,,,,,,,,,,,,,,,,,,,,,,,,,,,,,,,,,,,,,,,,,,,,,,,33.18669309999677,None,['2'],0,[0.026264100000844337],33.18669309999677,None,,,,001,2021_Nov_17_1833,TMTAB,2021.2.3,None,
16,['1'],TMTstop-control_1_1linestimulus13.png,TMTstop-control_1_1greenlinestimulus13.png,TMTstop-control_1_1redlinestimulus13.png,None,,,,,,,,,0,15,15,15,,,,,,,,,,,,,,,,,,,,,,,,,,,,,,,,,,,,,,,,,,,,,,,,,,,,33.32009100000141,None,['3'],0,[-0.08793010000954382],33.32009100000141,None,,,,001,2021_Nov_17_1833,TMTAB,2021.2.3,None,
17,['2'],TMTstop-control_1_1linestimulus14.png,TMTstop-control_1_1greenlinestimulus14.png,TMTstop-control_1_1redlinestimulus14.png,None,,,,,,,,,0,16,16,16,,,,,,,,,,,,,,,,,,,,,,,,,,,,,,,,,,,,,,,,,,,,,,,,,,,,33.45514030000777,None,['1'],0,[-0.04388479999033734],33.45514030000777,None,,,,001,2021_Nov_17_1833,TMTAB,2021.2.3,None,
18,['1'],TMTstop-control_1_1linestimulus15.png,TMTstop-control_1_1greenlinestimulus15.png,TMTstop-control_1_1redlinestimulus15.png,None,,,,,,,,,0,17,17,17,,,,,,,,,,,,,,,,,,,,,,,,,,,,,,,,,,,,,,,,,,,,,,,,,,,,33.59346119999827,None,"['2', '3']",0,"[-0.10942269999941345, -0.027449600005638786]",33.59346119999827,None,,,,001,2021_Nov_17_1833,TMTAB,2021.2.3,None,
19,['3'],TMTstop-control_1_1linestimulus16.png,TMTstop-control_1_1greenlinestimulus16.png,TMTstop-control_1_1redlinestimulus16.png,None,,,,,,,,,0,18,18,18,,,,,,,,,,,,,,,,,,,,,,,,,,,,,,,,,,,,,,,,,,,,,,,,,,,,33.73227580000821,None,['1'],0,[-0.005360900002415292],33.73227580000821,None,,,,001,2021_Nov_17_1833,TMTAB,2021.2.3,None,
20,['1'],TMTstop-control_1_1linestimulus17.png,TMTstop-control_1_1greenlinestimulus17.png,TMTstop-control_1_1redlinestimulus17.png,None,,,,,,,,,0,19,19,19,,,,,,,,,,,,,,,,,,,,,,,,,,,,,,,,,,,,,,,,,,,,,,,,,,,,33.86952229999588,None,['2'],0,[-0.0778885000036098],33.86952229999588,None,,,,001,2021_Nov_17_1833,TMTAB,2021.2.3,None,
21,['3'],TMTstop-control_1_1linestimulus18.png,TMTstop-control_1_1greenlinestimulus18.png,TMTstop-control_1_1redlinestimulus18.png,None,,,,,,,,,0,20,20,20,,,,,,,,,,,,,,,,,,,,,,,,,,,,,,,,,,,,,,,,,,,,,,,,,,,,34.00774339999771,None,['3'],1,[-0.11770580000302289],34.00774339999771,None,,,,001,2021_Nov_17_1833,TMTAB,2021.2.3,None,
22,['1'],TMTstop-control_1_1linestimulus19.png,TMTstop-control_1_1greenlinestimulus19.png,TMTstop-control_1_1redlinestimulus19.png,None,,,,,,,,,0,21,21,21,,,,,,,,,,,,,,,,,,,,,,,,,,,,,,,,,,,,,,,,,,,,,,,,,,,,34.145661800008384,None,"['1', '2']",0,"[-0.1142931999929715, -0.0346986999938963]",34.145661800008384,None,,,,001,2021_Nov_17_1833,TMTAB,2021.2.3,None,
23,['3'],TMTstop-control_1_1linestimulus20.png,TMTstop-control_1_1greenlinestimulus20.png,TMTstop-control_1_1redlinestimulus20.png,None,,,,,,,,,0,22,22,22,,,,,,,,,,,,,,,,,,,,,,,,,,,,,,,,,,,,,,,,,,,,,,,,,,,,34.284732000000076,None,['3'],1,[-0.07932900000014342],34.284732000000076,None,,,,001,2021_Nov_17_1833,TMTAB,2021.2.3,None,
24,['1'],TMTstop-control_1_1linestimulus21.png,TMTstop-control_1_1greenlinestimulus21.png,TMTstop-control_1_1redlinestimulus21.png,None,,,,,,,,,0,23,23,23,,,,,,,,,,,,,,,,,,,,,,,,,,,,,,,,,,,,,,,,,,,,,,,,,,,,34.42210260000138,None,['1'],1,[-0.07707400000072084],34.42210260000138,None,,,,001,2021_Nov_17_1833,TMTAB,2021.2.3,None,
25,['3'],TMTstop-control_1_1linestimulus22.png,TMTstop-control_1_1greenlinestimulus22.png,TMTstop-control_1_1redlinestimulus22.png,None,,,,,,,,,0,24,24,24,,,,,,,,,,,,,,,,,,,,,,,,,,,,,,,,,,,,,,,,,,,,,,,,,,,,34.560213799995836,None,"['2', '3']",0,"[-0.1188830000028247, -0.02671020000707358]",34.560213799995836,None,,,,001,2021_Nov_17_1833,TMTAB,2021.2.3,None,
None,None,TMTstop-control_1_1linestimulus23.png,TMTstop-control_1_1greenlinestimulus23.png,TMTstop-control_1_1redlinestimulus23.png,None,,,,,,,,,0,25,25,25,,,,,,,,,,,,,,,,,,,,,,,,,,,,,,,,,,,,,,,,,,,,,,,,,,,,34.69912140000088,None,['1'],0,[0.01311149999673944],34.69912140000088,None,,,,001,2021_Nov_17_1833,TMTAB,2021.2.3,None,
A,['3'],TMTstop-control_1_a.png,TMTstop-control_1_a.png,TMTstop-control_1_a.png,10,,,,,,,,,,,,,0,0,0,0,,,,,,,,,,,,,,,,,,,,,,,,,,,,,,,,,34.73499470000388,None,,,,,,,,,,,,,,37.855433500008075,None,"['2', '3']",0,"[-3.0345429000008153, -2.986701300003915]",37.855433500008075,None,,,,001,2021_Nov_17_1833,TMTAB,2021.2.3,None,
B,['1'],TMTstop-control_1_a.png,TMTstop-control_1_afirstgreen.png,TMTstop-control_1_afirstred.png,10,,,,,,,,,,,,,0,1,1,1,,,,,,,,,,,,,,,,,,,,,,,,,,,,,,,,,,,,,,,,,,,,,,,,37.9301650999987,None,['1'],1,[3.9498808000062127],37.9301650999987,None,,,,001,2021_Nov_17_1833,TMTAB,2021.2.3,None,
C,['3'],TMTstop-control_1_alinestimulus0.png,TMTstop-control_1_agreenlinestimulus0.png,TMTstop-control_1_aredlinestimulus0.png,10,,,,,,,,,,,,,0,2,2,2,,,,,,,,,,,,,,,,,,,,,,,,,,,,,,,,,,,,,,,,,,,,,,,,42.08305950000067,None,['3'],1,[0.9334800999931758],42.08305950000067,None,,,,001,2021_Nov_17_1833,TMTAB,2021.2.3,None,
D,['2'],TMTstop-control_1_alinestimulus1.png,TMTstop-control_1_agreenlinestimulus1.png,TMTstop-control_1_aredlinestimulus1.png,10,,,,,,,,,,,,,0,3,3,3,,,,,,,,,,,,,,,,,,,,,,,,,,,,,,,,,,,,,,,,,,,,,,,,43.19034180000017,None,['1'],0,[0.047636699993745424],43.19034180000017,None,,,,001,2021_Nov_17_1833,TMTAB,2021.2.3,None,
E,['1'],TMTstop-control_1_alinestimulus2.png,TMTstop-control_1_agreenlinestimulus2.png,TMTstop-control_1_aredlinestimulus2.png,10,,,,,,,,,,,,,0,4,4,4,,,,,,,,,,,,,,,,,,,,,,,,,,,,,,,,,,,,,,,,,,,,,,,,43.32605869999679,None,['2'],0,[0.036225300005753525],43.32605869999679,None,,,,001,2021_Nov_17_1833,TMTAB,2021.2.3,None,
F,['3'],TMTstop-control_1_alinestimulus3.png,TMTstop-control_1_agreenlinestimulus3.png,TMTstop-control_1_aredlinestimulus3.png,10,,,,,,,,,,,,,0,5,5,5,,,,,,,,,,,,,,,,,,,,,,,,,,,,,,,,,,,,,,,,,,,,,,,,43.46455970000534,None,['3'],1,[-0.011803899993537925],43.46455970000534,None,,,,001,2021_Nov_17_1833,TMTAB,2021.2.3,None,
G,['2'],TMTstop-control_1_alinestimulus4.png,TMTstop-control_1_agreenlinestimulus4.png,TMTstop-control_1_aredlinestimulus4.png,10,,,,,,,,,,,,,0,6,6,6,,,,,,,,,,,,,,,,,,,,,,,,,,,,,,,,,,,,,,,,,,,,,,,,43.601494700007606,None,['1'],0,[0.0436049000127241],43.601494700007606,None,,,,001,2021_Nov_17_1833,TMTAB,2021.2.3,None,
H,['3'],TMTstop-control_1_alinestimulus5.png,TMTstop-control_1_agreenlinestimulus5.png,TMTstop-control_1_aredlinestimulus5.png,10,,,,,,,,,,,,,0,7,7,7,,,,,,,,,,,,,,,,,,,,,,,,,,,,,,,,,,,,,,,,,,,,,,,,43.740294100003666,None,['2'],0,[-0.038329700008034706],43.740294100003666,None,,,,001,2021_Nov_17_1833,TMTAB,2021.2.3,None,
I,['1'],TMTstop-control_1_alinestimulus6.png,TMTstop-control_1_agreenlinestimulus6.png,TMTstop-control_1_aredlinestimulus6.png,10,,,,,,,,,,,,,0,8,8,8,,,,,,,,,,,,,,,,,,,,,,,,,,,,,,,,,,,,,,,,,,,,,,,,43.87804730000789,None,['3'],0,[-0.038553399994270876],43.87804730000789,None,,,,001,2021_Nov_17_1833,TMTAB,2021.2.3,None,
J,['2'],TMTstop-control_1_alinestimulus7.png,TMTstop-control_1_agreenlinestimulus7.png,TMTstop-control_1_aredlinestimulus7.png,10,,,,,,,,,,,,,0,9,9,9,,,,,,,,,,,,,,,,,,,,,,,,,,,,,,,,,,,,,,,,,,,,,,,,44.016886800003704,None,['1'],0,[-0.005379199996241368],44.016886800003704,None,,,,001,2021_Nov_17_1833,TMTAB,2021.2.3,None,
K,['3'],TMTstop-control_1_alinestimulus8.png,TMTstop-control_1_agreenlinestimulus8.png,TMTstop-control_1_aredlinestimulus8.png,10,,,,,,,,,,,,,0,10,10,10,,,,,,,,,,,,,,,,,,,,,,,,,,,,,,,,,,,,,,,,,,,,,,,,44.157878800004255,None,['2'],0,[-0.08980570000130683],44.157878800004255,None,,,,001,2021_Nov_17_1833,TMTAB,2021.2.3,None,
L,['1'],TMTstop-control_1_alinestimulus9.png,TMTstop-control_1_agreenlinestimulus9.png,TMTstop-control_1_aredlinestimulus9.png,10,,,,,,,,,,,,,0,11,11,11,,,,,,,,,,,,,,,,,,,,,,,,,,,,,,,,,,,,,,,,,,,,,,,,44.29313259999617,None,['3'],0,[-0.07277749999775551],44.29313259999617,None,,,,001,2021_Nov_17_1833,TMTAB,2021.2.3,None,
M,['3'],TMTstop-control_1_alinestimulus10.png,TMTstop-control_1_agreenlinestimulus10.png,TMTstop-control_1_aredlinestimulus10.png,1,,,,,,,,,,,,,0,12,12,12,,,,,,,,,,,,,,,,,,,,,,,,,,,,,,,,,,,,,,,,,,,,,,,,44.43186460000288,None,['1'],0,[-0.04187860000820365],44.43186460000288,None,,,,001,2021_Nov_17_1833,TMTAB,2021.2.3,None,
N,['2'],TMTstop-control_1_alinestimulus11.png,TMTstop-control_1_agreenlinestimulus11.png,TMTstop-control_1_aredlinestimulus11.png,None,,,,,,,,,,,,,0,13,13,13,,,,,,,,,,,,,,,,,,,,,,,,,,,,,,,,,,,,,,,,,,,,,,,,44.570596000005025,None,['2'],1,[-0.12092560000019148],44.570596000005025,None,,,,001,2021_Nov_17_1833,TMTAB,2021.2.3,None,
O,['1'],TMTstop-control_1_alinestimulus12.png,TMTstop-control_1_agreenlinestimulus12.png,TMTstop-control_1_aredlinestimulus12.png,None,,,,,,,,,,,,,0,14,14,14,,,,,,,,,,,,,,,,,,,,,,,,,,,,,,,,,,,,,,,,,,,,,,,,44.708851200004574,None,['3'],0,[-0.09863520000362769],44.708851200004574,None,,,,001,2021_Nov_17_1833,TMTAB,2021.2.3,None,
P,['3'],TMTstop-control_1_alinestimulus13.png,TMTstop-control_1_agreenlinestimulus13.png,TMTstop-control_1_aredlinestimulus13.png,None,,,,,,,,,,,,,0,15,15,15,,,,,,,,,,,,,,,,,,,,,,,,,,,,,,,,,,,,,,,,,,,,,,,,44.84721069999796,None,"['1', '2']",0,"[-0.08663530000194442, -0.022149699987494387]",44.84721069999796,None,,,,001,2021_Nov_17_1833,TMTAB,2021.2.3,None,
Q,['2'],TMTstop-control_1_alinestimulus14.png,TMTstop-control_1_agreenlinestimulus14.png,TMTstop-control_1_aredlinestimulus14.png,None,,,,,,,,,,,,,0,16,16,16,,,,,,,,,,,,,,,,,,,,,,,,,,,,,,,,,,,,,,,,,,,,,,,,44.986830399997416,None,['3'],0,[-0.027069800009485334],44.986830399997416,None,,,,001,2021_Nov_17_1833,TMTAB,2021.2.3,None,
R,['3'],TMTstop-control_1_alinestimulus15.png,TMTstop-control_1_agreenlinestimulus15.png,TMTstop-control_1_aredlinestimulus15.png,None,,,,,,,,,,,,,0,17,17,17,,,,,,,,,,,,,,,,,,,,,,,,,,,,,,,,,,,,,,,,,,,,,,,,45.12366959999781,None,"['1', '2']",0,"[0.07706660000258125, 0.09807340000406839]",45.12366959999781,None,,,,001,2021_Nov_17_1833,TMTAB,2021.2.3,None,
S,['2'],TMTstop-control_1_alinestimulus16.png,TMTstop-control_1_agreenlinestimulus16.png,TMTstop-control_1_aredlinestimulus16.png,None,,,,,,,,,,,,,0,18,18,18,,,,,,,,,,,,,,,,,,,,,,,,,,,,,,,,,,,,,,,,,,,,,,,,45.386475399995106,None,['3'],0,[0.008058099992922507],45.386475399995106,None,,,,001,2021_Nov_17_1833,TMTAB,2021.2.3,None,
T,['1'],TMTstop-control_1_alinestimulus17.png,TMTstop-control_1_agreenlinestimulus17.png,TMTstop-control_1_aredlinestimulus17.png,None,,,,,,,,,,,,,0,19,19,19,,,,,,,,,,,,,,,,,,,,,,,,,,,,,,,,,,,,,,,,,,,,,,,,45.52451139999903,None,"['1', '2']",0,"[0.0734608000057051, 0.12830830000166316]",45.52451139999903,None,,,,001,2021_Nov_17_1833,TMTAB,2021.2.3,None,
U,['3'],TMTstop-control_1_alinestimulus18.png,TMTstop-control_1_agreenlinestimulus18.png,TMTstop-control_1_aredlinestimulus18.png,None,,,,,,,,,,,,,0,20,20,20,,,,,,,,,,,,,,,,,,,,,,,,,,,,,,,,,,,,,,,,,,,,,,,,45.802180900005624,None,['3'],1,[-0.0019629000016720966],45.802180900005624,None,,,,001,2021_Nov_17_1833,TMTAB,2021.2.3,None,
V,['2'],TMTstop-control_1_alinestimulus19.png,TMTstop-control_1_agreenlinestimulus19.png,TMTstop-control_1_aredlinestimulus19.png,None,,,,,,,,,,,,,0,21,21,21,,,,,,,,,,,,,,,,,,,,,,,,,,,,,,,,,,,,,,,,,,,,,,,,45.94097860000329,None,"['1', '2']",0,"[0.07789969998702873, 0.1295133999956306]",45.94097860000329,None,,,,001,2021_Nov_17_1833,TMTAB,2021.2.3,None,
W,['1'],TMTstop-control_1_alinestimulus20.png,TMTstop-control_1_agreenlinestimulus20.png,TMTstop-control_1_aredlinestimulus20.png,None,,,,,,,,,,,,,0,22,22,22,,,,,,,,,,,,,,,,,,,,,,,,,,,,,,,,,,,,,,,,,,,,,,,,46.21654390000913,None,['3'],0,[0.04266279999865219],46.21654390000913,None,,,,001,2021_Nov_17_1833,TMTAB,2021.2.3,None,
X,['2'],TMTstop-control_1_alinestimulus21.png,TMTstop-control_1_agreenlinestimulus21.png,TMTstop-control_1_aredlinestimulus21.png,None,,,,,,,,,,,,,0,23,23,23,,,,,,,,,,,,,,,,,,,,,,,,,,,,,,,,,,,,,,,,,,,,,,,,46.35938540000643,None,['1'],0,[0.10689599999750499],46.35938540000643,None,,,,001,2021_Nov_17_1833,TMTAB,2021.2.3,None,
Y,['1'],TMTstop-control_1_alinestimulus22.png,TMTstop-control_1_agreenlinestimulus22.png,TMTstop-control_1_aredlinestimulus22.png,None,,,,,,,,,,,,,0,24,24,24,,,,,,,,,,,,,,,,,,,,,,,,,,,,,,,,,,,,,,,,,,,,,,,,46.63059410000278,None,['1'],1,[0.6547844000015175],46.63059410000278,None,,,,001,2021_Nov_17_1833,TMTAB,2021.2.3,None,
None,None,TMTstop-control_1_alinestimulus23.png,TMTstop-control_1_agreenlinestimulus23.png,TMTstop-control_1_aredlinestimulus23.png,None,,,,,,,,,,,,,0,25,25,25,,,,,,,,,,,,,,,,,,,,,,,,,,,,,,,,,,,,,,,,,,,,,,,,47.45923180000682,None,None,1,,47.45923180000682,None,,,,001,2021_Nov_17_1833,TMTAB,2021.2.3,None,
1,['1'],TMTstop-control_1_2.png,TMTstop-control_1_2.png,TMTstop-control_1_2.png,10,,,,,,,,,,,,,,,,,0,0,0,0,,,,,,,,,,,,,,,,,,,,,,,,,,,,,48.4413429999986,None,,,,,,,,,,,,,,51.61302240000805,None,"['1', '2']",0,"[0.6116804000048432, 0.6868161000020336]",51.61302240000805,None,,,,001,2021_Nov_17_1833,TMTAB,2021.2.3,None,
2,['3'],TMTstop-control_1_2.png,TMTstop-control_1_2firstgreen.png,TMTstop-control_1_2firstred.png,10,,,,,,,,,,,,,,,,,0,1,1,1,,,,,,,,,,,,,,,,,,,,,,,,,,,,,,,,,,,,,,,,,,,,52.44113419999485,None,['3'],1,[-0.04207789999782108],52.44113419999485,None,,,,001,2021_Nov_17_1833,TMTAB,2021.2.3,None,
3,['2'],TMTstop-control_1_2linestimulus0.png,TMTstop-control_1_2greenlinestimulus0.png,TMTstop-control_1_2redlinestimulus0.png,10,,,,,,,,,,,,,,,,,0,2,2,2,,,,,,,,,,,,,,,,,,,,,,,,,,,,,,,,,,,,,,,,,,,,52.58042800000112,None,['1'],0,[-0.011982600000919774],52.58042800000112,None,,,,001,2021_Nov_17_1833,TMTAB,2021.2.3,None,
4,['3'],TMTstop-control_1_2linestimulus1.png,TMTstop-control_1_2greenlinestimulus1.png,TMTstop-control_1_2redlinestimulus1.png,10,,,,,,,,,,,,,,,,,0,3,3,3,,,,,,,,,,,,,,,,,,,,,,,,,,,,,,,,,,,,,,,,,,,,52.71881570000551,None,['2'],0,[-0.0814057999959914],52.71881570000551,None,,,,001,2021_Nov_17_1833,TMTAB,2021.2.3,None,
5,['1'],TMTstop-control_1_2linestimulus2.png,TMTstop-control_1_2greenlinestimulus2.png,TMTstop-control_1_2redlinestimulus2.png,10,,,,,,,,,,,,,,,,,0,4,4,4,,,,,,,,,,,,,,,,,,,,,,,,,,,,,,,,,,,,,,,,,,,,52.85786010000447,None,['3'],0,[-0.12833260001207236],52.85786010000447,None,,,,001,2021_Nov_17_1833,TMTAB,2021.2.3,None,
6,['3'],TMTstop-control_1_2linestimulus3.png,TMTstop-control_1_2greenlinestimulus3.png,TMTstop-control_1_2redlinestimulus3.png,10,,,,,,,,,,,,,,,,,0,5,5,5,,,,,,,,,,,,,,,,,,,,,,,,,,,,,,,,,,,,,,,,,,,,52.995308500001556,None,"['1', '2']",0,"[-0.10054870000749361, -0.022841099998913705]",52.995308500001556,None,,,,001,2021_Nov_17_1833,TMTAB,2021.2.3,None,
7,['2'],TMTstop-control_1_2linestimulus4.png,TMTstop-control_1_2greenlinestimulus4.png,TMTstop-control_1_2redlinestimulus4.png,10,,,,,,,,,,,,,,,,,0,6,6,6,,,,,,,,,,,,,,,,,,,,,,,,,,,,,,,,,,,,,,,,,,,,53.13422409999475,None,['3'],0,[-0.024543099993024953],53.13422409999475,None,,,,001,2021_Nov_17_1833,TMTAB,2021.2.3,None,
8,['1'],TMTstop-control_1_2linestimulus4.png,TMTstop-control_1_2greenlinestimulus5.png,TMTstop-control_1_2redlinestimulus5.png,10,,,,,,,,,,,,,,,,,0,7,7,7,,,,,,,,,,,,,,,,,,,,,,,,,,,,,,,,,,,,,,,,,,,,53.27233530000376,None,['1'],1,[-0.048282399991876446],53.27233530000376,None,,,,001,2021_Nov_17_1833,TMTAB,2021.2.3,None,
9,['2'],TMTstop-control_1_2linestimulus6.png,TMTstop-control_1_2greenlinestimulus6.png,TMTstop-control_1_2redlinestimulus6.png,10,,,,,,,,,,,,,,,,,0,8,8,8,,,,,,,,,,,,,,,,,,,,,,,,,,,,,,,,,,,,,,,,,,,,53.411387100000866,None,['2'],1,[-0.11066989999380894],53.411387100000866,None,,,,001,2021_Nov_17_1833,TMTAB,2021.2.3,None,
10,['3'],TMTstop-control_1_2linestimulus7.png,TMTstop-control_1_2greenlinestimulus7.png,TMTstop-control_1_2redlinestimulus7.png,10,,,,,,,,,,,,,,,,,0,9,9,9,,,,,,,,,,,,,,,,,,,,,,,,,,,,,,,,,,,,,,,,,,,,53.54986780000036,None,['3'],1,[-0.12381619999359827],53.54986780000036,None,,,,001,2021_Nov_17_1833,TMTAB,2021.2.3,None,
11,['1'],TMTstop-control_1_2linestimulus8.png,TMTstop-control_1_2greenlinestimulus8.png,TMTstop-control_1_2redlinestimulus8.png,10,,,,,,,,,,,,,,,,,0,10,10,10,,,,,,,,,,,,,,,,,,,,,,,,,,,,,,,,,,,,,,,,,,,,53.688455700001214,None,"['1', '2']",0,"[-0.13711870000406634, -0.0668398999987403]",53.688455700001214,None,,,,001,2021_Nov_17_1833,TMTAB,2021.2.3,None,
12,['2'],TMTstop-control_1_2linestimulus9.png,TMTstop-control_1_2greenlinestimulus9.png,TMTstop-control_1_2redlinestimulus9.png,10,,,,,,,,,,,,,,,,,0,11,11,11,,,,,,,,,,,,,,,,,,,,,,,,,,,,,,,,,,,,,,,,,,,,53.82720870000776,None,['3'],0,[-0.0986618000024464],53.82720870000776,None,,,,001,2021_Nov_17_1833,TMTAB,2021.2.3,None,
13,['3'],TMTstop-control_1_2linestimulus10.png,TMTstop-control_1_2greenlinestimulus10.png,TMTstop-control_1_2redlinestimulus10.png,1,,,,,,,,,,,,,,,,,0,12,12,12,,,,,,,,,,,,,,,,,,,,,,,,,,,,,,,,,,,,,,,,,,,,53.96512300000177,None,['1'],0,[-0.0745840000017779],53.96512300000177,None,,,,001,2021_Nov_17_1833,TMTAB,2021.2.3,None,
14,['1'],TMTstop-control_1_2linestimulus11.png,TMTstop-control_1_2greenlinestimulus11.png,TMTstop-control_1_2redlinestimulus11.png,None,,,,,,,,,,,,,,,,,0,13,13,13,,,,,,,,,,,,,,,,,,,,,,,,,,,,,,,,,,,,,,,,,,,,54.103772400005255,None,['3'],0,[-0.043275300005916506],54.103772400005255,None,,,,001,2021_Nov_17_1833,TMTAB,2021.2.3,None,
15,['2'],TMTstop-control_1_2linestimulus12.png,TMTstop-control_1_2greenlinestimulus12.png,TMTstop-control_1_2redlinestimulus12.png,None,,,,,,,,,,,,,,,,,0,14,14,14,,,,,,,,,,,,,,,,,,,,,,,,,,,,,,,,,,,,,,,,,,,,54.242057499999646,None,"['2', '1']",0,"[-0.08860430000640918, -0.02030699999886565]",54.242057499999646,None,,,,001,2021_Nov_17_1833,TMTAB,2021.2.3,None,
16,['1'],TMTstop-control_1_2linestimulus13.png,TMTstop-control_1_2greenlinestimulus13.png,TMTstop-control_1_2redlinestimulus13.png,None,,,,,,,,,,,,,,,,,0,15,15,15,,,,,,,,,,,,,,,,,,,,,,,,,,,,,,,,,,,,,,,,,,,,54.380727099996875,None,['3'],0,[-0.011816799989901483],54.380727099996875,None,,,,001,2021_Nov_17_1833,TMTAB,2021.2.3,None,
17,['2'],TMTstop-control_1_2linestimulus14.png,TMTstop-control_1_2greenlinestimulus14.png,TMTstop-control_1_2redlinestimulus14.png,None,,,,,,,,,,,,,,,,,0,16,16,16,,,,,,,,,,,,,,,,,,,,,,,,,,,,,,,,,,,,,,,,,,,,54.51935470000899,None,['1'],0,[0.005706299998564646],54.51935470000899,None,,,,001,2021_Nov_17_1833,TMTAB,2021.2.3,None,
18,['1'],TMTstop-control_1_2linestimulus15.png,TMTstop-control_1_2greenlinestimulus15.png,TMTstop-control_1_2redlinestimulus15.png,None,,,,,,,,,,,,,,,,,0,17,17,17,,,,,,,,,,,,,,,,,,,,,,,,,,,,,,,,,,,,,,,,,,,,54.65865690000646,None,['2'],0,[-0.03172489999269601],54.65865690000646,None,,,,001,2021_Nov_17_1833,TMTAB,2021.2.3,None,
19,['3'],TMTstop-control_1_2linestimulus16.png,TMTstop-control_1_2greenlinestimulus16.png,TMTstop-control_1_2redlinestimulus16.png,None,,,,,,,,,,,,,,,,,0,18,18,18,,,,,,,,,,,,,,,,,,,,,,,,,,,,,,,,,,,,,,,,,,,,54.7964318000013,None,['3'],1,[-0.031618900000466965],54.7964318000013,None,,,,001,2021_Nov_17_1833,TMTAB,2021.2.3,None,
20,['1'],TMTstop-control_1_2linestimulus17.png,TMTstop-control_1_2greenlinestimulus17.png,TMTstop-control_1_2redlinestimulus17.png,None,,,,,,,,,,,,,,,,,0,19,19,19,,,,,,,,,,,,,,,,,,,,,,,,,,,,,,,,,,,,,,,,,,,,54.93476420000661,None,['1'],1,[0.0038198999973246828],54.93476420000661,None,,,,001,2021_Nov_17_1833,TMTAB,2021.2.3,None,
21,['2'],TMTstop-control_1_2linestimulus18.png,TMTstop-control_1_2greenlinestimulus18.png,TMTstop-control_1_2redlinestimulus18.png,None,,,,,,,,,,,,,,,,,0,20,20,20,,,,,,,,,,,,,,,,,,,,,,,,,,,,,,,,,,,,,,,,,,,,55.073089500001515,None,['2'],1,[-0.030024699997738935],55.073089500001515,None,,,,001,2021_Nov_17_1833,TMTAB,2021.2.3,None,
22,['1'],TMTstop-control_1_2linestimulus19.png,TMTstop-control_1_2greenlinestimulus19.png,TMTstop-control_1_2redlinestimulus19.png,None,,,,,,,,,,,,,,,,,0,21,21,21,,,,,,,,,,,,,,,,,,,,,,,,,,,,,,,,,,,,,,,,,,,,55.21124210000562,None,['3'],0,[-0.08186379999096971],55.21124210000562,None,,,,001,2021_Nov_17_1833,TMTAB,2021.2.3,None,
23,['3'],TMTstop-control_1_2linestimulus20.png,TMTstop-control_1_2greenlinestimulus20.png,TMTstop-control_1_2redlinestimulus20.png,None,,,,,,,,,,,,,,,,,0,22,22,22,,,,,,,,,,,,,,,,,,,,,,,,,,,,,,,,,,,,,,,,,,,,55.349766100000124,None,"['1', '2']",0,"[-0.07170840000617318, 0.00042019999818876386]",55.349766100000124,None,,,,001,2021_Nov_17_1833,TMTAB,2021.2.3,None,
24,['1'],TMTstop-control_1_2linestimulus21.png,TMTstop-control_1_2greenlinestimulus21.png,TMTstop-control_1_2redlinestimulus21.png,None,,,,,,,,,,,,,,,,,0,23,23,23,,,,,,,,,,,,,,,,,,,,,,,,,,,,,,,,,,,,,,,,,,,,55.48887000000104,None,['3'],0,[-0.03298170000198297],55.48887000000104,None,,,,001,2021_Nov_17_1833,TMTAB,2021.2.3,None,
25,['3'],TMTstop-control_1_2linestimulus22.png,TMTstop-control_1_2greenlinestimulus22.png,TMTstop-control_1_2redlinestimulus22.png,None,,,,,,,,,,,,,,,,,0,24,24,24,,,,,,,,,,,,,,,,,,,,,,,,,,,,,,,,,,,,,,,,,,,,55.626585000005434,None,['1'],0,[-0.027428200002759695],55.626585000005434,None,,,,001,2021_Nov_17_1833,TMTAB,2021.2.3,None,
None,None,TMTstop-control_1_2linestimulus23.png,TMTstop-control_1_2greenlinestimulus23.png,TMTstop-control_1_2redlinestimulus23.png,None,,,,,,,,,,,,,,,,,0,25,25,25,,,,,,,,,,,,,,,,,,,,,,,,,,,,,,,,,,,,,,,,,,,,55.76596289999725,None,"['2', '3']",0,"[-0.10146230000827927, -0.010493299996596761]",55.76596289999725,None,,,,001,2021_Nov_17_1833,TMTAB,2021.2.3,None,
A,['1'],TMTstop-control_1_b.png,TMTstop-control_1_b.png,TMTstop-control_1_b.png,10,,,,,,,,,,,,,,,,,,,,,0,0,0,0,,,,,,,,,,,,,,,,,,,,,,,,,55.77815600000031,None,,,,,,,,,,,,,,58.921185900006094,None,"['1', '2']",0,"[-3.0609261999925366, -2.941189099990879]",58.921185900006094,None,,,,001,2021_Nov_17_1833,TMTAB,2021.2.3,None,
B,['2'],TMTstop-control_1_b.png,TMTstop-control_1_bfirstgreen.png,TMTstop-control_1_bfirstred.png,10,,,,,,,,,,,,,,,,,,,,,0,1,1,1,,,,,,,,,,,,,,,,,,,,,,,,,,,,,,,,,,,,,,,,59.06046370000695,None,['2'],1,[0.9857457999896724],59.06046370000695,None,,,,001,2021_Nov_17_1833,TMTAB,2021.2.3,None,
C,['1'],TMTstop-control_1_blinestimulus0.png,TMTstop-control_1_bgreenlinestimulus0.png,TMTstop-control_1_bredlinestimulus0.png,10,,,,,,,,,,,,,,,,,,,,,0,2,2,2,,,,,,,,,,,,,,,,,,,,,,,,,,,,,,,,,,,,,,,,60.16819050000049,None,"['3', '1']",0,"[0.09893659999943338, 0.10287930000049528]",60.16819050000049,None,,,,001,2021_Nov_17_1833,TMTAB,2021.2.3,None,
D,['3'],TMTstop-control_1_blinestimulus1.png,TMTstop-control_1_bgreenlinestimulus1.png,TMTstop-control_1_bredlinestimulus1.png,10,,,,,,,,,,,,,,,,,,,,,0,3,3,3,,,,,,,,,,,,,,,,,,,,,,,,,,,,,,,,,,,,,,,,60.447506199998315,None,['1'],0,[0.03030420000141021],60.447506199998315,None,,,,001,2021_Nov_17_1833,TMTAB,2021.2.3,None,
E,['1'],TMTstop-control_1_blinestimulus2.png,TMTstop-control_1_bgreenlinestimulus2.png,TMTstop-control_1_bredlinestimulus2.png,10,,,,,,,,,,,,,,,,,,,,,0,4,4,4,,,,,,,,,,,,,,,,,,,,,,,,,,,,,,,,,,,,,,,,60.6026572999981,None,['2'],0,[-0.06544249999569729],60.6026572999981,None,,,,001,2021_Nov_17_1833,TMTAB,2021.2.3,None,
F,['3'],TMTstop-control_1_blinestimulus3.png,TMTstop-control_1_bgreenlinestimulus3.png,TMTstop-control_1_bredlinestimulus3.png,10,,,,,,,,,,,,,,,,,,,,,0,5,5,5,,,,,,,,,,,,,,,,,,,,,,,,,,,,,,,,,,,,,,,,60.72124850000546,None,['3'],1,[-0.08773470000596717],60.72124850000546,None,,,,001,2021_Nov_17_1833,TMTAB,2021.2.3,None,
G,['2'],TMTstop-control_1_blinestimulus4.png,TMTstop-control_1_bgreenlinestimulus4.png,TMTstop-control_1_bredlinestimulus4.png,10,,,,,,,,,,,,,,,,,,,,,0,6,6,6,,,,,,,,,,,,,,,,,,,,,,,,,,,,,,,,,,,,,,,,60.859156799997436,None,['1'],0,[-0.0373950000066543],60.859156799997436,None,,,,001,2021_Nov_17_1833,TMTAB,2021.2.3,None,
H,['1'],TMTstop-control_1_blinestimulus5.png,TMTstop-control_1_bgreenlinestimulus5.png,TMTstop-control_1_bredlinestimulus5.png,10,,,,,,,,,,,,,,,,,,,,,0,7,7,7,,,,,,,,,,,,,,,,,,,,,,,,,,,,,,,,,,,,,,,,60.997228200008976,None,"['2', '3']",0,"[-0.1199406999949133, 0.0006345000001601875]",60.997228200008976,None,,,,001,2021_Nov_17_1833,TMTAB,2021.2.3,None,
I,['3'],TMTstop-control_1_blinestimulus6.png,TMTstop-control_1_bgreenlinestimulus6.png,TMTstop-control_1_bredlinestimulus6.png,10,,,,,,,,,,,,,,,,,,,,,0,8,8,8,,,,,,,,,,,,,,,,,,,,,,,,,,,,,,,,,,,,,,,,61.13574759999756,None,['1'],0,[0.06694659999629948],61.13574759999756,None,,,,001,2021_Nov_17_1833,TMTAB,2021.2.3,None,
J,['1'],TMTstop-control_1_blinestimulus7.png,TMTstop-control_1_bgreenlinestimulus7.png,TMTstop-control_1_bredlinestimulus7.png,10,,,,,,,,,,,,,,,,,,,,,0,9,9,9,,,,,,,,,,,,,,,,,,,,,,,,,,,,,,,,,,,,,,,,61.33542099999613,None,['2'],0,[0.0005899000097997487],61.33542099999613,None,,,,001,2021_Nov_17_1833,TMTAB,2021.2.3,None,
K,['2'],TMTstop-control_1_blinestimulus8.png,TMTstop-control_1_bgreenlinestimulus8.png,TMTstop-control_1_bredlinestimulus8.png,10,,,,,,,,,,,,,,,,,,,,,0,10,10,10,,,,,,,,,,,,,,,,,,,,,,,,,,,,,,,,,,,,,,,,61.473311000008835,None,['3'],0,[-0.09141290000115987],61.473311000008835,None,,,,001,2021_Nov_17_1833,TMTAB,2021.2.3,None,
L,['1'],TMTstop-control_1_blinestimulus9.png,TMTstop-control_1_bgreenlinestimulus9.png,TMTstop-control_1_bredlinestimulus9.png,10,,,,,,,,,,,,,,,,,,,,,0,11,11,11,,,,,,,,,,,,,,,,,,,,,,,,,,,,,,,,,,,,,,,,61.6123976999952,None,['1'],1,[-0.022041400006855838],61.6123976999952,None,,,,001,2021_Nov_17_1833,TMTAB,2021.2.3,None,
M,['2'],TMTstop-control_1_blinestimulus10.png,TMTstop-control_1_bgreenlinestimulus10.png,TMTstop-control_1_bredlinestimulus10.png,1,,,,,,,,,,,,,,,,,,,,,0,12,12,12,,,,,,,,,,,,,,,,,,,,,,,,,,,,,,,,,,,,,,,,61.75106490000326,None,"['2', '3']",0,"[-0.08430349999980535, -7.700000423938036e-06]",61.75106490000326,None,,,,001,2021_Nov_17_1833,TMTAB,2021.2.3,None,
N,['1'],TMTstop-control_1_blinestimulus11.png,TMTstop-control_1_bgreenlinestimulus11.png,TMTstop-control_1_bredlinestimulus11.png,None,,,,,,,,,,,,,,,,,,,,,0,13,13,13,,,,,,,,,,,,,,,,,,,,,,,,,,,,,,,,,,,,,,,,61.889724699998624,None,['1'],1,[0.011020599995390512],61.889724699998624,None,,,,001,2021_Nov_17_1833,TMTAB,2021.2.3,None,
O,['3'],TMTstop-control_1_blinestimulus12.png,TMTstop-control_1_bgreenlinestimulus12.png,TMTstop-control_1_bredlinestimulus12.png,None,,,,,,,,,,,,,,,,,,,,,0,14,14,14,,,,,,,,,,,,,,,,,,,,,,,,,,,,,,,,,,,,,,,,62.02876030000334,None,['2'],0,[-0.04017290000047069],62.02876030000334,None,,,,001,2021_Nov_17_1833,TMTAB,2021.2.3,None,
P,['1'],TMTstop-control_1_blinestimulus13.png,TMTstop-control_1_bgreenlinestimulus13.png,TMTstop-control_1_bredlinestimulus13.png,None,,,,,,,,,,,,,,,,,,,,,0,15,15,15,,,,,,,,,,,,,,,,,,,,,,,,,,,,,,,,,,,,,,,,62.16850549999799,None,['3'],0,[-0.08242200000677258],62.16850549999799,None,,,,001,2021_Nov_17_1833,TMTAB,2021.2.3,None,
Q,['3'],TMTstop-control_1_blinestimulus14.png,TMTstop-control_1_bgreenlinestimulus14.png,TMTstop-control_1_bredlinestimulus14.png,None,,,,,,,,,,,,,,,,,,,,,0,16,16,16,,,,,,,,,,,,,,,,,,,,,,,,,,,,,,,,,,,,,,,,62.306527699998696,None,"['1', '2']",0,"[-0.09358630000497214, -0.005431300000054762]",62.306527699998696,None,,,,001,2021_Nov_17_1833,TMTAB,2021.2.3,None,
R,['2'],TMTstop-control_1_blinestimulus15.png,TMTstop-control_1_bgreenlinestimulus15.png,TMTstop-control_1_bredlinestimulus15.png,None,,,,,,,,,,,,,,,,,,,,,0,17,17,17,,,,,,,,,,,,,,,,,,,,,,,,,,,,,,,,,,,,,,,,62.44393480000144,None,['3'],0,[-0.05473960000381339],62.44393480000144,None,,,,001,2021_Nov_17_1833,TMTAB,2021.2.3,None,
S,['1'],TMTstop-control_1_blinestimulus16.png,TMTstop-control_1_bgreenlinestimulus16.png,TMTstop-control_1_bredlinestimulus16.png,None,,,,,,,,,,,,,,,,,,,,,0,18,18,18,,,,,,,,,,,,,,,,,,,,,,,,,,,,,,,,,,,,,,,,62.582654199999524,None,['1'],1,[-0.06095949999871664],62.582654199999524,None,,,,001,2021_Nov_17_1833,TMTAB,2021.2.3,None,
T,['3'],TMTstop-control_1_blinestimulus17.png,TMTstop-control_1_bgreenlinestimulus17.png,TMTstop-control_1_bredlinestimulus17.png,None,,,,,,,,,,,,,,,,,,,,,0,19,19,19,,,,,,,,,,,,,,,,,,,,,,,,,,,,,,,,,,,,,,,,62.72109210000781,None,"['2', '3']",0,"[-0.1318468999961624, -0.03350299999874551]",62.72109210000781,None,,,,001,2021_Nov_17_1833,TMTAB,2021.2.3,None,
U,['1'],TMTstop-control_1_blinestimulus18.png,TMTstop-control_1_bgreenlinestimulus18.png,TMTstop-control_1_bredlinestimulus18.png,None,,,,,,,,,,,,,,,,,,,,,0,20,20,20,,,,,,,,,,,,,,,,,,,,,,,,,,,,,,,,,,,,,,,,62.858563700006926,None,['1'],1,[-0.024828700014040805],62.858563700006926,None,,,,001,2021_Nov_17_1833,TMTAB,2021.2.3,None,
V,['2'],TMTstop-control_1_blinestimulus19.png,TMTstop-control_1_bgreenlinestimulus19.png,TMTstop-control_1_bredlinestimulus19.png,None,,,,,,,,,,,,,,,,,,,,,0,21,21,21,,,,,,,,,,,,,,,,,,,,,,,,,,,,,,,,,,,,,,,,62.99757190000673,None,['2'],1,[-0.095897099992726],62.99757190000673,None,,,,001,2021_Nov_17_1833,TMTAB,2021.2.3,None,
W,['1'],TMTstop-control_1_blinestimulus20.png,TMTstop-control_1_bgreenlinestimulus20.png,TMTstop-control_1_bredlinestimulus20.png,None,,,,,,,,,,,,,,,,,,,,,0,22,22,22,,,,,,,,,,,,,,,,,,,,,,,,,,,,,,,,,,,,,,,,63.13496060000034,None,['3'],0,[-0.11243699998885859],63.13496060000034,None,,,,001,2021_Nov_17_1833,TMTAB,2021.2.3,None,
X,['2'],TMTstop-control_1_blinestimulus21.png,TMTstop-control_1_bgreenlinestimulus21.png,TMTstop-control_1_bredlinestimulus21.png,None,,,,,,,,,,,,,,,,,,,,,0,23,23,23,,,,,,,,,,,,,,,,,,,,,,,,,,,,,,,,,,,,,,,,63.272121400004835,None,['1'],0,[-0.12293509999290109],63.272121400004835,None,,,,001,2021_Nov_17_1833,TMTAB,2021.2.3,None,
Y,['3'],TMTstop-control_1_blinestimulus22.png,TMTstop-control_1_bgreenlinestimulus22.png,TMTstop-control_1_bredlinestimulus22.png,None,,,,,,,,,,,,,,,,,,,,,0,24,24,24,,,,,,,,,,,,,,,,,,,,,,,,,,,,,,,,,,,,,,,,63.41107170000032,None,['3'],1,[0.7443552999902749],63.41107170000032,None,,,,001,2021_Nov_17_1833,TMTAB,2021.2.3,None,
None,None,TMTstop-control_1_blinestimulus23.png,TMTstop-control_1_bgreenlinestimulus23.png,TMTstop-control_1_bredlinestimulus23.png,None,,,,,,,,,,,,,,,,,,,,,0,25,25,25,,,,,,,,,,,,,,,,,,,,,,,,,,,,,,,,,,,,,,,,64.37872819999757,None,None,1,,64.37872819999757,None,,,,001,2021_Nov_17_1833,TMTAB,2021.2.3,None,
1,['3'],TMTstop-control_1_3.png,TMTstop-control_1_3.png,TMTstop-control_1_3.png,10,,,,,,,,,,,,,,,,,,,,,,,,,0,0,0,0,,,,,,,,,,,,,,,,,,,,,65.36590469999646,None,,,,,,,,,,,,,,68.52229390000866,None,"['2', '3', '1']",0,"[-2.4971451000019442, -2.2885222000040812, -1.8320174999971641]",68.52229390000866,None,,,,001,2021_Nov_17_1833,TMTAB,2021.2.3,None,
2,['1'],TMTstop-control_1_3.png,TMTstop-control_1_3firstgreen.png,TMTstop-control_1_3firstred.png,10,,,,,,,,,,,,,,,,,,,,,,,,,0,1,1,1,,,,,,,,,,,,,,,,,,,,,,,,,,,,,,,,,,,,68.66054540000914,None,['3'],0,[0.7980493999930331],68.66054540000914,None,,,,001,2021_Nov_17_1833,TMTAB,2021.2.3,None,
3,['3'],TMTstop-control_1_3linestimulus0.png,TMTstop-control_1_3greenlinestimulus0.png,TMTstop-control_1_3redlinestimulus0.png,10,,,,,,,,,,,,,,,,,,,,,,,,,0,2,2,2,,,,,,,,,,,,,,,,,,,,,,,,,,,,,,,,,,,,69.62948139999935,None,['1'],0,[0.20981489999394398],69.62948139999935,None,,,,001,2021_Nov_17_1833,TMTAB,2021.2.3,None,
4,['1'],TMTstop-control_1_3linestimulus1.png,TMTstop-control_1_3greenlinestimulus1.png,TMTstop-control_1_3redlinestimulus1.png,10,,,,,,,,,,,,,,,,,,,,,,,,,0,3,3,3,,,,,,,,,,,,,,,,,,,,,,,,,,,,,,,,,,,,70.04463699999906,None,['2'],0,[0.05227849999209866],70.04463699999906,None,,,,001,2021_Nov_17_1833,TMTAB,2021.2.3,None,
5,['3'],TMTstop-control_1_3linestimulus2.png,TMTstop-control_1_3greenlinestimulus2.png,TMTstop-control_1_3redlinestimulus2.png,10,,,,,,,,,,,,,,,,,,,,,,,,,0,4,4,4,,,,,,,,,,,,,,,,,,,,,,,,,,,,,,,,,,,,70.1839980000077,None,['3'],1,[0.07360819999303203],70.1839980000077,None,,,,001,2021_Nov_17_1833,TMTAB,2021.2.3,None,
6,['2'],TMTstop-control_1_3linestimulus3.png,TMTstop-control_1_3greenlinestimulus3.png,TMTstop-control_1_3redlinestimulus3.png,10,,,,,,,,,,,,,,,,,,,,,,,,,0,5,5,5,,,,,,,,,,,,,,,,,,,,,,,,,,,,,,,,,,,,70.45947889999661,None,['1'],0,[0.007384899989119731],70.45947889999661,None,,,,001,2021_Nov_17_1833,TMTAB,2021.2.3,None,
7,['1'],TMTstop-control_1_3linestimulus4.png,TMTstop-control_1_3greenlinestimulus4.png,TMTstop-control_1_3redlinestimulus4.png,10,,,,,,,,,,,,,,,,,,,,,,,,,0,6,6,6,,,,,,,,,,,,,,,,,,,,,,,,,,,,,,,,,,,,70.59740440000314,None,['2'],0,[-0.06156659999396652],70.59740440000314,None,,,,001,2021_Nov_17_1833,TMTAB,2021.2.3,None,
8,['3'],TMTstop-control_1_3linestimulus4.png,TMTstop-control_1_3greenlinestimulus5.png,TMTstop-control_1_3redlinestimulus5.png,10,,,,,,,,,,,,,,,,,,,,,,,,,0,7,7,7,,,,,,,,,,,,,,,,,,,,,,,,,,,,,,,,,,,,70.73560500000895,None,['3'],1,[-0.057397900003707036],70.73560500000895,None,,,,001,2021_Nov_17_1833,TMTAB,2021.2.3,None,
9,['2'],TMTstop-control_1_3linestimulus6.png,TMTstop-control_1_3greenlinestimulus6.png,TMTstop-control_1_3redlinestimulus6.png,10,,,,,,,,,,,,,,,,,,,,,,,,,0,8,8,8,,,,,,,,,,,,,,,,,,,,,,,,,,,,,,,,,,,,70.87453300000925,None,['1'],0,[0.5058036999980686],70.87453300000925,None,,,,001,2021_Nov_17_1833,TMTAB,2021.2.3,None,
10,['3'],TMTstop-control_1_3linestimulus7.png,TMTstop-control_1_3greenlinestimulus7.png,TMTstop-control_1_3redlinestimulus7.png,10,,,,,,,,,,,,,,,,,,,,,,,,,0,9,9,9,,,,,,,,,,,,,,,,,,,,,,,,,,,,,,,,,,,,71.50455710000824,None,['2'],0,[0.017108199986978434],71.50455710000824,None,,,,001,2021_Nov_17_1833,TMTAB,2021.2.3,None,
11,['2'],TMTstop-control_1_3linestimulus8.png,TMTstop-control_1_3greenlinestimulus8.png,TMTstop-control_1_3redlinestimulus8.png,10,,,,,,,,,,,,,,,,,,,,,,,,,0,10,10,10,,,,,,,,,,,,,,,,,,,,,,,,,,,,,,,,,,,,71.63980750000337,None,['3'],0,[-0.04769089999899734],71.63980750000337,None,,,,001,2021_Nov_17_1833,TMTAB,2021.2.3,None,
12,['1'],TMTstop-control_1_3linestimulus9.png,TMTstop-control_1_3greenlinestimulus9.png,TMTstop-control_1_3redlinestimulus9.png,10,,,,,,,,,,,,,,,,,,,,,,,,,0,11,11,11,,,,,,,,,,,,,,,,,,,,,,,,,,,,,,,,,,,,71.76659919999656,None,['1'],1,[0.012859199996455573],71.76659919999656,None,,,,001,2021_Nov_17_1833,TMTAB,2021.2.3,None,
13,['2'],TMTstop-control_1_3linestimulus10.png,TMTstop-control_1_3greenlinestimulus10.png,TMTstop-control_1_3redlinestimulus10.png,1,,,,,,,,,,,,,,,,,,,,,,,,,0,12,12,12,,,,,,,,,,,,,,,,,,,,,,,,,,,,,,,,,,,,71.90399800000887,None,['2'],1,[-0.040941300001577474],71.90399800000887,None,,,,001,2021_Nov_17_1833,TMTAB,2021.2.3,None,
14,['3'],TMTstop-control_1_3linestimulus11.png,TMTstop-control_1_3greenlinestimulus11.png,TMTstop-control_1_3redlinestimulus11.png,None,,,,,,,,,,,,,,,,,,,,,,,,,0,13,13,13,,,,,,,,,,,,,,,,,,,,,,,,,,,,,,,,,,,,72.04136790000484,None,['3'],1,[-0.06996229999640491],72.04136790000484,None,,,,001,2021_Nov_17_1833,TMTAB,2021.2.3,None,
15,['2'],TMTstop-control_1_3linestimulus12.png,TMTstop-control_1_3greenlinestimulus12.png,TMTstop-control_1_3redlinestimulus12.png,None,,,,,,,,,,,,,,,,,,,,,,,,,0,14,14,14,,,,,,,,,,,,,,,,,,,,,,,,,,,,,,,,,,,,72.17949670000235,None,['1'],0,[-0.060446600007708184],72.17949670000235,None,,,,001,2021_Nov_17_1833,TMTAB,2021.2.3,None,
16,['1'],TMTstop-control_1_3linestimulus13.png,TMTstop-control_1_3greenlinestimulus13.png,TMTstop-control_1_3redlinestimulus13.png,None,,,,,,,,,,,,,,,,,,,,,,,,,0,15,15,15,,,,,,,,,,,,,,,,,,,,,,,,,,,,,,,,,,,,72.31879089999711,None,"['2', '3']",0,"[-0.11402710000402294, -0.037372100006905384]",72.31879089999711,None,,,,001,2021_Nov_17_1833,TMTAB,2021.2.3,None,
17,['2'],TMTstop-control_1_3linestimulus14.png,TMTstop-control_1_3greenlinestimulus14.png,TMTstop-control_1_3redlinestimulus14.png,None,,,,,,,,,,,,,,,,,,,,,,,,,0,16,16,16,,,,,,,,,,,,,,,,,,,,,,,,,,,,,,,,,,,,72.45684850000544,None,['1'],0,[-0.0160050999984378],72.45684850000544,None,,,,001,2021_Nov_17_1833,TMTAB,2021.2.3,None,
18,['3'],TMTstop-control_1_3linestimulus15.png,TMTstop-control_1_3greenlinestimulus15.png,TMTstop-control_1_3redlinestimulus15.png,None,,,,,,,,,,,,,,,,,,,,,,,,,0,17,17,17,,,,,,,,,,,,,,,,,,,,,,,,,,,,,,,,,,,,72.59501109999837,None,['2'],0,[-0.08277540000563022],72.59501109999837,None,,,,001,2021_Nov_17_1833,TMTAB,2021.2.3,None,
19,['1'],TMTstop-control_1_3linestimulus16.png,TMTstop-control_1_3greenlinestimulus16.png,TMTstop-control_1_3redlinestimulus16.png,None,,,,,,,,,,,,,,,,,,,,,,,,,0,18,18,18,,,,,,,,,,,,,,,,,,,,,,,,,,,,,,,,,,,,72.73403170000529,None,['3'],0,[-0.135107699999935],72.73403170000529,None,,,,001,2021_Nov_17_1833,TMTAB,2021.2.3,None,
20,['2'],TMTstop-control_1_3linestimulus17.png,TMTstop-control_1_3greenlinestimulus17.png,TMTstop-control_1_3redlinestimulus17.png,None,,,,,,,,,,,,,,,,,,,,,,,,,0,19,19,19,,,,,,,,,,,,,,,,,,,,,,,,,,,,,,,,,,,,72.87211850000313,None,['1'],0,[-0.10324690000561532],72.87211850000313,None,,,,001,2021_Nov_17_1833,TMTAB,2021.2.3,None,
21,['3'],TMTstop-control_1_3linestimulus18.png,TMTstop-control_1_3greenlinestimulus18.png,TMTstop-control_1_3redlinestimulus18.png,None,,,,,,,,,,,,,,,,,,,,,,,,,0,20,20,20,,,,,,,,,,,,,,,,,,,,,,,,,,,,,,,,,,,,73.01070250000339,None,['2'],0,[-0.11941489999298938],73.01070250000339,None,,,,001,2021_Nov_17_1833,TMTAB,2021.2.3,None,
22,['2'],TMTstop-control_1_3linestimulus19.png,TMTstop-control_1_3greenlinestimulus19.png,TMTstop-control_1_3redlinestimulus19.png,None,,,,,,,,,,,,,,,,,,,,,,,,,0,21,21,21,,,,,,,,,,,,,,,,,,,,,,,,,,,,,,,,,,,,73.15060059999814,None,['1'],0,[0.6284187999990536],73.15060059999814,None,,,,001,2021_Nov_17_1833,TMTAB,2021.2.3,None,
23,['1'],TMTstop-control_1_3linestimulus20.png,TMTstop-control_1_3greenlinestimulus20.png,TMTstop-control_1_3redlinestimulus20.png,None,,,,,,,,,,,,,,,,,,,,,,,,,0,22,22,22,,,,,,,,,,,,,,,,,,,,,,,,,,,,,,,,,,,,73.98014830000466,None,['2'],0,[-0.029906499999924563],73.98014830000466,None,,,,001,2021_Nov_17_1833,TMTAB,2021.2.3,None,
24,['3'],TMTstop-control_1_3linestimulus21.png,TMTstop-control_1_3greenlinestimulus21.png,TMTstop-control_1_3redlinestimulus21.png,None,,,,,,,,,,,,,,,,,,,,,,,,,0,23,23,23,,,,,,,,,,,,,,,,,,,,,,,,,,,,,,,,,,,,74.11851460000616,None,['3'],1,[-0.09746749998885207],74.11851460000616,None,,,,001,2021_Nov_17_1833,TMTAB,2021.2.3,None,
25,['1'],TMTstop-control_1_3linestimulus22.png,TMTstop-control_1_3greenlinestimulus22.png,TMTstop-control_1_3redlinestimulus22.png,None,,,,,,,,,,,,,,,,,,,,,,,,,0,24,24,24,,,,,,,,,,,,,,,,,,,,,,,,,,,,,,,,,,,,74.25842680000642,None,['1'],1,[-0.03812669999024365],74.25842680000642,None,,,,001,2021_Nov_17_1833,TMTAB,2021.2.3,None,
None,None,TMTstop-control_1_3linestimulus23.png,TMTstop-control_1_3greenlinestimulus23.png,TMTstop-control_1_3redlinestimulus23.png,None,,,,,,,,,,,,,,,,,,,,,,,,,0,25,25,25,,,,,,,,,,,,,,,,,,,,,,,,,,,,,,,,,,,,74.39631280000322,None,['2'],0,[-0.010927800001809373],74.39631280000322,None,,,,001,2021_Nov_17_1833,TMTAB,2021.2.3,None,
A,['2'],TMTstop-control_1_c.png,TMTstop-control_1_c.png,TMTstop-control_1_c.png,10,,,,,,,,,,,,,,,,,,,,,,,,,,,,,0,0,0,0,,,,,,,,,,,,,,,,,74.41834469999594,None,,,,,,,,,,,,,,77.49046129999624,None,['1'],0,[0.5398817999957828],77.49046129999624,None,,,,001,2021_Nov_17_1833,TMTAB,2021.2.3,None,
B,['1'],TMTstop-control_1_c.png,TMTstop-control_1_cfirstgreen.png,TMTstop-control_1_cfirstred.png,10,,,,,,,,,,,,,,,,,,,,,,,,,,,,,0,1,1,1,,,,,,,,,,,,,,,,,,,,,,,,,,,,,,,,78.12166140000045,None,['2'],0,[-0.03642640000907704],78.12166140000045,None,,,,001,2021_Nov_17_1833,TMTAB,2021.2.3,None,
C,['2'],TMTstop-control_1_clinestimulus0.png,TMTstop-control_1_cgreenlinestimulus0.png,TMTstop-control_1_credlinestimulus0.png,10,,,,,,,,,,,,,,,,,,,,,,,,,,,,,0,2,2,2,,,,,,,,,,,,,,,,,,,,,,,,,,,,,,,,78.25930499999959,None,['3'],0,[-0.06287540000630543],78.25930499999959,None,,,,001,2021_Nov_17_1833,TMTAB,2021.2.3,None,
D,['3'],TMTstop-control_1_clinestimulus1.png,TMTstop-control_1_cgreenlinestimulus1.png,TMTstop-control_1_credlinestimulus1.png,10,,,,,,,,,,,,,,,,,,,,,,,,,,,,,0,3,3,3,,,,,,,,,,,,,,,,,,,,,,,,,,,,,,,,78.39659000000393,None,['1'],0,[-0.007664299992029555],78.39659000000393,None,,,,001,2021_Nov_17_1833,TMTAB,2021.2.3,None,
E,['2'],TMTstop-control_1_clinestimulus2.png,TMTstop-control_1_cgreenlinestimulus2.png,TMTstop-control_1_credlinestimulus2.png,10,,,,,,,,,,,,,,,,,,,,,,,,,,,,,0,4,4,4,,,,,,,,,,,,,,,,,,,,,,,,,,,,,,,,78.53453590000572,None,['2'],1,[-0.10679669999808539],78.53453590000572,None,,,,001,2021_Nov_17_1833,TMTAB,2021.2.3,None,
F,['3'],TMTstop-control_1_clinestimulus3.png,TMTstop-control_1_cgreenlinestimulus3.png,TMTstop-control_1_credlinestimulus3.png,10,,,,,,,,,,,,,,,,,,,,,,,,,,,,,0,5,5,5,,,,,,,,,,,,,,,,,,,,,,,,,,,,,,,,78.67337099999713,None,['3'],1,[-0.13372050000180025],78.67337099999713,None,,,,001,2021_Nov_17_1833,TMTAB,2021.2.3,None,
G,['1'],TMTstop-control_1_clinestimulus4.png,TMTstop-control_1_cgreenlinestimulus4.png,TMTstop-control_1_credlinestimulus4.png,10,,,,,,,,,,,,,,,,,,,,,,,,,,,,,0,6,6,6,,,,,,,,,,,,,,,,,,,,,,,,,,,,,,,,78.81194890000916,None,"['1', '2']",0,"[-0.0961405999987619, -0.0597630999982357]",78.81194890000916,None,,,,001,2021_Nov_17_1833,TMTAB,2021.2.3,None,
H,['3'],TMTstop-control_1_clinestimulus5.png,TMTstop-control_1_cgreenlinestimulus5.png,TMTstop-control_1_credlinestimulus5.png,10,,,,,,,,,,,,,,,,,,,,,,,,,,,,,0,7,7,7,,,,,,,,,,,,,,,,,,,,,,,,,,,,,,,,78.94997260000673,None,['3'],1,[-0.05208850000053644],78.94997260000673,None,,,,001,2021_Nov_17_1833,TMTAB,2021.2.3,None,
I,['1'],TMTstop-control_1_clinestimulus6.png,TMTstop-control_1_cgreenlinestimulus6.png,TMTstop-control_1_credlinestimulus6.png,10,,,,,,,,,,,,,,,,,,,,,,,,,,,,,0,8,8,8,,,,,,,,,,,,,,,,,,,,,,,,,,,,,,,,79.08819429999858,None,['1'],1,[-0.0642529999895487],79.08819429999858,None,,,,001,2021_Nov_17_1833,TMTAB,2021.2.3,None,
J,['2'],TMTstop-control_1_clinestimulus7.png,TMTstop-control_1_cgreenlinestimulus7.png,TMTstop-control_1_credlinestimulus7.png,10,,,,,,,,,,,,,,,,,,,,,,,,,,,,,0,9,9,9,,,,,,,,,,,,,,,,,,,,,,,,,,,,,,,,79.22601670000586,None,"['2', '3']",0,"[-0.12823599998955615, -0.046525999990990385]",79.22601670000586,None,,,,001,2021_Nov_17_1833,TMTAB,2021.2.3,None,
K,['3'],TMTstop-control_1_clinestimulus8.png,TMTstop-control_1_cgreenlinestimulus8.png,TMTstop-control_1_credlinestimulus8.png,10,,,,,,,,,,,,,,,,,,,,,,,,,,,,,0,10,10,10,,,,,,,,,,,,,,,,,,,,,,,,,,,,,,,,79.36488280000049,None,['1'],0,[-0.0517349000001559],79.36488280000049,None,,,,001,2021_Nov_17_1833,TMTAB,2021.2.3,None,
L,['2'],TMTstop-control_1_clinestimulus9.png,TMTstop-control_1_cgreenlinestimulus9.png,TMTstop-control_1_credlinestimulus9.png,10,,,,,,,,,,,,,,,,,,,,,,,,,,,,,0,11,11,11,,,,,,,,,,,,,,,,,,,,,,,,,,,,,,,,79.5039214999997,None,"['2', '3']",0,"[-0.10920590000750963, -0.028734699997585267]",79.5039214999997,None,,,,001,2021_Nov_17_1833,TMTAB,2021.2.3,None,
M,['3'],TMTstop-control_1_clinestimulus10.png,TMTstop-control_1_cgreenlinestimulus10.png,TMTstop-control_1_credlinestimulus10.png,1,,,,,,,,,,,,,,,,,,,,,,,,,,,,,0,12,12,12,,,,,,,,,,,,,,,,,,,,,,,,,,,,,,,,79.64237129999674,None,['1'],0,[-0.03694339998764917],79.64237129999674,None,,,,001,2021_Nov_17_1833,TMTAB,2021.2.3,None,
N,['1'],TMTstop-control_1_clinestimulus11.png,TMTstop-control_1_cgreenlinestimulus11.png,TMTstop-control_1_credlinestimulus11.png,None,,,,,,,,,,,,,,,,,,,,,,,,,,,,,0,13,13,13,,,,,,,,,,,,,,,,,,,,,,,,,,,,,,,,79.780983500008,None,"['2', '3']",0,"[-0.10474850000173319, -0.026043500009109266]",79.780983500008,None,,,,001,2021_Nov_17_1833,TMTAB,2021.2.3,None,
O,['3'],TMTstop-control_1_clinestimulus12.png,TMTstop-control_1_cgreenlinestimulus12.png,TMTstop-control_1_credlinestimulus12.png,None,,,,,,,,,,,,,,,,,,,,,,,,,,,,,0,14,14,14,,,,,,,,,,,,,,,,,,,,,,,,,,,,,,,,79.9181729999982,None,['1'],0,[-0.017807099997298792],79.9181729999982,None,,,,001,2021_Nov_17_1833,TMTAB,2021.2.3,None,
P,['2'],TMTstop-control_1_clinestimulus13.png,TMTstop-control_1_cgreenlinestimulus13.png,TMTstop-control_1_credlinestimulus13.png,None,,,,,,,,,,,,,,,,,,,,,,,,,,,,,0,15,15,15,,,,,,,,,,,,,,,,,,,,,,,,,,,,,,,,80.05703779999749,None,['2'],1,[-0.03765669999120291],80.05703779999749,None,,,,001,2021_Nov_17_1833,TMTAB,2021.2.3,None,
Q,['3'],TMTstop-control_1_clinestimulus14.png,TMTstop-control_1_cgreenlinestimulus14.png,TMTstop-control_1_credlinestimulus14.png,None,,,,,,,,,,,,,,,,,,,,,,,,,,,,,0,16,16,16,,,,,,,,,,,,,,,,,,,,,,,,,,,,,,,,80.1953358000028,None,['3'],1,[-0.12397419998887926],80.1953358000028,None,,,,001,2021_Nov_17_1833,TMTAB,2021.2.3,None,
R,['2'],TMTstop-control_1_clinestimulus15.png,TMTstop-control_1_cgreenlinestimulus15.png,TMTstop-control_1_credlinestimulus15.png,None,,,,,,,,,,,,,,,,,,,,,,,,,,,,,0,17,17,17,,,,,,,,,,,,,,,,,,,,,,,,,,,,,,,,80.32054190000053,None,"['1', '2']",0,"[-0.0994537000078708, -0.03379510001104791]",80.32054190000053,None,,,,001,2021_Nov_17_1833,TMTAB,2021.2.3,None,
S,['3'],TMTstop-control_1_clinestimulus16.png,TMTstop-control_1_cgreenlinestimulus16.png,TMTstop-control_1_credlinestimulus16.png,None,,,,,,,,,,,,,,,,,,,,,,,,,,,,,0,18,18,18,,,,,,,,,,,,,,,,,,,,,,,,,,,,,,,,80.45796169999812,None,['3'],1,[-0.06663469999330118],80.45796169999812,None,,,,001,2021_Nov_17_1833,TMTAB,2021.2.3,None,
T,['2'],TMTstop-control_1_clinestimulus17.png,TMTstop-control_1_cgreenlinestimulus17.png,TMTstop-control_1_credlinestimulus17.png,None,,,,,,,,,,,,,,,,,,,,,,,,,,,,,0,19,19,19,,,,,,,,,,,,,,,,,,,,,,,,,,,,,,,,80.59664810000686,None,"['1', '2']",0,"[-0.09805040000355802, -0.004927500005578622]",80.59664810000686,None,,,,001,2021_Nov_17_1833,TMTAB,2021.2.3,None,
U,['3'],TMTstop-control_1_clinestimulus18.png,TMTstop-control_1_cgreenlinestimulus18.png,TMTstop-control_1_credlinestimulus18.png,None,,,,,,,,,,,,,,,,,,,,,,,,,,,,,0,20,20,20,,,,,,,,,,,,,,,,,,,,,,,,,,,,,,,,80.7345243000018,None,['3'],1,[-0.0543727000040235],80.7345243000018,None,,,,001,2021_Nov_17_1833,TMTAB,2021.2.3,None,
V,['1'],TMTstop-control_1_clinestimulus19.png,TMTstop-control_1_cgreenlinestimulus19.png,TMTstop-control_1_credlinestimulus19.png,None,,,,,,,,,,,,,,,,,,,,,,,,,,,,,0,21,21,21,,,,,,,,,,,,,,,,,,,,,,,,,,,,,,,,80.87353399999847,None,['1'],1,[-0.053681700010201894],80.87353399999847,None,,,,001,2021_Nov_17_1833,TMTAB,2021.2.3,None,
W,['3'],TMTstop-control_1_clinestimulus20.png,TMTstop-control_1_cgreenlinestimulus20.png,TMTstop-control_1_credlinestimulus20.png,None,,,,,,,,,,,,,,,,,,,,,,,,,,,,,0,22,22,22,,,,,,,,,,,,,,,,,,,,,,,,,,,,,,,,81.01105309999548,None,"['3', '2']",0,"[-0.04884950000268873, -0.006848500008345582]",81.01105309999548,None,,,,001,2021_Nov_17_1833,TMTAB,2021.2.3,None,
X,['2'],TMTstop-control_1_clinestimulus21.png,TMTstop-control_1_cgreenlinestimulus21.png,TMTstop-control_1_credlinestimulus21.png,None,,,,,,,,,,,,,,,,,,,,,,,,,,,,,0,23,23,23,,,,,,,,,,,,,,,,,,,,,,,,,,,,,,,,81.14968309999676,None,['1'],0,[-0.03781100000196602],81.14968309999676,None,,,,001,2021_Nov_17_1833,TMTAB,2021.2.3,None,
Y,['3'],TMTstop-control_1_clinestimulus22.png,TMTstop-control_1_cgreenlinestimulus22.png,TMTstop-control_1_credlinestimulus22.png,None,,,,,,,,,,,,,,,,,,,,,,,,,,,,,0,24,24,24,,,,,,,,,,,,,,,,,,,,,,,,,,,,,,,,81.28789140000299,None,['2'],0,[-0.07769539998844266],81.28789140000299,None,,,,001,2021_Nov_17_1833,TMTAB,2021.2.3,None,
None,None,TMTstop-control_1_clinestimulus23.png,TMTstop-control_1_cgreenlinestimulus23.png,TMTstop-control_1_credlinestimulus23.png,None,,,,,,,,,,,,,,,,,,,,,,,,,,,,,0,25,25,25,,,,,,,,,,,,,,,,,,,,,,,,,,,,,,,,81.42602260000422,None,None,1,,81.42602260000422,None,,,,001,2021_Nov_17_1833,TMTAB,2021.2.3,None,
1,['2'],TMTstop-control_1_4.png,TMTstop-control_1_4.png,TMTstop-control_1_4.png,10,,,,,,,,,,,,,,,,,,,,,,,,,,,,,,,,,0,0,0,0,,,,,,,,,,,,,82.40712250000797,None,,,,,,,,,,,,,,85.51103140000487,None,['1'],0,[0.47378690000914503],85.51103140000487,None,,,,001,2021_Nov_17_1833,TMTAB,2021.2.3,None,
2,['1'],TMTstop-control_1_4.png,TMTstop-control_1_4firstgreen.png,TMTstop-control_1_4firstred.png,10,,,,,,,,,,,,,,,,,,,,,,,,,,,,,,,,,0,1,1,1,,,,,,,,,,,,,,,,,,,,,,,,,,,,86.19933790000505,None,"['2', '3']",0,"[-0.09245050000026822, -0.05490640000789426]",86.19933790000505,None,,,,001,2021_Nov_17_1833,TMTAB,2021.2.3,None,
3,['3'],TMTstop-control_1_4linestimulus0.png,TMTstop-control_1_4greenlinestimulus0.png,TMTstop-control_1_4redlinestimulus0.png,10,,,,,,,,,,,,,,,,,,,,,,,,,,,,,,,,,0,2,2,2,,,,,,,,,,,,,,,,,,,,,,,,,,,,86.33763090000139,None,['1'],0,[-0.014562099997419864],86.33763090000139,None,,,,001,2021_Nov_17_1833,TMTAB,2021.2.3,None,
4,['1'],TMTstop-control_1_4linestimulus1.png,TMTstop-control_1_4greenlinestimulus1.png,TMTstop-control_1_4redlinestimulus1.png,10,,,,,,,,,,,,,,,,,,,,,,,,,,,,,,,,,0,3,3,3,,,,,,,,,,,,,,,,,,,,,,,,,,,,86.47604310000315,None,['2'],0,[-0.10168950000661425],86.47604310000315,None,,,,001,2021_Nov_17_1833,TMTAB,2021.2.3,None,
5,['2'],TMTstop-control_1_4linestimulus2.png,TMTstop-control_1_4greenlinestimulus2.png,TMTstop-control_1_4redlinestimulus2.png,10,,,,,,,,,,,,,,,,,,,,,,,,,,,,,,,,,0,4,4,4,,,,,,,,,,,,,,,,,,,,,,,,,,,,86.61378450000484,None,['3'],0,[-0.12112349999370053],86.61378450000484,None,,,,001,2021_Nov_17_1833,TMTAB,2021.2.3,None,
6,['1'],TMTstop-control_1_4linestimulus3.png,TMTstop-control_1_4greenlinestimulus3.png,TMTstop-control_1_4redlinestimulus3.png,10,,,,,,,,,,,,,,,,,,,,,,,,,,,,,,,,,0,5,5,5,,,,,,,,,,,,,,,,,,,,,,,,,,,,86.7515071999951,None,['1'],1,[0.005402399998274632],86.7515071999951,None,,,,001,2021_Nov_17_1833,TMTAB,2021.2.3,None,
7,['3'],TMTstop-control_1_4linestimulus4.png,TMTstop-control_1_4greenlinestimulus4.png,TMTstop-control_1_4redlinestimulus4.png,10,,,,,,,,,,,,,,,,,,,,,,,,,,,,,,,,,0,6,6,6,,,,,,,,,,,,,,,,,,,,,,,,,,,,86.89036099999794,None,"['2', '3']",0,"[0.0034887999936472625, 0.02187719999346882]",86.89036099999794,None,,,,001,2021_Nov_17_1833,TMTAB,2021.2.3,None,
8,['1'],TMTstop-control_1_4linestimulus4.png,TMTstop-control_1_4greenlinestimulus5.png,TMTstop-control_1_4redlinestimulus5.png,10,,,,,,,,,,,,,,,,,,,,,,,,,,,,,,,,,0,7,7,7,,,,,,,,,,,,,,,,,,,,,,,,,,,,87.02767599999788,None,['1'],1,[0.036199299996951595],87.02767599999788,None,,,,001,2021_Nov_17_1833,TMTAB,2021.2.3,None,
9,['2'],TMTstop-control_1_4linestimulus6.png,TMTstop-control_1_4greenlinestimulus6.png,TMTstop-control_1_4redlinestimulus6.png,10,,,,,,,,,,,,,,,,,,,,,,,,,,,,,,,,,0,8,8,8,,,,,,,,,,,,,,,,,,,,,,,,,,,,87.16764369999873,None,['2'],1,[-0.051022800005739555],87.16764369999873,None,,,,001,2021_Nov_17_1833,TMTAB,2021.2.3,None,
10,['1'],TMTstop-control_1_4linestimulus7.png,TMTstop-control_1_4greenlinestimulus7.png,TMTstop-control_1_4redlinestimulus7.png,10,,,,,,,,,,,,,,,,,,,,,,,,,,,,,,,,,0,9,9,9,,,,,,,,,,,,,,,,,,,,,,,,,,,,87.3040073000011,None,['3'],0,[-0.08465970000543166],87.3040073000011,None,,,,001,2021_Nov_17_1833,TMTAB,2021.2.3,None,
11,['2'],TMTstop-control_1_4linestimulus8.png,TMTstop-control_1_4greenlinestimulus8.png,TMTstop-control_1_4redlinestimulus8.png,10,,,,,,,,,,,,,,,,,,,,,,,,,,,,,,,,,0,10,10,10,,,,,,,,,,,,,,,,,,,,,,,,,,,,87.44334430000163,None,"['1', '2']",0,"[-0.08036990000982769, -0.02975660000811331]",87.44334430000163,None,,,,001,2021_Nov_17_1833,TMTAB,2021.2.3,None,
12,['1'],TMTstop-control_1_4linestimulus9.png,TMTstop-control_1_4greenlinestimulus9.png,TMTstop-control_1_4redlinestimulus9.png,10,,,,,,,,,,,,,,,,,,,,,,,,,,,,,,,,,0,11,11,11,,,,,,,,,,,,,,,,,,,,,,,,,,,,87.58200229999784,None,['3'],0,[-0.07131040000240318],87.58200229999784,None,,,,001,2021_Nov_17_1833,TMTAB,2021.2.3,None,
13,['2'],TMTstop-control_1_4linestimulus10.png,TMTstop-control_1_4greenlinestimulus10.png,TMTstop-control_1_4redlinestimulus10.png,1,,,,,,,,,,,,,,,,,,,,,,,,,,,,,,,,,0,12,12,12,,,,,,,,,,,,,,,,,,,,,,,,,,,,87.71986260000267,None,['1'],0,[-0.07970030000433326],87.71986260000267,None,,,,001,2021_Nov_17_1833,TMTAB,2021.2.3,None,
14,['1'],TMTstop-control_1_4linestimulus11.png,TMTstop-control_1_4greenlinestimulus11.png,TMTstop-control_1_4redlinestimulus11.png,None,,,,,,,,,,,,,,,,,,,,,,,,,,,,,,,,,0,13,13,13,,,,,,,,,,,,,,,,,,,,,,,,,,,,87.86030260000553,None,"['2', '3']",0,"[-0.13808699999935925, -0.07926949999819044]",87.86030260000553,None,,,,001,2021_Nov_17_1833,TMTAB,2021.2.3,None,
15,['2'],TMTstop-control_1_4linestimulus12.png,TMTstop-control_1_4greenlinestimulus12.png,TMTstop-control_1_4redlinestimulus12.png,None,,,,,,,,,,,,,,,,,,,,,,,,,,,,,,,,,0,14,14,14,,,,,,,,,,,,,,,,,,,,,,,,,,,,87.9966041000007,None,"['1', '2']",0,"[-0.08213270000123885, -0.008578499997383915]",87.9966041000007,None,,,,001,2021_Nov_17_1833,TMTAB,2021.2.3,None,
16,['3'],TMTstop-control_1_4linestimulus13.png,TMTstop-control_1_4greenlinestimulus13.png,TMTstop-control_1_4redlinestimulus13.png,None,,,,,,,,,,,,,,,,,,,,,,,,,,,,,,,,,0,15,15,15,,,,,,,,,,,,,,,,,,,,,,,,,,,,88.13598700000148,None,['3'],1,[-0.06480829999782145],88.13598700000148,None,,,,001,2021_Nov_17_1833,TMTAB,2021.2.3,None,
17,['2'],TMTstop-control_1_4linestimulus14.png,TMTstop-control_1_4greenlinestimulus14.png,TMTstop-control_1_4redlinestimulus14.png,None,,,,,,,,,,,,,,,,,,,,,,,,,,,,,,,,,0,16,16,16,,,,,,,,,,,,,,,,,,,,,,,,,,,,88.27276419999544,None,['1'],0,[-0.07847149998997338],88.27276419999544,None,,,,001,2021_Nov_17_1833,TMTAB,2021.2.3,None,
18,['3'],TMTstop-control_1_4linestimulus15.png,TMTstop-control_1_4greenlinestimulus15.png,TMTstop-control_1_4redlinestimulus15.png,None,,,,,,,,,,,,,,,,,,,,,,,,,,,,,,,,,0,17,17,17,,,,,,,,,,,,,,,,,,,,,,,,,,,,88.41155099999742,None,"['2', '3']",0,"[-0.1323854000074789, -0.04604000000108499]",88.41155099999742,None,,,,001,2021_Nov_17_1833,TMTAB,2021.2.3,None,
19,['1'],TMTstop-control_1_4linestimulus16.png,TMTstop-control_1_4greenlinestimulus16.png,TMTstop-control_1_4redlinestimulus16.png,None,,,,,,,,,,,,,,,,,,,,,,,,,,,,,,,,,0,18,18,18,,,,,,,,,,,,,,,,,,,,,,,,,,,,88.55045999999857,None,['1'],1,[0.020215600001392886],88.55045999999857,None,,,,001,2021_Nov_17_1833,TMTAB,2021.2.3,None,
20,['3'],TMTstop-control_1_4linestimulus17.png,TMTstop-control_1_4greenlinestimulus17.png,TMTstop-control_1_4redlinestimulus17.png,None,,,,,,,,,,,,,,,,,,,,,,,,,,,,,,,,,0,19,19,19,,,,,,,,,,,,,,,,,,,,,,,,,,,,88.68936950000352,None,['2'],0,[-0.035250300003099255],88.68936950000352,None,,,,001,2021_Nov_17_1833,TMTAB,2021.2.3,None,
21,['2'],TMTstop-control_1_4linestimulus18.png,TMTstop-control_1_4greenlinestimulus18.png,TMTstop-control_1_4redlinestimulus18.png,None,,,,,,,,,,,,,,,,,,,,,,,,,,,,,,,,,0,20,20,20,,,,,,,,,,,,,,,,,,,,,,,,,,,,88.82801500000642,None,['3'],0,[-0.08080560000962578],88.82801500000642,None,,,,001,2021_Nov_17_1833,TMTAB,2021.2.3,None,
22,['3'],TMTstop-control_1_4linestimulus19.png,TMTstop-control_1_4greenlinestimulus19.png,TMTstop-control_1_4redlinestimulus19.png,None,,,,,,,,,,,,,,,,,,,,,,,,,,,,,,,,,0,21,21,21,,,,,,,,,,,,,,,,,,,,,,,,,,,,88.97944019999704,None,"['1', '2']",0,"[-0.059877500010770746, -0.0020472000032896176]",88.97944019999704,None,,,,001,2021_Nov_17_1833,TMTAB,2021.2.3,None,
23,['2'],TMTstop-control_1_4linestimulus20.png,TMTstop-control_1_4greenlinestimulus20.png,TMTstop-control_1_4redlinestimulus20.png,None,,,,,,,,,,,,,,,,,,,,,,,,,,,,,,,,,0,22,22,22,,,,,,,,,,,,,,,,,,,,,,,,,,,,89.09121670000604,None,['3'],0,[-0.010129199989023618],89.09121670000604,None,,,,001,2021_Nov_17_1833,TMTAB,2021.2.3,None,
24,['1'],TMTstop-control_1_4linestimulus21.png,TMTstop-control_1_4greenlinestimulus21.png,TMTstop-control_1_4redlinestimulus21.png,None,,,,,,,,,,,,,,,,,,,,,,,,,,,,,,,,,0,23,23,23,,,,,,,,,,,,,,,,,,,,,,,,,,,,89.22951069999544,None,['1'],1,[-0.004715800008852966],89.22951069999544,None,,,,001,2021_Nov_17_1833,TMTAB,2021.2.3,None,
25,['3'],TMTstop-control_1_4linestimulus22.png,TMTstop-control_1_4greenlinestimulus22.png,TMTstop-control_1_4redlinestimulus22.png,None,,,,,,,,,,,,,,,,,,,,,,,,,,,,,,,,,0,24,24,24,,,,,,,,,,,,,,,,,,,,,,,,,,,,89.36698730000353,None,['2'],0,[-0.07913689999259077],89.36698730000353,None,,,,001,2021_Nov_17_1833,TMTAB,2021.2.3,None,
None,None,TMTstop-control_1_4linestimulus23.png,TMTstop-control_1_4greenlinestimulus23.png,TMTstop-control_1_4redlinestimulus23.png,None,,,,,,,,,,,,,,,,,,,,,,,,,,,,,,,,,0,25,25,25,,,,,,,,,,,,,,,,,,,,,,,,,,,,89.50521950000257,None,['3'],0,[-0.10768430000462104],89.50521950000257,None,,,,001,2021_Nov_17_1833,TMTAB,2021.2.3,None,
A,['2'],TMTstop-control_1_d.png,TMTstop-control_1_d.png,TMTstop-control_1_d.png,10,,,,,,,,,,,,,,,,,,,,,,,,,,,,,,,,,,,,,0,0,0,0,,,,,,,,,89.52543960000912,None,,,,,,,,,,,,,,92.61414920000243,None,['1'],0,[-3.053818100001081],92.61414920000243,None,,,,001,2021_Nov_17_1833,TMTAB,2021.2.3,None,
B,['1'],TMTstop-control_1_d.png,TMTstop-control_1_dfirstgreen.png,TMTstop-control_1_dfirstred.png,10,,,,,,,,,,,,,,,,,,,,,,,,,,,,,,,,,,,,,0,1,1,1,,,,,,,,,,,,,,,,,,,,,,,,92.74970630000462,None,['1'],1,[1.8669668000075035],92.74970630000462,None,,,,001,2021_Nov_17_1833,TMTAB,2021.2.3,None,
C,['2'],TMTstop-control_1_dlinestimulus0.png,TMTstop-control_1_dgreenlinestimulus0.png,TMTstop-control_1_dredlinestimulus0.png,10,,,,,,,,,,,,,,,,,,,,,,,,,,,,,,,,,,,,,0,2,2,2,,,,,,,,,,,,,,,,,,,,,,,,94.82892830000492,None,['2'],1,[-0.13731049999478273],94.82892830000492,None,,,,001,2021_Nov_17_1833,TMTAB,2021.2.3,None,
D,['1'],TMTstop-control_1_dlinestimulus1.png,TMTstop-control_1_dgreenlinestimulus1.png,TMTstop-control_1_dredlinestimulus1.png,10,,,,,,,,,,,,,,,,,,,,,,,,,,,,,,,,,,,,,0,3,3,3,,,,,,,,,,,,,,,,,,,,,,,,94.96670879999874,None,['3'],0,[-0.11975739999616053],94.96670879999874,None,,,,001,2021_Nov_17_1833,TMTAB,2021.2.3,None,
E,['3'],TMTstop-control_1_dlinestimulus2.png,TMTstop-control_1_dgreenlinestimulus2.png,TMTstop-control_1_dredlinestimulus2.png,10,,,,,,,,,,,,,,,,,,,,,,,,,,,,,,,,,,,,,0,4,4,4,,,,,,,,,,,,,,,,,,,,,,,,95.10542780000833,None,['1'],0,[-0.061667399990255944],95.10542780000833,None,,,,001,2021_Nov_17_1833,TMTAB,2021.2.3,None,
F,['1'],TMTstop-control_1_dlinestimulus3.png,TMTstop-control_1_dgreenlinestimulus3.png,TMTstop-control_1_dredlinestimulus3.png,10,,,,,,,,,,,,,,,,,,,,,,,,,,,,,,,,,,,,,0,5,5,5,,,,,,,,,,,,,,,,,,,,,,,,95.24410340000759,None,"['2', '3']",0,"[-0.08571979998669121, -0.02148539999325294]",95.24410340000759,None,,,,001,2021_Nov_17_1833,TMTAB,2021.2.3,None,
G,['3'],TMTstop-control_1_dlinestimulus4.png,TMTstop-control_1_dgreenlinestimulus4.png,TMTstop-control_1_dredlinestimulus4.png,10,,,,,,,,,,,,,,,,,,,,,,,,,,,,,,,,,,,,,0,6,6,6,,,,,,,,,,,,,,,,,,,,,,,,95.38202780000574,None,['1'],0,[0.020620600000256673],95.38202780000574,None,,,,001,2021_Nov_17_1833,TMTAB,2021.2.3,None,
H,['2'],TMTstop-control_1_dlinestimulus5.png,TMTstop-control_1_dgreenlinestimulus5.png,TMTstop-control_1_dredlinestimulus5.png,10,,,,,,,,,,,,,,,,,,,,,,,,,,,,,,,,,,,,,0,7,7,7,,,,,,,,,,,,,,,,,,,,,,,,95.53220450000663,None,['2'],1,[-0.06989149999571964],95.53220450000663,None,,,,001,2021_Nov_17_1833,TMTAB,2021.2.3,None,
I,['3'],TMTstop-control_1_dlinestimulus6.png,TMTstop-control_1_dgreenlinestimulus6.png,TMTstop-control_1_dredlinestimulus6.png,10,,,,,,,,,,,,,,,,,,,,,,,,,,,,,,,,,,,,,0,8,8,8,,,,,,,,,,,,,,,,,,,,,,,,95.65907599999628,None,['3'],1,[-0.09563579999667127],95.65907599999628,None,,,,001,2021_Nov_17_1833,TMTAB,2021.2.3,None,
J,['1'],TMTstop-control_1_dlinestimulus7.png,TMTstop-control_1_dgreenlinestimulus7.png,TMTstop-control_1_dredlinestimulus7.png,10,,,,,,,,,,,,,,,,,,,,,,,,,,,,,,,,,,,,,0,9,9,9,,,,,,,,,,,,,,,,,,,,,,,,95.7971261000057,None,"['1', '2']",0,"[-0.09682079999765847, -0.00558489999093581]",95.7971261000057,None,,,,001,2021_Nov_17_1833,TMTAB,2021.2.3,None,
K,['2'],TMTstop-control_1_dlinestimulus8.png,TMTstop-control_1_dgreenlinestimulus8.png,TMTstop-control_1_dredlinestimulus8.png,10,,,,,,,,,,,,,,,,,,,,,,,,,,,,,,,,,,,,,0,10,10,10,,,,,,,,,,,,,,,,,,,,,,,,95.93607049999991,None,['3'],0,[-0.0697954000061145],95.93607049999991,None,,,,001,2021_Nov_17_1833,TMTAB,2021.2.3,None,
L,['1'],TMTstop-control_1_dlinestimulus9.png,TMTstop-control_1_dgreenlinestimulus9.png,TMTstop-control_1_dredlinestimulus9.png,10,,,,,,,,,,,,,,,,,,,,,,,,,,,,,,,,,,,,,0,11,11,11,,,,,,,,,,,,,,,,,,,,,,,,96.0737885999988,None,"['1', '2']",0,"[-0.07433560000208672, -0.017434499997762032]",96.0737885999988,None,,,,001,2021_Nov_17_1833,TMTAB,2021.2.3,None,
M,['3'],TMTstop-control_1_dlinestimulus10.png,TMTstop-control_1_dgreenlinestimulus10.png,TMTstop-control_1_dredlinestimulus10.png,1,,,,,,,,,,,,,,,,,,,,,,,,,,,,,,,,,,,,,0,12,12,12,,,,,,,,,,,,,,,,,,,,,,,,96.21240730000136,None,['3'],1,[-0.06697759999951813],96.21240730000136,None,,,,001,2021_Nov_17_1833,TMTAB,2021.2.3,None,
N,['2'],TMTstop-control_1_dlinestimulus11.png,TMTstop-control_1_dgreenlinestimulus11.png,TMTstop-control_1_dredlinestimulus11.png,None,,,,,,,,,,,,,,,,,,,,,,,,,,,,,,,,,,,,,0,13,13,13,,,,,,,,,,,,,,,,,,,,,,,,96.35022000000754,None,"['1', '2']",0,"[-0.04632779999519698, -0.0024944999895524234]",96.35022000000754,None,,,,001,2021_Nov_17_1833,TMTAB,2021.2.3,None,
O,['1'],TMTstop-control_1_dlinestimulus12.png,TMTstop-control_1_dgreenlinestimulus12.png,TMTstop-control_1_dredlinestimulus12.png,None,,,,,,,,,,,,,,,,,,,,,,,,,,,,,,,,,,,,,0,14,14,14,,,,,,,,,,,,,,,,,,,,,,,,96.48892750000232,None,['3'],0,[-0.021930999995674938],96.48892750000232,None,,,,001,2021_Nov_17_1833,TMTAB,2021.2.3,None,
P,['3'],TMTstop-control_1_dlinestimulus13.png,TMTstop-control_1_dgreenlinestimulus13.png,TMTstop-control_1_dredlinestimulus13.png,None,,,,,,,,,,,,,,,,,,,,,,,,,,,,,,,,,,,,,0,15,15,15,,,,,,,,,,,,,,,,,,,,,,,,96.62639510000008,None,['1'],0,[-0.015603600011672825],96.62639510000008,None,,,,001,2021_Nov_17_1833,TMTAB,2021.2.3,None,
Q,['2'],TMTstop-control_1_dlinestimulus14.png,TMTstop-control_1_dgreenlinestimulus14.png,TMTstop-control_1_dredlinestimulus14.png,None,,,,,,,,,,,,,,,,,,,,,,,,,,,,,,,,,,,,,0,16,16,16,,,,,,,,,,,,,,,,,,,,,,,,96.74934979999671,None,['2'],1,[-0.02516359998844564],96.74934979999671,None,,,,001,2021_Nov_17_1833,TMTAB,2021.2.3,None,
R,['1'],TMTstop-control_1_dlinestimulus15.png,TMTstop-control_1_dgreenlinestimulus15.png,TMTstop-control_1_dredlinestimulus15.png,None,,,,,,,,,,,,,,,,,,,,,,,,,,,,,,,,,,,,,0,17,17,17,,,,,,,,,,,,,,,,,,,,,,,,96.8879922000051,None,['3'],0,[-0.08324969999375753],96.8879922000051,None,,,,001,2021_Nov_17_1833,TMTAB,2021.2.3,None,
S,['3'],TMTstop-control_1_dlinestimulus16.png,TMTstop-control_1_dgreenlinestimulus16.png,TMTstop-control_1_dredlinestimulus16.png,None,,,,,,,,,,,,,,,,,,,,,,,,,,,,,,,,,,,,,0,18,18,18,,,,,,,,,,,,,,,,,,,,,,,,97.02604379999684,None,"['1', '2']",0,"[-0.07126189999689814, -0.007357099995715544]",97.02604379999684,None,,,,001,2021_Nov_17_1833,TMTAB,2021.2.3,None,
T,['2'],TMTstop-control_1_dlinestimulus17.png,TMTstop-control_1_dgreenlinestimulus17.png,TMTstop-control_1_dredlinestimulus17.png,None,,,,,,,,,,,,,,,,,,,,,,,,,,,,,,,,,,,,,0,19,19,19,,,,,,,,,,,,,,,,,,,,,,,,97.16578850000224,None,['3'],0,[-0.036233099992387],97.16578850000224,None,,,,001,2021_Nov_17_1833,TMTAB,2021.2.3,None,
U,['1'],TMTstop-control_1_dlinestimulus18.png,TMTstop-control_1_dgreenlinestimulus18.png,TMTstop-control_1_dredlinestimulus18.png,None,,,,,,,,,,,,,,,,,,,,,,,,,,,,,,,,,,,,,0,20,20,20,,,,,,,,,,,,,,,,,,,,,,,,97.30332229999476,None,['1'],1,[0.010913300007814541],97.30332229999476,None,,,,001,2021_Nov_17_1833,TMTAB,2021.2.3,None,
V,['3'],TMTstop-control_1_dlinestimulus19.png,TMTstop-control_1_dgreenlinestimulus19.png,TMTstop-control_1_dredlinestimulus19.png,None,,,,,,,,,,,,,,,,,,,,,,,,,,,,,,,,,,,,,0,21,21,21,,,,,,,,,,,,,,,,,,,,,,,,97.44165300000168,None,['2'],0,[-0.050531400003819726],97.44165300000168,None,,,,001,2021_Nov_17_1833,TMTAB,2021.2.3,None,
W,['2'],TMTstop-control_1_dlinestimulus20.png,TMTstop-control_1_dgreenlinestimulus20.png,TMTstop-control_1_dredlinestimulus20.png,None,,,,,,,,,,,,,,,,,,,,,,,,,,,,,,,,,,,,,0,22,22,22,,,,,,,,,,,,,,,,,,,,,,,,97.58019580000837,None,['3'],0,[-0.08316460000060033],97.58019580000837,None,,,,001,2021_Nov_17_1833,TMTAB,2021.2.3,None,
X,['1'],TMTstop-control_1_dlinestimulus21.png,TMTstop-control_1_dgreenlinestimulus21.png,TMTstop-control_1_dredlinestimulus21.png,None,,,,,,,,,,,,,,,,,,,,,,,,,,,,,,,,,,,,,0,23,23,23,,,,,,,,,,,,,,,,,,,,,,,,97.71894150000298,None,['1'],1,[-0.07107779999205377],97.71894150000298,None,,,,001,2021_Nov_17_1833,TMTAB,2021.2.3,None,
Y,['2'],TMTstop-control_1_dlinestimulus22.png,TMTstop-control_1_dgreenlinestimulus22.png,TMTstop-control_1_dredlinestimulus22.png,None,,,,,,,,,,,,,,,,,,,,,,,,,,,,,,,,,,,,,0,24,24,24,,,,,,,,,,,,,,,,,,,,,,,,97.85693049999827,None,"['2', '3']",0,"[-0.12439850000373553, -0.04314999999769498]",97.85693049999827,None,,,,001,2021_Nov_17_1833,TMTAB,2021.2.3,None,
None,None,TMTstop-control_1_dlinestimulus23.png,TMTstop-control_1_dgreenlinestimulus23.png,TMTstop-control_1_dredlinestimulus23.png,None,,,,,,,,,,,,,,,,,,,,,,,,,,,,,,,,,,,,,0,25,25,25,,,,,,,,,,,,,,,,,,,,,,,,97.99682210000174,None,['1'],0,[-0.027919700005440973],97.99682210000174,None,,,,001,2021_Nov_17_1833,TMTAB,2021.2.3,None,
,,,,,,,,,,,,,,,,,,,,,,,,,,,,,,,,,,,,,,,,,,,,,,,,,,,,,,,,,,,,,,,,,,,,,,,,,,,,98.01460690000386,None,,,,,,,
