NumberLetter,corrAns,StimFile,Correct_StimFile,False_StimFile,trials.thisRepN,trials.thisTrialN,trials.thisN,trials.thisIndex,trials_2.thisRepN,trials_2.thisTrialN,trials_2.thisN,trials_2.thisIndex,Instruct.started,Instruct.stopped,text_2.started,text_2.stopped,Stim.started,Stim.stopped,key_resp_2.keys,key_resp_2.corr,key_resp_2.rt,key_resp_2.started,key_resp_2.stopped,text_3.started,text_3.stopped,key_resp_3.keys,key_resp_3.rt,key_resp_3.started,key_resp_3.stopped,text.started,text.stopped,participant,session,date,expName,psychopyVersion,frameRate,
1,2,TMT-control.jpg,TMT-control.jpg,TMT-control.jpg,0,0,0,0,,,,,7.260791299999255,None,7.260791299999255,None,8.72316249999949,None,2,1,1.8336206000003585,8.72316249999949,None,,,,,,,,,,001,2021_Oct_21_1712,TMTAB,2021.2.3,59.94991783852015,
A,3,TMT-control.jpg,TMT-control.jpg,TMT-control.jpg,0,1,1,1,,,,,,,,,10.607073899999705,None,3,1,2.9178554000000076,10.607073899999705,None,,,,,,,,,,001,2021_Oct_21_1712,TMTAB,2021.2.3,59.94991783852015,
2,1,TMT-control_linestimulus0.png,TMT-control_greenstimulus0.png,TMT-control_redlinestimulus0.png,0,2,2,2,,,,,,,,,13.575094999999237,None,1,1,2.786854000000858,13.575094999999237,None,,,,,,,,,,001,2021_Oct_21_1712,TMTAB,2021.2.3,59.94991783852015,
B,2,TMT-control_linestimulus1.png,TMT-control_greenlinestimulus1.png,TMT-control_redlinestimulus1.png,0,3,3,3,,,,,,,,,16.42643609999959,None,2,1,0.9214819000007992,16.42643609999959,None,,,,,,,,,,001,2021_Oct_21_1712,TMTAB,2021.2.3,59.94991783852015,
3,3,TMT-control_linestimulus2.png,TMT-control_greenlinestimulus2.png,TMT-control_redlinestimulus2.png,0,4,4,4,,,,,,,,,17.41014670000004,None,3,1,0.4537725000000137,17.41014670000004,None,,,,,,,,,,001,2021_Oct_21_1712,TMTAB,2021.2.3,59.94991783852015,
C,2,TMT-control_linestimulus3.png,TMT-control_greenlinestimulus3.png,TMT-control_redlinestimulus3.png,0,5,5,5,,,,,,,,,17.92709449999984,None,2,1,0.5203338999999687,17.92709449999984,None,,,,,,,,,,001,2021_Oct_21_1712,TMTAB,2021.2.3,59.94991783852015,
4,1,TMT-control_linestimulus4.png,TMT-control_greenlinestimulus4.png,TMT-control_redlinestimulus4.png,0,6,6,6,,,,,,,,,18.5106911999992,None,1,1,0.3760176000005231,18.5106911999992,None,,,,,,,,,,001,2021_Oct_21_1712,TMTAB,2021.2.3,59.94991783852015,
D,3,TMT-control_linestimulus5.png,TMT-control_greenlinestimulus5.png,TMT-control_redlinestimulus5.png,0,7,7,7,,,,,,,,,18.94435279999925,None,2,0,0.3485299000003579,18.94435279999925,None,,,,,,,,,,001,2021_Oct_21_1712,TMTAB,2021.2.3,59.94991783852015,
5,1,TMT-control_linestimulus6.png,TMT-control_greenlinestimulus6.png,TMT-control_redlinestimulus6.png,0,8,8,8,,,,,,,,,19.344411899999614,None,3,0,0.3013988000002428,19.344411899999614,None,,,,,,,,,,001,2021_Oct_21_1712,TMTAB,2021.2.3,59.94991783852015,
E,2,TMT-control_linestimulus7.png,TMT-control_greenlinestimulus7.png,TMT-control_redlinestimulus7.png,0,9,9,9,,,,,,,,,19.71118739999929,None,1,0,0.15106160000050295,19.71118739999929,None,,,,,,,,,,001,2021_Oct_21_1712,TMTAB,2021.2.3,59.94991783852015,
6,1,TMT-control_linestimulus8.png,TMT-control_greenlinestimulus8.png,TMT-control_redlinestimulus8.png,0,10,10,10,,,,,,,,,19.911332099999527,None,2,0,0.051979799999571696,19.911332099999527,None,,,,,,,,,,001,2021_Oct_21_1712,TMTAB,2021.2.3,59.94991783852015,
F,2,TMT-control_linestimulus9.png,TMT-control_greenlinestimulus9.png,TMT-control_redlinestimulus9.png,0,11,11,11,,,,,,,,,20.027962299999672,None,3,0,0.6942724000000453,20.027962299999672,None,,,,,,,,,,001,2021_Oct_21_1712,TMTAB,2021.2.3,59.94991783852015,
,,,,,,,,,,,,,,,,,,,,,,,,20.74505709999994,None,space,3.080716699999357,20.74505709999994,None,,,,001,2021_Oct_21_1712,TMTAB,2021.2.3,59.94991783852015,
1,3,TMTBD1.bmp,,,,,,,0,0,0,0,23.846517999999378,None,23.846517999999378,None,24.747031299999435,None,1,0,0.4926421999998638,24.747031299999435,None,,,,,,,,,,001,2021_Oct_21_1712,TMTAB,2021.2.3,59.94991783852015,
A,1,TMTBD1.bmp,,,,,,,0,1,1,1,,,,,25.280507199999192,None,2,0,0.16262129999995523,25.280507199999192,None,,,,,,,,,,001,2021_Oct_21_1712,TMTAB,2021.2.3,59.94991783852015,
2,3,TMTBD11.bmp,,,,,,,0,2,2,2,,,,,25.480624599999828,None,3,1,0.1276772000001074,25.480624599999828,None,,,,,,,,,,001,2021_Oct_21_1712,TMTAB,2021.2.3,59.94991783852015,
B,2,TMTBD1A.bmp,,,,,,,0,3,3,3,,,,,25.647326999999677,None,1,0,0.139743499999895,25.647326999999677,None,,,,,,,,,,001,2021_Oct_21_1712,TMTAB,2021.2.3,59.94991783852015,
3,1,TMTBD12.bmp,,,,,,,0,4,4,4,,,,,25.83070239999961,None,2,0,0.03215239999917685,25.83070239999961,None,,,,,,,,,,001,2021_Oct_21_1712,TMTAB,2021.2.3,59.94991783852015,
C,2,TMTBD1B.bmp,,,,,,,0,5,5,5,,,,,25.897481799999696,None,3,0,0.1016128999999637,25.897481799999696,None,,,,,,,,,,001,2021_Oct_21_1712,TMTAB,2021.2.3,59.94991783852015,
4,3,TMTBD13.bmp,,,,,,,0,6,6,6,,,,,26.04752869999993,None,1,0,0.10045420000005834,26.04752869999993,None,,,,,,,,,,001,2021_Oct_21_1712,TMTAB,2021.2.3,59.94991783852015,
D,1,TMTBD1C.bmp,,,,,,,0,7,7,7,,,,,26.180960400000004,None,2,0,0.020360699999400822,26.180960400000004,None,,,,,,,,,,001,2021_Oct_21_1712,TMTAB,2021.2.3,59.94991783852015,
5,2,TMTBD14.bmp,,,,,,,0,8,8,8,,,,,26.24761689999923,None,3,0,0.06872660000044561,26.24761689999923,None,,,,,,,,,,001,2021_Oct_21_1712,TMTAB,2021.2.3,59.94991783852015,
E,3,TMTBD1D.bmp,,,,,,,0,9,9,9,,,,,26.364322399999764,None,1,0,0.12351539999963279,26.364322399999764,None,,,,,,,,,,001,2021_Oct_21_1712,TMTAB,2021.2.3,59.94991783852015,
6,2,TMTBD15.bmp,,,,,,,0,10,10,10,,,,,26.53109939999922,None,2,1,0.015599899999870104,26.53109939999922,None,,,,,,,,,,001,2021_Oct_21_1712,TMTAB,2021.2.3,59.94991783852015,
F,1,TMTBD1E.bmp,,,,,,,0,11,11,11,,,,,26.581074400000034,None,3,0,0.08491980000053445,26.581074400000034,None,,,,,,,,,,001,2021_Oct_21_1712,TMTAB,2021.2.3,59.94991783852015,
7,2,TMTBD16.bmp,,,,,,,0,12,12,12,,,,,26.714469699999427,None,1,0,1.1432668999996167,26.714469699999427,None,,,,,,,,,,001,2021_Oct_21_1712,TMTAB,2021.2.3,59.94991783852015,
G,1,TMTBD1F.bmp,,,,,,,0,13,13,13,,,,,27.89834889999929,None,2,0,0.0641271999993478,27.89834889999929,None,,,,,,,,,,001,2021_Oct_21_1712,TMTAB,2021.2.3,59.94991783852015,
8,3,TMTBD17.bmp,,,,,,,0,14,14,14,,,,,27.9984259999992,None,3,1,0.217345000000023,27.9984259999992,None,,,,,,,,,,001,2021_Oct_21_1712,TMTAB,2021.2.3,59.94991783852015,
H,2,TMTBD1G.bmp,,,,,,,0,15,15,15,,,,,28.248525599999994,None,1,0,0.11004259999936039,28.248525599999994,None,,,,,,,,,,001,2021_Oct_21_1712,TMTAB,2021.2.3,59.94991783852015,
9,3,TMTBD18.bmp,,,,,,,0,16,16,16,,,,,28.398543999999674,None,2,0,0.04596179999953165,28.398543999999674,None,,,,,,,,,,001,2021_Oct_21_1712,TMTAB,2021.2.3,59.94991783852015,
I,1,TMTBD1H.bmp,,,,,,,0,17,17,17,,,,,28.481925499999306,None,3,0,0.06895050000002811,28.481925499999306,None,,,,,,,,,,001,2021_Oct_21_1712,TMTAB,2021.2.3,59.94991783852015,
10,2,TMTBD19.bmp,,,,,,,0,18,18,18,,,,,28.59863519999999,None,1,0,0.1252770999999484,28.59863519999999,None,,,,,,,,,,001,2021_Oct_21_1712,TMTAB,2021.2.3,59.94991783852015,
J,1,TMTBD1I.bmp,,,,,,,0,19,19,19,,,,,28.765378399999463,None,2,0,0.0037103000004208297,28.765378399999463,None,,,,,,,,,,001,2021_Oct_21_1712,TMTAB,2021.2.3,59.94991783852015,
11,3,TMTBD110.bmp,,,,,,,0,20,20,20,,,,,28.815377999999328,None,3,1,0.06303339999976743,28.815377999999328,None,,,,,,,,,,001,2021_Oct_21_1712,TMTAB,2021.2.3,59.94991783852015,
K,1,TMTBD1J.bmp,,,,,,,0,21,21,21,,,,,28.91541859999961,None,1,1,0.1281896999998935,28.91541859999961,None,,,,,,,,,,001,2021_Oct_21_1712,TMTAB,2021.2.3,59.94991783852015,
12,2,TMTBD111.bmp,,,,,,,0,22,22,22,,,,,29.082173499999953,None,2,1,0.016209499999604304,29.082173499999953,None,,,,,,,,,,001,2021_Oct_21_1712,TMTAB,2021.2.3,59.94991783852015,
L,3,TMTBD1K.bmp,,,,,,,0,23,23,23,,,,,29.13223729999936,None,3,1,0.08153029999994033,29.13223729999936,None,,,,,,,,,,001,2021_Oct_21_1712,TMTAB,2021.2.3,59.94991783852015,
None,None,TMTBD112.bmp,,,,,,,0,24,24,24,,,,,29.248924099999385,None,1,0,0.14304929999980232,29.248924099999385,None,,,,,,,,,,001,2021_Oct_21_1712,TMTAB,2021.2.3,59.94991783852015,
,,,,,,,,,,,,,,,,,,,,,,,,,,,,,,29.415719999999965,None,,,,,,,
