Block_file,Condition_rows,NumberLetter,corrAns,Correct,StimFile,Correct_StimFile,False_StimFile,Version,Block,TrialNumber_session,Blocks_TMTControl.thisRepN,Blocks_TMTControl.thisTrialN,Blocks_TMTControl.thisN,Blocks_TMTControl.thisIndex,trials_TMTControl.thisRepN,trials_TMTControl.thisTrialN,trials_TMTControl.thisN,trials_TMTControl.thisIndex,Blocks_TMTA.thisRepN,Blocks_TMTA.thisTrialN,Blocks_TMTA.thisN,Blocks_TMTA.thisIndex,trials_TMTA.thisRepN,trials_TMTA.thisTrialN,trials_TMTA.thisN,trials_TMTA.thisIndex,Blocks_TMTB.thisRepN,Blocks_TMTB.thisTrialN,Blocks_TMTB.thisN,Blocks_TMTB.thisIndex,trials_TMTB.thisRepN,trials_TMTB.thisTrialN,trials_TMTB.thisN,trials_TMTB.thisIndex,Blocks_TMTControl_2.thisRepN,Blocks_TMTControl_2.thisTrialN,Blocks_TMTControl_2.thisN,Blocks_TMTControl_2.thisIndex,trials_TMTControl_2.thisRepN,trials_TMTControl_2.thisTrialN,trials_TMTControl_2.thisN,trials_TMTControl_2.thisIndex,Blocks_TMTA_2.thisRepN,Blocks_TMTA_2.thisTrialN,Blocks_TMTA_2.thisN,Blocks_TMTA_2.thisIndex,trials_TMTA_2.thisRepN,trials_TMTA_2.thisTrialN,trials_TMTA_2.thisN,trials_TMTA_2.thisIndex,Blocks_TMTB_2.thisRepN,Blocks_TMTB_2.thisTrialN,Blocks_TMTB_2.thisN,Blocks_TMTB_2.thisIndex,trials_TMTB_2.thisRepN,trials_TMTB_2.thisTrialN,trials_TMTB_2.thisN,trials_TMTB_2.thisIndex,key_resp_7.keys,key_resp_7.rt,key_resp_7.started,key_resp_7.stopped,polygon_2.started,polygon_2.stopped,Attempts,First_attempt,ResponseClock,Stim.started,Stim.stopped,key_resp_2.keys,key_resp_2.corr,key_resp_2.rt,key_resp_2.started,key_resp_2.stopped,participant,session,date,expName,psychopyVersion,frameRate,
,,,,,,,,,,,,,,,,,,,,,,,,,,,,,,,,,,,,,,,,,,,,,,,,,,,,,,,,,,,s,4.17343080000137,25.798456800024724,None,,,,,,,,,,,,,,001,2022_May_11_1050,TMT_fmri,2021.2.3,59.917948361028124,
TMTstop-Control_1_1.xlsx,0:26,1,['2'],2,TMTstop-control_1_1.png,TMTstop-control_1_1.png,TMTstop-control_1_1.png,TMT_Control,1,1,0,0,0,0,0,0,0,0,,,,,,,,,,,,,,,,,,,,,,,,,,,,,,,,,,,,,,,,,,,,,25.798456800024724,None,2,0,0.8826530000078492,30.167338300001575,None,"['1', '2']",1,"[0.6538699000084307, 0.6694983000052162]",30.167338300001575,None,,001,2022_May_11_1050,TMT_fmri,2021.2.3,59.917948361028124,
TMTstop-Control_1_1.xlsx,0:26,2,['1'],1,TMTstop-control_1_1.png,TMTstop-control_1_1firstgreen.png,TMTstop-control_1_1firstred.png,TMT_Control,1,2,0,0,0,0,0,1,1,1,,,,,,,,,,,,,,,,,,,,,,,,,,,,,,,,,,,,,,,,,,,,,,,2,0,1.262287000019569,30.922591300011845,None,"['3', '1']",1,"[0.06558570000925101, 0.3158644000068307]",30.922591300011845,None,,001,2022_May_11_1050,TMT_fmri,2021.2.3,59.917948361028124,
TMTstop-Control_1_1.xlsx,0:26,3,['3'],3,TMTstop-control_1_1linestimulus0.png,TMTstop-control_1_1greenlinestimulus0.png,TMTstop-control_1_1redlinestimulus0.png,TMT_Control,1,3,0,0,0,0,0,2,2,2,,,,,,,,,,,,,,,,,,,,,,,,,,,,,,,,,,,,,,,,,,,,,,,1,1,1.5291814000229351,31.302012600004673,None,['3'],1,[0.21128720001433976],31.302012600004673,None,,001,2022_May_11_1050,TMT_fmri,2021.2.3,59.917948361028124,
TMTstop-Control_1_1.xlsx,0:26,4,['1'],1,TMTstop-control_1_1linestimulus1.png,TMTstop-control_1_1greenlinestimulus1.png,TMTstop-control_1_1redlinestimulus1.png,TMT_Control,1,4,0,0,0,0,0,3,3,3,,,,,,,,,,,,,,,,,,,,,,,,,,,,,,,,,,,,,,,,,,,,,,,1,1,1.6713344000163488,31.57682030001888,None,['1'],1,[0.07396300000254996],31.57682030001888,None,,001,2022_May_11_1050,TMT_fmri,2021.2.3,59.917948361028124,
TMTstop-Control_1_1.xlsx,0:26,5,['3'],3,TMTstop-control_1_1linestimulus2.png,TMTstop-control_1_1greenlinestimulus2.png,TMTstop-control_1_1redlinestimulus2.png,TMT_Control,1,5,0,0,0,0,0,4,4,4,,,,,,,,,,,,,,,,,,,,,,,,,,,,,,,,,,,,,,,,,,,,,,,2,0,1.8494482999958564,31.717702800000552,None,"['2', '3']",1,"[0.005673799983924255, 0.10330170000088401]",31.717702800000552,None,,001,2022_May_11_1050,TMT_fmri,2021.2.3,59.917948361028124,
TMTstop-Control_1_1.xlsx,0:26,6,['1'],1,TMTstop-control_1_1linestimulus3.png,TMTstop-control_1_1greenlinestimulus3.png,TMTstop-control_1_1redlinestimulus3.png,TMT_Control,1,6,0,0,0,0,0,5,5,5,,,,,,,,,,,,,,,,,,,,,,,,,,,,,,,,,,,,,,,,,,,,,,,1,1,1.9723224000190385,31.895257500000298,None,['1'],1,[0.06123140000272542],31.895257500000298,None,,001,2022_May_11_1050,TMT_fmri,2021.2.3,59.917948361028124,
TMTstop-Control_1_1.xlsx,0:26,7,['2'],2,TMTstop-control_1_1linestimulus4.png,TMTstop-control_1_1greenlinestimulus4.png,TMTstop-control_1_1redlinestimulus4.png,TMT_Control,1,7,0,0,0,0,0,6,6,6,,,,,,,,,,,,,,,,,,,,,,,,,,,,,,,,,,,,,,,,,,,,,,,1,1,2.055252799997106,32.011987400008366,None,['2'],1,[0.0053709000058006495],32.011987400008366,None,,001,2022_May_11_1050,TMT_fmri,2021.2.3,59.917948361028124,
TMTstop-Control_1_1.xlsx,0:26,8,['1'],1,TMTstop-control_1_1linestimulus4.png,TMTstop-control_1_1greenlinestimulus5.png,TMTstop-control_1_1redlinestimulus5.png,TMT_Control,1,8,0,0,0,0,0,7,7,7,,,,,,,,,,,,,,,,,,,,,,,,,,,,,,,,,,,,,,,,,,,,,,,2,0,2.313326900009997,32.09541210002499,None,"['3', '1']",1,"[0.03237800000351854, 0.16926059999968857]",32.09541210002499,None,,001,2022_May_11_1050,TMT_fmri,2021.2.3,59.917948361028124,
TMTstop-Control_1_1.xlsx,0:26,9,['3'],3,TMTstop-control_1_1linestimulus6.png,TMTstop-control_1_1greenlinestimulus6.png,TMTstop-control_1_1redlinestimulus6.png,TMT_Control,1,9,0,0,0,0,0,8,8,8,,,,,,,,,,,,,,,,,,,,,,,,,,,,,,,,,,,,,,,,,,,,,,,2,0,2.4632656000030693,32.352682800003095,None,"['2', '3']",1,"[-0.03771009997581132, 0.07716460002120584]",32.352682800003095,None,,001,2022_May_11_1050,TMT_fmri,2021.2.3,59.917948361028124,
TMTstop-Control_1_1.xlsx,0:26,10,['2'],2,TMTstop-control_1_1linestimulus7.png,TMTstop-control_1_1greenlinestimulus7.png,TMTstop-control_1_1redlinestimulus7.png,TMT_Control,1,10,0,0,0,0,0,9,9,9,,,,,,,,,,,,,,,,,,,,,,,,,,,,,,,,,,,,,,,,,,,,,,,2,0,2.648302200017497,32.50331150001148,None,"['1', '2']",1,"[0.05780169999343343, 0.08796279999660328]",32.50331150001148,None,,001,2022_May_11_1050,TMT_fmri,2021.2.3,59.917948361028124,
TMTstop-Control_1_1.xlsx,0:26,11,['1'],1,TMTstop-control_1_1linestimulus8.png,TMTstop-control_1_1greenlinestimulus8.png,TMTstop-control_1_1redlinestimulus8.png,TMT_Control,1,11,0,0,0,0,0,10,10,10,,,,,,,,,,,,,,,,,,,,,,,,,,,,,,,,,,,,,,,,,,,,,,,5,0,3.206939199997578,32.68784900000901,None,"['3', '1', '2', '3', '1']",1,"[0.04482710000593215, 0.1732219000114128, 0.2010903999907896, 0.3477757000073325, 0.46955790001084097]",32.68784900000901,None,,001,2022_May_11_1050,TMT_fmri,2021.2.3,59.917948361028124,
TMTstop-Control_1_1.xlsx,0:26,12,['2'],2,TMTstop-control_1_1linestimulus9.png,TMTstop-control_1_1greenlinestimulus9.png,TMTstop-control_1_1redlinestimulus9.png,TMT_Control,1,12,0,0,0,0,0,11,11,11,,,,,,,,,,,,,,,,,,,,,,,,,,,,,,,,,,,,,,,,,,,,,,,1,1,3.256201100011822,33.24561100002029,None,['2'],1,[-0.046420800004852936],33.24561100002029,None,,001,2022_May_11_1050,TMT_fmri,2021.2.3,59.917948361028124,
TMTstop-Control_1_1.xlsx,0:26,13,['3'],3,TMTstop-control_1_1linestimulus10.png,TMTstop-control_1_1greenlinestimulus10.png,TMTstop-control_1_1redlinestimulus10.png,TMT_Control,1,13,0,0,0,0,0,12,12,12,,,,,,,,,,,,,,,,,,,,,,,,,,,,,,,,,,,,,,,,,,,,,,,1,1,3.358199100010097,33.29766790001304,None,['3'],1,[0.018144800007576123],33.29766790001304,None,,001,2022_May_11_1050,TMT_fmri,2021.2.3,59.917948361028124,
TMTstop-Control_1_1.xlsx,0:26,14,['2'],2,TMTstop-control_1_1linestimulus11.png,TMTstop-control_1_1greenlinestimulus11.png,TMTstop-control_1_1redlinestimulus11.png,TMT_Control,1,14,0,0,0,0,0,13,13,13,,,,,,,,,,,,,,,,,,,,,,,,,,,,,,,,,,,,,,,,,,,,,,,2,0,3.525343300017994,33.39782790001482,None,"['1', '2']",1,"[0.059033799974713475, 0.09787519997917116]",33.39782790001482,None,,001,2022_May_11_1050,TMT_fmri,2021.2.3,59.917948361028124,
TMTstop-Control_1_1.xlsx,0:26,15,['3'],3,TMTstop-control_1_1linestimulus12.png,TMTstop-control_1_1greenlinestimulus12.png,TMTstop-control_1_1redlinestimulus12.png,TMT_Control,1,15,0,0,0,0,0,14,14,14,,,,,,,,,,,,,,,,,,,,,,,,,,,,,,,,,,,,,,,,,,,,,,,1,1,3.647605800011661,33.57003740000073,None,['3'],1,[0.057528300007106736],33.57003740000073,None,,001,2022_May_11_1050,TMT_fmri,2021.2.3,59.917948361028124,
TMTstop-Control_1_1.xlsx,0:26,16,['2'],2,TMTstop-control_1_1linestimulus13.png,TMTstop-control_1_1greenlinestimulus13.png,TMTstop-control_1_1redlinestimulus13.png,TMT_Control,1,16,0,0,0,0,0,15,15,15,,,,,,,,,,,,,,,,,,,,,,,,,,,,,,,,,,,,,,,,,,,,,,,2,0,3.830756500014104,33.6864457000047,None,"['1', '2']",1,"[0.07281079998938367, 0.11866439998266287]",33.6864457000047,None,,001,2022_May_11_1050,TMT_fmri,2021.2.3,59.917948361028124,
TMTstop-Control_1_1.xlsx,0:26,17,['3'],3,TMTstop-control_1_1linestimulus14.png,TMTstop-control_1_1greenlinestimulus14.png,TMTstop-control_1_1redlinestimulus14.png,TMT_Control,1,17,0,0,0,0,0,16,16,16,,,,,,,,,,,,,,,,,,,,,,,,,,,,,,,,,,,,,,,,,,,,,,,1,1,3.947741000010865,33.87062130001141,None,['3'],1,[0.0617744000046514],33.87062130001141,None,,001,2022_May_11_1050,TMT_fmri,2021.2.3,59.917948361028124,
TMTstop-Control_1_1.xlsx,0:26,18,['2'],2,TMTstop-control_1_1linestimulus15.png,TMTstop-control_1_1greenlinestimulus15.png,TMTstop-control_1_1redlinestimulus15.png,TMT_Control,1,18,0,0,0,0,0,17,17,17,,,,,,,,,,,,,,,,,,,,,,,,,,,,,,,,,,,,,,,,,,,,,,,2,0,4.131769300001906,33.98693220000132,None,"['1', '2']",1,"[0.07864279998466372, 0.11222750000888482]",33.98693220000132,None,,001,2022_May_11_1050,TMT_fmri,2021.2.3,59.917948361028124,
TMTstop-Control_1_1.xlsx,0:26,19,['1'],1,TMTstop-control_1_1linestimulus16.png,TMTstop-control_1_1greenlinestimulus16.png,TMTstop-control_1_1redlinestimulus16.png,TMT_Control,1,19,0,0,0,0,0,18,18,18,,,,,,,,,,,,,,,,,,,,,,,,,,,,,,,,,,,,,,,,,,,,,,,2,0,4.408430000010412,34.1704872000264,None,"['3', '1']",1,"[0.05899729998782277, 0.1872101000044495]",34.1704872000264,None,,001,2022_May_11_1050,TMT_fmri,2021.2.3,59.917948361028124,
TMTstop-Control_1_1.xlsx,0:26,20,['3'],3,TMTstop-control_1_1linestimulus17.png,TMTstop-control_1_1greenlinestimulus17.png,TMTstop-control_1_1redlinestimulus17.png,TMT_Control,1,20,0,0,0,0,0,19,19,19,,,,,,,,,,,,,,,,,,,,,,,,,,,,,,,,,,,,,,,,,,,,,,,2,0,4.558827600005316,34.44765640000696,None,"['2', '3']",1,"[-0.02371909999055788, 0.08966360002523288]",34.44765640000696,None,,001,2022_May_11_1050,TMT_fmri,2021.2.3,59.917948361028124,
TMTstop-Control_1_1.xlsx,0:26,21,['1'],1,TMTstop-control_1_1linestimulus18.png,TMTstop-control_1_1greenlinestimulus18.png,TMTstop-control_1_1redlinestimulus18.png,TMT_Control,1,21,0,0,0,0,0,20,20,20,,,,,,,,,,,,,,,,,,,,,,,,,,,,,,,,,,,,,,,,,,,,,,,1,1,4.675798600015696,34.5983768000151,None,['1'],1,[0.05259519998799078],34.5983768000151,None,,001,2022_May_11_1050,TMT_fmri,2021.2.3,59.917948361028124,
TMTstop-Control_1_1.xlsx,0:26,22,['2'],2,TMTstop-control_1_1linestimulus19.png,TMTstop-control_1_1greenlinestimulus19.png,TMTstop-control_1_1redlinestimulus19.png,TMT_Control,1,22,0,0,0,0,0,21,21,21,,,,,,,,,,,,,,,,,,,,,,,,,,,,,,,,,,,,,,,,,,,,,,,1,1,4.725226300011855,34.71518530001049,None,['2'],1,[-0.02298839998547919],34.71518530001049,None,,001,2022_May_11_1050,TMT_fmri,2021.2.3,59.917948361028124,
TMTstop-Control_1_1.xlsx,0:26,23,['3'],3,TMTstop-control_1_1linestimulus20.png,TMTstop-control_1_1greenlinestimulus20.png,TMTstop-control_1_1redlinestimulus20.png,TMT_Control,1,23,0,0,0,0,0,22,22,22,,,,,,,,,,,,,,,,,,,,,,,,,,,,,,,,,,,,,,,,,,,,,,,1,1,4.831764900009148,34.77191030001268,None,['3'],1,[0.044035600003553554],34.77191030001268,None,,001,2022_May_11_1050,TMT_fmri,2021.2.3,59.917948361028124,
TMTstop-Control_1_1.xlsx,0:26,24,['2'],2,TMTstop-control_1_1linestimulus21.png,TMTstop-control_1_1greenlinestimulus21.png,TMTstop-control_1_1redlinestimulus21.png,TMT_Control,1,24,0,0,0,0,0,23,23,23,,,,,,,,,,,,,,,,,,,,,,,,,,,,,,,,,,,,,,,,,,,,,,,2,0,5.0197402000194415,34.872079900000244,None,"['1', '2']",1,"[0.06341239999164827, 0.1273628000053577]",34.872079900000244,None,,001,2022_May_11_1050,TMT_fmri,2021.2.3,59.917948361028124,
TMTstop-Control_1_1.xlsx,0:26,25,['1'],1,TMTstop-control_1_1linestimulus22.png,TMTstop-control_1_1greenlinestimulus22.png,TMTstop-control_1_1redlinestimulus22.png,TMT_Control,1,25,0,0,0,0,0,24,24,24,,,,,,,,,,,,,,,,,,,,,,,,,,,,,,,,,,,,,,,,,,,,,,,2,0,5.28852060000645,35.06489720000536,None,"['3', '1']",1,"[0.06843770001432858, 0.17817560001276433]",35.06489720000536,None,,001,2022_May_11_1050,TMT_fmri,2021.2.3,59.917948361028124,
TMTstop-Control_1_1.xlsx,0:26,None,None,None,TMTstop-control_1_1linestimulus23.png,TMTstop-control_1_1greenlinestimulus23.png,TMTstop-control_1_1redlinestimulus23.png,TMT_Control,1,Feedback_last,0,0,0,0,0,25,25,25,,,,,,,,,,,,,,,,,,,,,,,,,,,,,,,,,,,,,,,,,,,,,,,2,0,,35.328383800020674,None,"['2', '3']",0,"[-0.037822999991476536, 0.08582099998602644]",35.328383800020674,None,,001,2022_May_11_1050,TMT_fmri,2021.2.3,59.917948361028124,
TMTstop-Control_1_2.xlsx,26:52,1,['2'],2,TMTstop-control_1_2.png,TMTstop-control_1_2.png,TMTstop-control_1_2.png,TMT_Control,2,26,0,1,1,1,0,0,0,0,,,,,,,,,,,,,,,,,,,,,,,,,,,,,,,,,,,,,,,,,,,,,,,2,0,10.344086900004186,39.4739041000139,None,"['1', '2']",1,"[0.6837738999747671, 0.8586696999846026]",39.4739041000139,None,,001,2022_May_11_1050,TMT_fmri,2021.2.3,59.917948361028124,
TMTstop-Control_1_2.xlsx,26:52,2,['3'],3,TMTstop-control_1_2.png,TMTstop-control_1_2firstgreen.png,TMTstop-control_1_2firstred.png,TMT_Control,2,27,0,1,1,1,0,1,1,1,,,,,,,,,,,,,,,,,,,,,,,,,,,,,,,,,,,,,,,,,,,,,,,1,1,10.401136900007259,40.39021650000359,None,['3'],1,[-0.011176100000739098],40.39021650000359,None,,001,2022_May_11_1050,TMT_fmri,2021.2.3,59.917948361028124,
TMTstop-Control_1_2.xlsx,26:52,3,['2'],2,TMTstop-control_1_2linestimulus0.png,TMTstop-control_1_2greenlinestimulus0.png,TMTstop-control_1_2redlinestimulus0.png,TMT_Control,2,28,0,1,1,1,0,2,2,2,,,,,,,,,,,,,,,,,,,,,,,,,,,,,,,,,,,,,,,,,,,,,,,2,0,10.694180499995127,40.45698750001611,None,"['1', '2']",1,"[0.1088473999989219, 0.20054350001737475]",40.45698750001611,None,,001,2022_May_11_1050,TMT_fmri,2021.2.3,59.917948361028124,
TMTstop-Control_1_2.xlsx,26:52,4,['3'],3,TMTstop-control_1_2linestimulus1.png,TMTstop-control_1_2greenlinestimulus1.png,TMTstop-control_1_2redlinestimulus1.png,TMT_Control,2,29,0,1,1,1,0,3,3,3,,,,,,,,,,,,,,,,,,,,,,,,,,,,,,,,,,,,,,,,,,,,,,,1,1,10.750675500021316,40.74023950000992,None,['3'],1,[-0.0036771000013686717],40.74023950000992,None,,001,2022_May_11_1050,TMT_fmri,2021.2.3,59.917948361028124,
TMTstop-Control_1_2.xlsx,26:52,5,['2'],2,TMTstop-control_1_2linestimulus2.png,TMTstop-control_1_2greenlinestimulus2.png,TMTstop-control_1_2redlinestimulus2.png,TMT_Control,2,30,0,1,1,1,0,4,4,4,,,,,,,,,,,,,,,,,,,,,,,,,,,,,,,,,,,,,,,,,,,,,,,2,0,10.951430000015534,40.79023300000699,None,"['1', '2']",1,"[0.08601729999645613, 0.14515539997955784]",40.79023300000699,None,,001,2022_May_11_1050,TMT_fmri,2021.2.3,59.917948361028124,
TMTstop-Control_1_2.xlsx,26:52,6,['3'],3,TMTstop-control_1_2linestimulus3.png,TMTstop-control_1_2greenlinestimulus3.png,TMTstop-control_1_2redlinestimulus3.png,TMT_Control,2,31,0,1,1,1,0,5,5,5,,,,,,,,,,,,,,,,,,,,,,,,,,,,,,,,,,,,,,,,,,,,,,,1,1,11.051549600000726,40.9905032000097,None,['3'],1,[0.04887860000599176],40.9905032000097,None,,001,2022_May_11_1050,TMT_fmri,2021.2.3,59.917948361028124,
TMTstop-Control_1_2.xlsx,26:52,7,['2'],2,TMTstop-control_1_2linestimulus4.png,TMTstop-control_1_2greenlinestimulus4.png,TMTstop-control_1_2redlinestimulus4.png,TMT_Control,2,32,0,1,1,1,0,6,6,6,,,,,,,,,,,,,,,,,,,,,,,,,,,,,,,,,,,,,,,,,,,,,,,2,0,11.284392800007481,41.09055920000537,None,"['1', '2']",1,"[0.06957150000380352, 0.13561680002021603]",41.09055920000537,None,,001,2022_May_11_1050,TMT_fmri,2021.2.3,59.917948361028124,
TMTstop-Control_1_2.xlsx,26:52,8,['1'],1,TMTstop-control_1_2linestimulus4.png,TMTstop-control_1_2greenlinestimulus5.png,TMTstop-control_1_2redlinestimulus5.png,TMT_Control,2,33,0,1,1,1,0,7,7,7,,,,,,,,,,,,,,,,,,,,,,,,,,,,,,,,,,,,,,,,,,,,,,,2,0,11.441550400020787,41.33104190000449,None,"['3', '1']",1,"[-0.024494899989804253, 0.0961544000019785]",41.33104190000449,None,,001,2022_May_11_1050,TMT_fmri,2021.2.3,59.917948361028124,
TMTstop-Control_1_2.xlsx,26:52,9,['3'],3,TMTstop-control_1_2linestimulus6.png,TMTstop-control_1_2greenlinestimulus6.png,TMTstop-control_1_2redlinestimulus6.png,TMT_Control,2,34,0,1,1,1,0,8,8,8,,,,,,,,,,,,,,,,,,,,,,,,,,,,,,,,,,,,,,,,,,,,,,,2,0,11.642543900001328,41.48074330002419,None,"['2', '3']",1,"[0.022938699985388666, 0.11070989997824654]",41.48074330002419,None,,001,2022_May_11_1050,TMT_fmri,2021.2.3,59.917948361028124,
TMTstop-Control_1_2.xlsx,26:52,10,['2'],2,TMTstop-control_1_2linestimulus7.png,TMTstop-control_1_2greenlinestimulus7.png,TMTstop-control_1_2redlinestimulus7.png,TMT_Control,2,35,0,1,1,1,0,9,9,9,,,,,,,,,,,,,,,,,,,,,,,,,,,,,,,,,,,,,,,,,,,,,,,2,0,11.864522699994268,41.681434000027366,None,"['1', '2']",1,"[0.057587799994507805, 0.12217049999162555]",41.681434000027366,None,,001,2022_May_11_1050,TMT_fmri,2021.2.3,59.917948361028124,
TMTstop-Control_1_2.xlsx,26:52,11,['3'],3,TMTstop-control_1_2linestimulus8.png,TMTstop-control_1_2greenlinestimulus8.png,TMTstop-control_1_2redlinestimulus8.png,TMT_Control,2,36,0,1,1,1,0,10,10,10,,,,,,,,,,,,,,,,,,,,,,,,,,,,,,,,,,,,,,,,,,,,,,,1,1,11.921551900013583,41.911271200020565,None,['3'],1,[-0.01146310000331141],41.911271200020565,None,,001,2022_May_11_1050,TMT_fmri,2021.2.3,59.917948361028124,
TMTstop-Control_1_2.xlsx,26:52,12,['2'],2,TMTstop-control_1_2linestimulus9.png,TMTstop-control_1_2greenlinestimulus9.png,TMTstop-control_1_2redlinestimulus9.png,TMT_Control,2,37,0,1,1,1,0,11,11,11,,,,,,,,,,,,,,,,,,,,,,,,,,,,,,,,,,,,,,,,,,,,,,,2,0,12.088573900022311,41.961372800025856,None,"['1', '2']",1,"[0.06723129999591038, 0.11331499999505468]",41.961372800025856,None,,001,2022_May_11_1050,TMT_fmri,2021.2.3,59.917948361028124,
TMTstop-Control_1_2.xlsx,26:52,13,['3'],3,TMTstop-control_1_2linestimulus10.png,TMTstop-control_1_2greenlinestimulus10.png,TMTstop-control_1_2redlinestimulus10.png,TMT_Control,2,38,0,1,1,1,0,12,12,12,,,,,,,,,,,,,,,,,,,,,,,,,,,,,,,,,,,,,,,,,,,,,,,1,1,12.21054689999437,42.13382410001941,None,['3'],1,[0.055478199996287],42.13382410001941,None,,001,2022_May_11_1050,TMT_fmri,2021.2.3,59.917948361028124,
TMTstop-Control_1_2.xlsx,26:52,14,['2'],2,TMTstop-control_1_2linestimulus11.png,TMTstop-control_1_2greenlinestimulus11.png,TMTstop-control_1_2redlinestimulus11.png,TMT_Control,2,39,0,1,1,1,0,13,13,13,,,,,,,,,,,,,,,,,,,,,,,,,,,,,,,,,,,,,,,,,,,,,,,2,0,12.377550100005465,42.250558400002774,None,"['1', '2']",1,"[0.05664789999718778, 0.11295020001125522]",42.250558400002774,None,,001,2022_May_11_1050,TMT_fmri,2021.2.3,59.917948361028124,
TMTstop-Control_1_2.xlsx,26:52,15,['3'],3,TMTstop-control_1_2linestimulus12.png,TMTstop-control_1_2greenlinestimulus12.png,TMTstop-control_1_2redlinestimulus12.png,TMT_Control,2,40,0,1,1,1,0,14,14,14,,,,,,,,,,,,,,,,,,,,,,,,,,,,,,,,,,,,,,,,,,,,,,,1,1,12.494544300017878,42.41741050002747,None,['3'],1,[0.0558757999970112],42.41741050002747,None,,001,2022_May_11_1050,TMT_fmri,2021.2.3,59.917948361028124,
TMTstop-Control_1_2.xlsx,26:52,16,['1'],1,TMTstop-control_1_2linestimulus13.png,TMTstop-control_1_2greenlinestimulus13.png,TMTstop-control_1_2redlinestimulus13.png,TMT_Control,2,41,0,1,1,1,0,15,15,15,,,,,,,,,,,,,,,,,,,,,,,,,,,,,,,,,,,,,,,,,,,,,,,1,1,12.611557399999583,42.53419630002463,None,['1'],1,[0.06699699998716824],42.53419630002463,None,,001,2022_May_11_1050,TMT_fmri,2021.2.3,59.917948361028124,
TMTstop-Control_1_2.xlsx,26:52,17,['2'],2,TMTstop-control_1_2linestimulus14.png,TMTstop-control_1_2greenlinestimulus14.png,TMTstop-control_1_2redlinestimulus14.png,TMT_Control,2,42,0,1,1,1,0,16,16,16,,,,,,,,,,,,,,,,,,,,,,,,,,,,,,,,,,,,,,,,,,,,,,,1,1,12.661546000017552,42.65100030001486,None,['2'],1,[-0.005554800009122118],42.65100030001486,None,,001,2022_May_11_1050,TMT_fmri,2021.2.3,59.917948361028124,
TMTstop-Control_1_2.xlsx,26:52,18,['1'],1,TMTstop-control_1_2linestimulus15.png,TMTstop-control_1_2greenlinestimulus15.png,TMTstop-control_1_2redlinestimulus15.png,TMT_Control,2,43,0,1,1,1,0,17,17,17,,,,,,,,,,,,,,,,,,,,,,,,,,,,,,,,,,,,,,,,,,,,,,,2,0,12.967522000020836,42.700941500021145,None,"['3', '1']",1,"[0.0863684999931138, 0.2251137999992352]",42.700941500021145,None,,001,2022_May_11_1050,TMT_fmri,2021.2.3,59.917948361028124,
TMTstop-Control_1_2.xlsx,26:52,19,['2'],2,TMTstop-control_1_2linestimulus16.png,TMTstop-control_1_2greenlinestimulus16.png,TMTstop-control_1_2redlinestimulus16.png,TMT_Control,2,44,0,1,1,1,0,18,18,18,,,,,,,,,,,,,,,,,,,,,,,,,,,,,,,,,,,,,,,,,,,,,,,1,1,13.02451960000326,43.01404400001047,None,['2'],1,[-0.03755979999550618],43.01404400001047,None,,001,2022_May_11_1050,TMT_fmri,2021.2.3,59.917948361028124,
TMTstop-Control_1_2.xlsx,26:52,20,['3'],3,TMTstop-control_1_2linestimulus17.png,TMTstop-control_1_2greenlinestimulus17.png,TMTstop-control_1_2redlinestimulus17.png,TMT_Control,2,45,0,1,1,1,0,19,19,19,,,,,,,,,,,,,,,,,,,,,,,,,,,,,,,,,,,,,,,,,,,,,,,1,1,13.12446490000002,43.06341070000781,None,['3'],1,[0.04194239998469129],43.06341070000781,None,,001,2022_May_11_1050,TMT_fmri,2021.2.3,59.917948361028124,
TMTstop-Control_1_2.xlsx,26:52,21,['1'],1,TMTstop-control_1_2linestimulus18.png,TMTstop-control_1_2greenlinestimulus18.png,TMTstop-control_1_2redlinestimulus18.png,TMT_Control,2,46,0,1,1,1,0,20,20,20,,,,,,,,,,,,,,,,,,,,,,,,,,,,,,,,,,,,,,,,,,,,,,,1,1,13.224688600021182,43.16393260000041,None,['1'],1,[0.04685720000998117],43.16393260000041,None,,001,2022_May_11_1050,TMT_fmri,2021.2.3,59.917948361028124,
TMTstop-Control_1_2.xlsx,26:52,22,['3'],3,TMTstop-control_1_2linestimulus19.png,TMTstop-control_1_2greenlinestimulus19.png,TMTstop-control_1_2redlinestimulus19.png,TMT_Control,2,47,0,1,1,1,0,21,21,21,,,,,,,,,,,,,,,,,,,,,,,,,,,,,,,,,,,,,,,,,,,,,,,2,0,13.430637400015257,43.26383160002297,None,"['2', '3']",1,"[0.0002775999892037362, 0.12596699999994598]",43.26383160002297,None,,001,2022_May_11_1050,TMT_fmri,2021.2.3,59.917948361028124,
TMTstop-Control_1_2.xlsx,26:52,23,['2'],2,TMTstop-control_1_2linestimulus20.png,TMTstop-control_1_2greenlinestimulus20.png,TMTstop-control_1_2redlinestimulus20.png,TMT_Control,2,48,0,1,1,1,0,22,22,22,,,,,,,,,,,,,,,,,,,,,,,,,,,,,,,,,,,,,,,,,,,,,,,2,0,13.631611999997403,43.47040030002245,None,"['1', '2']",1,"[0.049502499983645976, 0.10609180000028573]",43.47040030002245,None,,001,2022_May_11_1050,TMT_fmri,2021.2.3,59.917948361028124,
TMTstop-Control_1_2.xlsx,26:52,24,['3'],3,TMTstop-control_1_2linestimulus21.png,TMTstop-control_1_2greenlinestimulus21.png,TMTstop-control_1_2redlinestimulus21.png,TMT_Control,2,49,0,1,1,1,0,23,23,23,,,,,,,,,,,,,,,,,,,,,,,,,,,,,,,,,,,,,,,,,,,,,,,1,1,13.697683800011873,43.670686500001466,None,['3'],1,[0.016604900010861456],43.670686500001466,None,,001,2022_May_11_1050,TMT_fmri,2021.2.3,59.917948361028124,
TMTstop-Control_1_2.xlsx,26:52,25,['1'],1,TMTstop-control_1_2linestimulus22.png,TMTstop-control_1_2greenlinestimulus22.png,TMTstop-control_1_2redlinestimulus22.png,TMT_Control,2,50,0,1,1,1,0,24,24,24,,,,,,,,,,,,,,,,,,,,,,,,,,,,,,,,,,,,,,,,,,,,,,,1,1,13.841125100007048,43.74369120001211,None,['1'],1,[0.07112280000001192],43.74369120001211,None,,001,2022_May_11_1050,TMT_fmri,2021.2.3,59.917948361028124,
TMTstop-Control_1_2.xlsx,26:52,None,None,None,TMTstop-control_1_2linestimulus23.png,TMTstop-control_1_2greenlinestimulus23.png,TMTstop-control_1_2redlinestimulus23.png,TMT_Control,2,Feedback_last,0,1,1,1,0,25,25,25,,,,,,,,,,,,,,,,,,,,,,,,,,,,,,,,,,,,,,,,,,,,,,,5,0,,43.88057780000963,None,"['2', '3', '1', '2', '3']",0,"[-0.014040799986105412, 0.0984535000170581, 0.2195650000066962, 0.2810569000139367, 0.4084451000089757]",43.88057780000963,None,,001,2022_May_11_1050,TMT_fmri,2021.2.3,59.917948361028124,
TMTstop-Control_1_3.xlsx,52:78,1,['2'],2,TMTstop-control_1_3.png,TMTstop-control_1_3.png,TMTstop-control_1_3.png,TMT_Control,3,51,0,2,2,2,0,0,0,0,,,,,,,,,,,,,,,,,,,,,,,,,,,,,,,,,,,,,,,,,,,,,,,2,0,18.679306800011545,48.02769880002597,None,"['1', '2']",1,"[0.4972483000019565, 0.6249345999967773]",48.02769880002597,None,,001,2022_May_11_1050,TMT_fmri,2021.2.3,59.917948361028124,
TMTstop-Control_1_3.xlsx,52:78,2,['1'],1,TMTstop-control_1_3.png,TMTstop-control_1_3firstgreen.png,TMTstop-control_1_3firstred.png,TMT_Control,3,52,0,2,2,2,0,1,1,1,,,,,,,,,,,,,,,,,,,,,,,,,,,,,,,,,,,,,,,,,,,,,,,2,0,18.832305600022664,48.72208330000285,None,"['3', '1']",1,"[-0.040733100002398714, 0.09728270000778139]",48.72208330000285,None,,001,2022_May_11_1050,TMT_fmri,2021.2.3,59.917948361028124,
TMTstop-Control_1_3.xlsx,52:78,3,['2'],2,TMTstop-control_1_3linestimulus0.png,TMTstop-control_1_3greenlinestimulus0.png,TMTstop-control_1_3redlinestimulus0.png,TMT_Control,3,53,0,2,2,2,0,2,2,2,,,,,,,,,,,,,,,,,,,,,,,,,,,,,,,,,,,,,,,,,,,,,,,1,1,18.900128600012977,48.87270120001631,None,['2'],1,[0.010165499988943338],48.87270120001631,None,,001,2022_May_11_1050,TMT_fmri,2021.2.3,59.917948361028124,
TMTstop-Control_1_3.xlsx,52:78,4,['1'],1,TMTstop-control_1_3linestimulus1.png,TMTstop-control_1_3greenlinestimulus1.png,TMTstop-control_1_3redlinestimulus1.png,TMT_Control,3,54,0,2,2,2,0,3,3,3,,,,,,,,,,,,,,,,,,,,,,,,,,,,,,,,,,,,,,,,,,,,,,,2,0,19.146518800000194,48.94621240001288,None,"['3', '1']",1,"[0.03774369999882765, 0.18111870001303032]",48.94621240001288,None,,001,2022_May_11_1050,TMT_fmri,2021.2.3,59.917948361028124,
TMTstop-Control_1_3.xlsx,52:78,5,['3'],3,TMTstop-control_1_3linestimulus2.png,TMTstop-control_1_3greenlinestimulus2.png,TMTstop-control_1_3redlinestimulus2.png,TMT_Control,3,55,0,2,2,2,0,4,4,4,,,,,,,,,,,,,,,,,,,,,,,,,,,,,,,,,,,,,,,,,,,,,,,2,0,19.2964864000096,49.18577210002695,None,"['2', '3']",1,"[-0.011846700013848022, 0.07924679998541251]",49.18577210002695,None,,001,2022_May_11_1050,TMT_fmri,2021.2.3,59.917948361028124,
TMTstop-Control_1_3.xlsx,52:78,6,['1'],1,TMTstop-control_1_3linestimulus3.png,TMTstop-control_1_3greenlinestimulus3.png,TMTstop-control_1_3redlinestimulus3.png,TMT_Control,3,56,0,2,2,2,0,5,5,5,,,,,,,,,,,,,,,,,,,,,,,,,,,,,,,,,,,,,,,,,,,,,,,1,1,19.429520900011994,49.33601009999984,None,['1'],1,[0.0733817000000272],49.33601009999984,None,,001,2022_May_11_1050,TMT_fmri,2021.2.3,59.917948361028124,
TMTstop-Control_1_3.xlsx,52:78,7,['2'],2,TMTstop-control_1_3linestimulus4.png,TMTstop-control_1_3greenlinestimulus4.png,TMTstop-control_1_3redlinestimulus4.png,TMT_Control,3,57,0,2,2,2,0,6,6,6,,,,,,,,,,,,,,,,,,,,,,,,,,,,,,,,,,,,,,,,,,,,,,,1,1,19.529424500011373,49.469363900017925,None,['2'],1,[0.0382771999866236],49.469363900017925,None,,001,2022_May_11_1050,TMT_fmri,2021.2.3,59.917948361028124,
TMTstop-Control_1_3.xlsx,52:78,8,['3'],3,TMTstop-control_1_3linestimulus4.png,TMTstop-control_1_3greenlinestimulus5.png,TMTstop-control_1_3redlinestimulus5.png,TMT_Control,3,58,0,2,2,2,0,7,7,7,,,,,,,,,,,,,,,,,,,,,,,,,,,,,,,,,,,,,,,,,,,,,,,1,1,19.613510099996347,49.569600400020136,None,['3'],1,[0.00956679999944754],49.569600400020136,None,,001,2022_May_11_1050,TMT_fmri,2021.2.3,59.917948361028124,
TMTstop-Control_1_3.xlsx,52:78,9,['1'],1,TMTstop-control_1_3linestimulus6.png,TMTstop-control_1_3greenlinestimulus6.png,TMTstop-control_1_3redlinestimulus6.png,TMT_Control,3,59,0,2,2,2,0,8,8,8,,,,,,,,,,,,,,,,,,,,,,,,,,,,,,,,,,,,,,,,,,,,,,,1,1,19.750520600005984,49.65296870001475,None,['1'],1,[0.0678001000196673],49.65296870001475,None,,001,2022_May_11_1050,TMT_fmri,2021.2.3,59.917948361028124,
TMTstop-Control_1_3.xlsx,52:78,10,['2'],2,TMTstop-control_1_3linestimulus7.png,TMTstop-control_1_3greenlinestimulus7.png,TMTstop-control_1_3redlinestimulus7.png,TMT_Control,3,60,0,2,2,2,0,9,9,9,,,,,,,,,,,,,,,,,,,,,,,,,,,,,,,,,,,,,,,,,,,,,,,1,1,19.800505699997302,49.7896968999994,None,['2'],1,[-0.01273139999830164],49.7896968999994,None,,001,2022_May_11_1050,TMT_fmri,2021.2.3,59.917948361028124,
TMTstop-Control_1_3.xlsx,52:78,11,['1'],1,TMTstop-control_1_3linestimulus8.png,TMTstop-control_1_3greenlinestimulus8.png,TMTstop-control_1_3redlinestimulus8.png,TMT_Control,3,61,0,2,2,2,0,10,10,10,,,,,,,,,,,,,,,,,,,,,,,,,,,,,,,,,,,,,,,,,,,,,,,2,0,20.01916340002208,49.845435800001724,None,"['3', '1']",1,"[0.014570400002412498, 0.14566019998164847]",49.845435800001724,None,,001,2022_May_11_1050,TMT_fmri,2021.2.3,59.917948361028124,
TMTstop-Control_1_3.xlsx,52:78,12,['2'],2,TMTstop-control_1_3linestimulus9.png,TMTstop-control_1_3greenlinestimulus9.png,TMTstop-control_1_3redlinestimulus9.png,TMT_Control,3,62,0,2,2,2,0,11,11,11,,,,,,,,,,,,,,,,,,,,,,,,,,,,,,,,,,,,,,,,,,,,,,,1,1,20.069151300005615,50.05839580000611,None,['2'],1,[-0.011137399997096509],50.05839580000611,None,,001,2022_May_11_1050,TMT_fmri,2021.2.3,59.917948361028124,
TMTstop-Control_1_3.xlsx,52:78,13,['3'],3,TMTstop-control_1_3linestimulus10.png,TMTstop-control_1_3greenlinestimulus10.png,TMTstop-control_1_3redlinestimulus10.png,TMT_Control,3,63,0,2,2,2,0,12,12,12,,,,,,,,,,,,,,,,,,,,,,,,,,,,,,,,,,,,,,,,,,,,,,,1,1,20.16907750000246,50.10869090000051,None,['3'],1,[0.025184900005115196],50.10869090000051,None,,001,2022_May_11_1050,TMT_fmri,2021.2.3,59.917948361028124,
TMTstop-Control_1_3.xlsx,52:78,14,['2'],2,TMTstop-control_1_3linestimulus11.png,TMTstop-control_1_3greenlinestimulus11.png,TMTstop-control_1_3redlinestimulus11.png,TMT_Control,3,64,0,2,2,2,0,13,13,13,,,,,,,,,,,,,,,,,,,,,,,,,,,,,,,,,,,,,,,,,,,,,,,2,0,20.37617780000437,50.20877140000812,None,"['1', '2']",1,"[0.05034000001614913, 0.14474720001453534]",50.20877140000812,None,,001,2022_May_11_1050,TMT_fmri,2021.2.3,59.917948361028124,
TMTstop-Control_1_3.xlsx,52:78,15,['1'],1,TMTstop-control_1_3linestimulus12.png,TMTstop-control_1_3greenlinestimulus12.png,TMTstop-control_1_3redlinestimulus12.png,TMT_Control,3,65,0,2,2,2,0,14,14,14,,,,,,,,,,,,,,,,,,,,,,,,,,,,,,,,,,,,,,,,,,,,,,,2,0,20.57593680001446,50.41563580001821,None,"['3', '1']",1,"[0.00047519998042844236, 0.13587169998208992]",50.41563580001821,None,,001,2022_May_11_1050,TMT_fmri,2021.2.3,59.917948361028124,
TMTstop-Control_1_3.xlsx,52:78,16,['3'],3,TMTstop-control_1_3linestimulus13.png,TMTstop-control_1_3greenlinestimulus13.png,TMTstop-control_1_3redlinestimulus13.png,TMT_Control,3,66,0,2,2,2,0,15,15,15,,,,,,,,,,,,,,,,,,,,,,,,,,,,,,,,,,,,,,,,,,,,,,,2,0,20.726935700018657,50.615884700004244,None,"['2', '3']",1,"[-0.01787539999349974, 0.09196089999750257]",50.615884700004244,None,,001,2022_May_11_1050,TMT_fmri,2021.2.3,59.917948361028124,
TMTstop-Control_1_3.xlsx,52:78,17,['1'],1,TMTstop-control_1_3linestimulus14.png,TMTstop-control_1_3greenlinestimulus14.png,TMTstop-control_1_3redlinestimulus14.png,TMT_Control,3,67,0,2,2,2,0,16,16,16,,,,,,,,,,,,,,,,,,,,,,,,,,,,,,,,,,,,,,,,,,,,,,,1,1,20.860981600009836,50.76582620001864,None,['1'],1,[0.0681001000048127],50.76582620001864,None,,001,2022_May_11_1050,TMT_fmri,2021.2.3,59.917948361028124,
TMTstop-Control_1_3.xlsx,52:78,18,['3'],3,TMTstop-control_1_3linestimulus15.png,TMTstop-control_1_3greenlinestimulus15.png,TMTstop-control_1_3redlinestimulus15.png,TMT_Control,3,68,0,2,2,2,0,17,17,17,,,,,,,,,,,,,,,,,,,,,,,,,,,,,,,,,,,,,,,,,,,,,,,2,0,21.01004710001871,50.90003310001339,None,"['2', '3']",1,"[-0.02391319998423569, 0.09247450000839308]",50.90003310001339,None,,001,2022_May_11_1050,TMT_fmri,2021.2.3,59.917948361028124,
TMTstop-Control_1_3.xlsx,52:78,19,['2'],2,TMTstop-control_1_3linestimulus16.png,TMTstop-control_1_3greenlinestimulus16.png,TMTstop-control_1_3redlinestimulus16.png,TMT_Control,3,69,0,2,2,2,0,18,18,18,,,,,,,,,,,,,,,,,,,,,,,,,,,,,,,,,,,,,,,,,,,,,,,2,0,21.244902300008107,51.050459600024624,None,"['1', '2']",1,"[0.07725229999050498, 0.1371711999818217]",51.050459600024624,None,,001,2022_May_11_1050,TMT_fmri,2021.2.3,59.917948361028124,
TMTstop-Control_1_3.xlsx,52:78,20,['1'],1,TMTstop-control_1_3linestimulus17.png,TMTstop-control_1_3greenlinestimulus17.png,TMTstop-control_1_3redlinestimulus17.png,TMT_Control,3,70,0,2,2,2,0,19,19,19,,,,,,,,,,,,,,,,,,,,,,,,,,,,,,,,,,,,,,,,,,,,,,,2,0,21.43101190001471,51.29050500001176,None,"['3', '1']",1,"[0.008074499986832961, 0.1213479999860283]",51.29050500001176,None,,001,2022_May_11_1050,TMT_fmri,2021.2.3,59.917948361028124,
TMTstop-Control_1_3.xlsx,52:78,21,['3'],3,TMTstop-control_1_3linestimulus18.png,TMTstop-control_1_3greenlinestimulus18.png,TMTstop-control_1_3redlinestimulus18.png,TMT_Control,3,71,0,2,2,2,0,20,20,20,,,,,,,,,,,,,,,,,,,,,,,,,,,,,,,,,,,,,,,,,,,,,,,2,0,21.580864600022323,51.47049780000816,None,"['2', '3']",1,"[0.020242900005541742, 0.08537310000974685]",51.47049780000816,None,,001,2022_May_11_1050,TMT_fmri,2021.2.3,59.917948361028124,
TMTstop-Control_1_3.xlsx,52:78,22,['2'],2,TMTstop-control_1_3linestimulus19.png,TMTstop-control_1_3greenlinestimulus19.png,TMTstop-control_1_3redlinestimulus19.png,TMT_Control,3,72,0,2,2,2,0,21,21,21,,,,,,,,,,,,,,,,,,,,,,,,,,,,,,,,,,,,,,,,,,,,,,,2,0,21.803873099997872,51.62021580000874,None,"['1', '2']",1,"[0.0679074999934528, 0.1542667000030633]",51.62021580000874,None,,001,2022_May_11_1050,TMT_fmri,2021.2.3,59.917948361028124,
TMTstop-Control_1_3.xlsx,52:78,23,['3'],3,TMTstop-control_1_3linestimulus20.png,TMTstop-control_1_3greenlinestimulus20.png,TMTstop-control_1_3redlinestimulus20.png,TMT_Control,3,73,0,2,2,2,0,22,22,22,,,,,,,,,,,,,,,,,,,,,,,,,,,,,,,,,,,,,,,,,,,,,,,1,1,21.876870500011137,51.85007470002165,None,['3'],1,[0.01661039999453351],51.85007470002165,None,,001,2022_May_11_1050,TMT_fmri,2021.2.3,59.917948361028124,
TMTstop-Control_1_3.xlsx,52:78,24,['1'],1,TMTstop-control_1_3linestimulus21.png,TMTstop-control_1_3greenlinestimulus21.png,TMTstop-control_1_3redlinestimulus21.png,TMT_Control,3,74,0,2,2,2,0,23,23,23,,,,,,,,,,,,,,,,,,,,,,,,,,,,,,,,,,,,,,,,,,,,,,,1,1,21.984780800004955,51.9236804000102,None,['1'],1,[0.051902999985031784],51.9236804000102,None,,001,2022_May_11_1050,TMT_fmri,2021.2.3,59.917948361028124,
TMTstop-Control_1_3.xlsx,52:78,25,['2'],2,TMTstop-control_1_3linestimulus22.png,TMTstop-control_1_3greenlinestimulus22.png,TMTstop-control_1_3redlinestimulus22.png,TMT_Control,3,75,0,2,2,2,0,24,24,24,,,,,,,,,,,,,,,,,,,,,,,,,,,,,,,,,,,,,,,,,,,,,,,1,1,22.050879400019767,52.0237860000052,None,['2'],1,[0.007587500003864989],52.0237860000052,None,,001,2022_May_11_1050,TMT_fmri,2021.2.3,59.917948361028124,
TMTstop-Control_1_3.xlsx,52:78,None,None,None,TMTstop-control_1_3linestimulus23.png,TMTstop-control_1_3greenlinestimulus23.png,TMTstop-control_1_3redlinestimulus23.png,TMT_Control,3,Feedback_last,0,2,2,2,0,25,25,25,,,,,,,,,,,,,,,,,,,,,,,,,,,,,,,,,,,,,,,,,,,,,,,4,0,,52.09560140001122,None,"['3', '1', '2', '3']",0,"[0.04514490001020022, 0.15050129999872297, 0.2169659000064712, 0.3386907000094652]",52.09560140001122,None,,001,2022_May_11_1050,TMT_fmri,2021.2.3,59.917948361028124,
TMTstop-Control_1_4.xlsx,78:104,1,['2'],2,TMTstop-control_1_4.png,TMTstop-control_1_4.png,TMTstop-control_1_4.png,TMT_Control,4,76,0,3,3,3,0,0,0,0,,,,,,,,,,,,,,,,,,,,,,,,,,,,,,,,,,,,,,,,,,,,,,,2,0,26.74577270000009,56.19644940001308,None,"['1', '2']",1,"[0.39224600000306964, 0.4933899999887217]",56.19644940001308,None,,001,2022_May_11_1050,TMT_fmri,2021.2.3,59.917948361028124,
TMTstop-Control_1_4.xlsx,78:104,2,['1'],1,TMTstop-control_1_4.png,TMTstop-control_1_4firstgreen.png,TMTstop-control_1_4firstred.png,TMT_Control,4,77,0,3,3,3,0,1,1,1,,,,,,,,,,,,,,,,,,,,,,,,,,,,,,,,,,,,,,,,,,,,,,,2,0,26.948898000002373,56.78870810000808,None,"['3', '1']",1,"[-0.011432900006184354, 0.13948780001373962]",56.78870810000808,None,,001,2022_May_11_1050,TMT_fmri,2021.2.3,59.917948361028124,
TMTstop-Control_1_4.xlsx,78:104,3,['3'],3,TMTstop-control_1_4linestimulus0.png,TMTstop-control_1_4greenlinestimulus0.png,TMTstop-control_1_4redlinestimulus0.png,TMT_Control,4,78,0,3,3,3,0,2,2,2,,,,,,,,,,,,,,,,,,,,,,,,,,,,,,,,,,,,,,,,,,,,,,,2,0,27.149903200013796,56.98894610002753,None,"['2', '3']",1,"[-0.002710999979171902, 0.10218750001513399]",56.98894610002753,None,,001,2022_May_11_1050,TMT_fmri,2021.2.3,59.917948361028124,
TMTstop-Control_1_4.xlsx,78:104,4,['1'],1,TMTstop-control_1_4linestimulus1.png,TMTstop-control_1_4greenlinestimulus1.png,TMTstop-control_1_4redlinestimulus1.png,TMT_Control,4,79,0,3,3,3,0,3,3,3,,,,,,,,,,,,,,,,,,,,,,,,,,,,,,,,,,,,,,,,,,,,,,,1,1,27.23491530001047,57.18912980001187,None,['1'],1,[0.010322499991161749],57.18912980001187,None,,001,2022_May_11_1050,TMT_fmri,2021.2.3,59.917948361028124,
TMTstop-Control_1_4.xlsx,78:104,5,['3'],3,TMTstop-control_1_4linestimulus2.png,TMTstop-control_1_4greenlinestimulus2.png,TMTstop-control_1_4redlinestimulus2.png,TMT_Control,4,80,0,3,3,3,0,4,4,4,,,,,,,,,,,,,,,,,,,,,,,,,,,,,,,,,,,,,,,,,,,,,,,2,0,27.387907099997392,57.277957000012975,None,"['2', '3']",1,"[-0.023348099988652393, 0.05534389999229461]",57.277957000012975,None,,001,2022_May_11_1050,TMT_fmri,2021.2.3,59.917948361028124,
TMTstop-Control_1_4.xlsx,78:104,6,['1'],1,TMTstop-control_1_4linestimulus3.png,TMTstop-control_1_4greenlinestimulus3.png,TMTstop-control_1_4redlinestimulus3.png,TMT_Control,4,81,0,3,3,3,0,5,5,5,,,,,,,,,,,,,,,,,,,,,,,,,,,,,,,,,,,,,,,,,,,,,,,1,1,27.488906100013992,57.4282552000077,None,['1'],1,[0.028203499998198822],57.4282552000077,None,,001,2022_May_11_1050,TMT_fmri,2021.2.3,59.917948361028124,
TMTstop-Control_1_4.xlsx,78:104,7,['3'],3,TMTstop-control_1_4linestimulus4.png,TMTstop-control_1_4greenlinestimulus4.png,TMTstop-control_1_4redlinestimulus4.png,TMT_Control,4,82,0,3,3,3,0,6,6,6,,,,,,,,,,,,,,,,,,,,,,,,,,,,,,,,,,,,,,,,,,,,,,,2,0,27.66790180001408,57.52859530001297,None,"['2', '3']",1,"[0.0027701000217348337, 0.08297000001766719]",57.52859530001297,None,,001,2022_May_11_1050,TMT_fmri,2021.2.3,59.917948361028124,
TMTstop-Control_1_4.xlsx,78:104,8,['1'],1,TMTstop-control_1_4linestimulus4.png,TMTstop-control_1_4greenlinestimulus5.png,TMTstop-control_1_4redlinestimulus5.png,TMT_Control,4,83,0,3,3,3,0,7,7,7,,,,,,,,,,,,,,,,,,,,,,,,,,,,,,,,,,,,,,,,,,,,,,,1,1,27.768033700005617,57.707009400008246,None,['1'],1,[0.02772380001260899],57.707009400008246,None,,001,2022_May_11_1050,TMT_fmri,2021.2.3,59.917948361028124,
TMTstop-Control_1_4.xlsx,78:104,9,['3'],3,TMTstop-control_1_4linestimulus6.png,TMTstop-control_1_4greenlinestimulus6.png,TMTstop-control_1_4redlinestimulus6.png,TMT_Control,4,84,0,3,3,3,0,8,8,8,,,,,,,,,,,,,,,,,,,,,,,,,,,,,,,,,,,,,,,,,,,,,,,2,0,27.917880399996648,57.807109200017294,None,"['2', '3']",1,"[-0.025838600005954504, 0.07851130000199191]",57.807109200017294,None,,001,2022_May_11_1050,TMT_fmri,2021.2.3,59.917948361028124,
TMTstop-Control_1_4.xlsx,78:104,10,['2'],2,TMTstop-control_1_4linestimulus7.png,TMTstop-control_1_4greenlinestimulus7.png,TMTstop-control_1_4redlinestimulus7.png,TMT_Control,4,85,0,3,3,3,0,9,9,9,,,,,,,,,,,,,,,,,,,,,,,,,,,,,,,,,,,,,,,,,,,,,,,2,0,28.084902200003853,57.956916800001636,None,"['1', '2']",1,"[0.054520800011232495, 0.08228269999381155]",57.956916800001636,None,,001,2022_May_11_1050,TMT_fmri,2021.2.3,59.917948361028124,
TMTstop-Control_1_4.xlsx,78:104,11,['1'],1,TMTstop-control_1_4linestimulus8.png,TMTstop-control_1_4greenlinestimulus8.png,TMTstop-control_1_4redlinestimulus8.png,TMT_Control,4,86,0,3,3,3,0,10,10,10,,,,,,,,,,,,,,,,,,,,,,,,,,,,,,,,,,,,,,,,,,,,,,,2,0,28.34166279999772,58.13108230000944,None,"['3', '1']",1,"[0.03140149998944253, 0.16265360001125373]",58.13108230000944,None,,001,2022_May_11_1050,TMT_fmri,2021.2.3,59.917948361028124,
TMTstop-Control_1_4.xlsx,78:104,12,['3'],3,TMTstop-control_1_4linestimulus9.png,TMTstop-control_1_4greenlinestimulus9.png,TMTstop-control_1_4redlinestimulus9.png,TMT_Control,4,87,0,3,3,3,0,11,11,11,,,,,,,,,,,,,,,,,,,,,,,,,,,,,,,,,,,,,,,,,,,,,,,2,0,28.49234769999748,58.38133150001522,None,"['2', '3']",1,"[-0.04068649999680929, 0.06439030001638457]",58.38133150001522,None,,001,2022_May_11_1050,TMT_fmri,2021.2.3,59.917948361028124,
TMTstop-Control_1_4.xlsx,78:104,13,['2'],2,TMTstop-control_1_4linestimulus10.png,TMTstop-control_1_4greenlinestimulus10.png,TMTstop-control_1_4redlinestimulus10.png,TMT_Control,4,88,0,3,3,3,0,12,12,12,,,,,,,,,,,,,,,,,,,,,,,,,,,,,,,,,,,,,,,,,,,,,,,2,0,28.70832820000942,58.531428000016604,None,"['1', '2']",1,"[0.058627599995816126, 0.12468739997711964]",58.531428000016604,None,,001,2022_May_11_1050,TMT_fmri,2021.2.3,59.917948361028124,
TMTstop-Control_1_4.xlsx,78:104,14,['3'],3,TMTstop-control_1_4linestimulus11.png,TMTstop-control_1_4greenlinestimulus11.png,TMTstop-control_1_4redlinestimulus11.png,TMT_Control,4,89,0,3,3,3,0,13,13,13,,,,,,,,,,,,,,,,,,,,,,,,,,,,,,,,,,,,,,,,,,,,,,,1,1,28.80858100001933,58.74838460001047,None,['3'],1,[0.022914000001037493],58.74838460001047,None,,001,2022_May_11_1050,TMT_fmri,2021.2.3,59.917948361028124,
TMTstop-Control_1_4.xlsx,78:104,15,['2'],2,TMTstop-control_1_4linestimulus12.png,TMTstop-control_1_4greenlinestimulus12.png,TMTstop-control_1_4redlinestimulus12.png,TMT_Control,4,90,0,3,3,3,0,14,14,14,,,,,,,,,,,,,,,,,,,,,,,,,,,,,,,,,,,,,,,,,,,,,,,2,0,29.01631500001531,58.848469500022475,None,"['1', '2']",1,"[0.037937299988698214, 0.10751880001043901]",58.848469500022475,None,,001,2022_May_11_1050,TMT_fmri,2021.2.3,59.917948361028124,
TMTstop-Control_1_4.xlsx,78:104,16,['1'],1,TMTstop-control_1_4linestimulus13.png,TMTstop-control_1_4greenlinestimulus13.png,TMTstop-control_1_4redlinestimulus13.png,TMT_Control,4,91,0,3,3,3,0,15,15,15,,,,,,,,,,,,,,,,,,,,,,,,,,,,,,,,,,,,,,,,,,,,,,,2,0,29.216318399994634,59.05536500000744,None,"['3', '1']",1,"[-0.014485000021522865, 0.1136594999989029]",59.05536500000744,None,,001,2022_May_11_1050,TMT_fmri,2021.2.3,59.917948361028124,
TMTstop-Control_1_4.xlsx,78:104,17,['3'],3,TMTstop-control_1_4linestimulus14.png,TMTstop-control_1_4greenlinestimulus14.png,TMTstop-control_1_4redlinestimulus14.png,TMT_Control,4,92,0,3,3,3,0,16,16,16,,,,,,,,,,,,,,,,,,,,,,,,,,,,,,,,,,,,,,,,,,,,,,,2,0,29.37133660001564,59.25553660001606,None,"['2', '3']",1,"[-0.029065699985949323, 0.056205300003057346]",59.25553660001606,None,,001,2022_May_11_1050,TMT_fmri,2021.2.3,59.917948361028124,
TMTstop-Control_1_4.xlsx,78:104,18,['1'],1,TMTstop-control_1_4linestimulus15.png,TMTstop-control_1_4greenlinestimulus15.png,TMTstop-control_1_4redlinestimulus15.png,TMT_Control,4,93,0,3,3,3,0,17,17,17,,,,,,,,,,,,,,,,,,,,,,,,,,,,,,,,,,,,,,,,,,,,,,,1,1,29.4563433000003,59.412027400016086,None,['1'],1,[0.023160999990068376],59.412027400016086,None,,001,2022_May_11_1050,TMT_fmri,2021.2.3,59.917948361028124,
TMTstop-Control_1_4.xlsx,78:104,19,['2'],2,TMTstop-control_1_4linestimulus16.png,TMTstop-control_1_4greenlinestimulus16.png,TMTstop-control_1_4redlinestimulus16.png,TMT_Control,4,94,0,3,3,3,0,18,18,18,,,,,,,,,,,,,,,,,,,,,,,,,,,,,,,,,,,,,,,,,,,,,,,1,1,29.522430600016378,59.494917700008955,None,['2'],1,[0.004631900024833158],59.494917700008955,None,,001,2022_May_11_1050,TMT_fmri,2021.2.3,59.917948361028124,
TMTstop-Control_1_4.xlsx,78:104,20,['1'],1,TMTstop-control_1_4linestimulus17.png,TMTstop-control_1_4greenlinestimulus17.png,TMTstop-control_1_4redlinestimulus17.png,TMT_Control,4,95,0,3,3,3,0,19,19,19,,,,,,,,,,,,,,,,,,,,,,,,,,,,,,,,,,,,,,,,,,,,,,,2,0,29.73034850001568,59.56917970001814,None,"['3', '1']",1,"[-0.00018200001795776188, 0.14136969999526627]",59.56917970001814,None,,001,2022_May_11_1050,TMT_fmri,2021.2.3,59.917948361028124,
TMTstop-Control_1_4.xlsx,78:104,21,['2'],2,TMTstop-control_1_4linestimulus18.png,TMTstop-control_1_4greenlinestimulus18.png,TMTstop-control_1_4redlinestimulus18.png,TMT_Control,4,96,0,3,3,3,0,20,20,20,,,,,,,,,,,,,,,,,,,,,,,,,,,,,,,,,,,,,,,,,,,,,,,1,1,29.796465399995213,59.76946420001332,None,['2'],1,[0.006908199982717633],59.76946420001332,None,,001,2022_May_11_1050,TMT_fmri,2021.2.3,59.917948361028124,
TMTstop-Control_1_4.xlsx,78:104,22,['1'],1,TMTstop-control_1_4linestimulus19.png,TMTstop-control_1_4greenlinestimulus19.png,TMTstop-control_1_4redlinestimulus19.png,TMT_Control,4,97,0,3,3,3,0,21,21,21,,,,,,,,,,,,,,,,,,,,,,,,,,,,,,,,,,,,,,,,,,,,,,,2,0,30.00897170000826,59.8433671000239,None,"['3', '1']",1,"[0.022952300001634285, 0.14692790000117384]",59.8433671000239,None,,001,2022_May_11_1050,TMT_fmri,2021.2.3,59.917948361028124,
TMTstop-Control_1_4.xlsx,78:104,23,['2'],2,TMTstop-control_1_4linestimulus20.png,TMTstop-control_1_4greenlinestimulus20.png,TMTstop-control_1_4redlinestimulus20.png,TMT_Control,4,98,0,3,3,3,0,22,22,22,,,,,,,,,,,,,,,,,,,,,,,,,,,,,,,,,,,,,,,,,,,,,,,1,1,30.058963700023014,60.048694100027205,None,['2'],1,[-0.008689399983268231],60.048694100027205,None,,001,2022_May_11_1050,TMT_fmri,2021.2.3,59.917948361028124,
TMTstop-Control_1_4.xlsx,78:104,24,['1'],1,TMTstop-control_1_4linestimulus21.png,TMTstop-control_1_4greenlinestimulus21.png,TMTstop-control_1_4redlinestimulus21.png,TMT_Control,4,99,0,3,3,3,0,23,23,23,,,,,,,,,,,,,,,,,,,,,,,,,,,,,,,,,,,,,,,,,,,,,,,2,0,30.30991070001619,60.098375500005204,None,"['3', '1']",1,"[0.04312180000124499, 0.17957900001783855]",60.098375500005204,None,,001,2022_May_11_1050,TMT_fmri,2021.2.3,59.917948361028124,
TMTstop-Control_1_4.xlsx,78:104,25,['2'],2,TMTstop-control_1_4linestimulus22.png,TMTstop-control_1_4greenlinestimulus22.png,TMTstop-control_1_4redlinestimulus22.png,TMT_Control,4,100,0,3,3,3,0,24,24,24,,,,,,,,,,,,,,,,,,,,,,,,,,,,,,,,,,,,,,,,,,,,,,,1,1,30.359904600016307,60.349010000005364,None,['2'],1,[-0.025232099986169487],60.349010000005364,None,,001,2022_May_11_1050,TMT_fmri,2021.2.3,59.917948361028124,
TMTstop-Control_1_4.xlsx,78:104,None,None,None,TMTstop-control_1_4linestimulus23.png,TMTstop-control_1_4greenlinestimulus23.png,TMTstop-control_1_4redlinestimulus23.png,TMT_Control,4,Feedback_last,0,3,3,3,0,25,25,25,,,,,,,,,,,,,,,,,,,,,,,,,,,,,,,,,,,,,,,,,,,,,,,1,1,,60.399135200015735,None,['3'],0,[0.09620420000283048],60.399135200015735,None,,001,2022_May_11_1050,TMT_fmri,2021.2.3,59.917948361028124,
TMTstop-A_1_1.xlsx,0:26,1,['1'],1,TMTstop-A_1_1.png,TMTstop-A_1_1.png,TMTstop-A_1_1.png,TMT_A,1,1,,,,,,,,,0,0,0,0,0,0,0,0,,,,,,,,,,,,,,,,,,,,,,,,,,,,,,,,,,,,,,,1,1,45.11438210000051,74.55272690000129,None,['1'],1,[0.5487021000008099],74.55272690000129,None,,001,2022_May_11_1050,TMT_fmri,2021.2.3,59.917948361028124,
TMTstop-A_1_1.xlsx,0:26,2,['3'],3,TMTstop-A_1_1.png,TMTstop-A_1_1firstgreen.png,TMTstop-A_1_1firstred.png,TMT_A,1,2,,,,,,,,,0,0,0,0,0,1,1,1,,,,,,,,,,,,,,,,,,,,,,,,,,,,,,,,,,,,,,,2,0,45.39735420001671,75.16177800000878,None,"['2', '3']",1,"[0.10483759999624453, 0.19057469998369925]",75.16177800000878,None,,001,2022_May_11_1050,TMT_fmri,2021.2.3,59.917948361028124,
TMTstop-A_1_1.xlsx,0:26,3,['1'],1,TMTstop-A_1_1linestimulus0.png,TMTstop-A_1_1greenlinestimulus0.png,TMTstop-A_1_1redlinestimulus0.png,TMT_A,1,3,,,,,,,,,0,0,0,0,0,2,2,2,,,,,,,,,,,,,,,,,,,,,,,,,,,,,,,,,,,,,,,1,1,45.50237260002177,75.44204280001577,None,['1'],1,[0.04512830000021495],75.44204280001577,None,,001,2022_May_11_1050,TMT_fmri,2021.2.3,59.917948361028124,
TMTstop-A_1_1.xlsx,0:26,4,['3'],3,TMTstop-A_1_1linestimulus1.png,TMTstop-A_1_1greenlinestimulus1.png,TMTstop-A_1_1redlinestimulus1.png,TMT_A,1,4,,,,,,,,,0,0,0,0,0,3,3,3,,,,,,,,,,,,,,,,,,,,,,,,,,,,,,,,,,,,,,,2,0,45.68615220001084,75.54214660002617,None,"['2', '3']",1,"[0.018590599996969104, 0.10544119999394752]",75.54214660002617,None,,001,2022_May_11_1050,TMT_fmri,2021.2.3,59.917948361028124,
TMTstop-A_1_1.xlsx,0:26,5,['1'],1,TMTstop-A_1_1linestimulus2.png,TMTstop-A_1_1greenlinestimulus2.png,TMTstop-A_1_1redlinestimulus2.png,TMT_A,1,5,,,,,,,,,0,0,0,0,0,4,4,4,,,,,,,,,,,,,,,,,,,,,,,,,,,,,,,,,,,,,,,1,1,45.8189440999995,75.72565870001563,None,['1'],1,[0.07070509999175556],75.72565870001563,None,,001,2022_May_11_1050,TMT_fmri,2021.2.3,59.917948361028124,
TMTstop-A_1_1.xlsx,0:26,6,['3'],3,TMTstop-A_1_1linestimulus3.png,TMTstop-A_1_1greenlinestimulus3.png,TMTstop-A_1_1redlinestimulus3.png,TMT_A,1,6,,,,,,,,,0,0,0,0,0,5,5,5,,,,,,,,,,,,,,,,,,,,,,,,,,,,,,,,,,,,,,,2,0,45.98120569999446,75.85921890000463,None,"['2', '3']",1,"[-0.006981099984841421, 0.10346519999438897]",75.85921890000463,None,,001,2022_May_11_1050,TMT_fmri,2021.2.3,59.917948361028124,
TMTstop-A_1_1.xlsx,0:26,7,['1'],1,TMTstop-A_1_1linestimulus4.png,TMTstop-A_1_1greenlinestimulus4.png,TMTstop-A_1_1redlinestimulus4.png,TMT_A,1,7,,,,,,,,,0,0,0,0,0,6,6,6,,,,,,,,,,,,,,,,,,,,,,,,,,,,,,,,,,,,,,,1,1,46.1320728000137,76.02087490001577,None,['1'],1,[0.08753980000619777],76.02087490001577,None,,001,2022_May_11_1050,TMT_fmri,2021.2.3,59.917948361028124,
TMTstop-A_1_1.xlsx,0:26,8,['2'],2,TMTstop-A_1_1linestimulus5.png,TMTstop-A_1_1greenlinestimulus5.png,TMTstop-A_1_1redlinestimulus5.png,TMT_A,1,8,,,,,,,,,0,0,0,0,0,7,7,7,,,,,,,,,,,,,,,,,,,,,,,,,,,,,,,,,,,,,,,1,1,46.181163600005675,76.17051890000585,None,['2'],1,[-0.017089999979361892],76.17051890000585,None,,001,2022_May_11_1050,TMT_fmri,2021.2.3,59.917948361028124,
TMTstop-A_1_1.xlsx,0:26,9,['3'],3,TMTstop-A_1_1linestimulus6.png,TMTstop-A_1_1greenlinestimulus6.png,TMTstop-A_1_1redlinestimulus6.png,TMT_A,1,9,,,,,,,,,0,0,0,0,0,8,8,8,,,,,,,,,,,,,,,,,,,,,,,,,,,,,,,,,,,,,,,1,1,46.29801620001672,76.22118120000232,None,['3'],1,[0.05626579999807291],76.22118120000232,None,,001,2022_May_11_1050,TMT_fmri,2021.2.3,59.917948361028124,
TMTstop-A_1_1.xlsx,0:26,10,['1'],1,TMTstop-A_1_1linestimulus7.png,TMTstop-A_1_1greenlinestimulus7.png,TMTstop-A_1_1redlinestimulus7.png,TMT_A,1,10,,,,,,,,,0,0,0,0,0,9,9,9,,,,,,,,,,,,,,,,,,,,,,,,,,,,,,,,,,,,,,,1,1,46.514888600009726,76.33794810000109,None,['1'],1,[0.1639191000140272],76.33794810000109,None,,001,2022_May_11_1050,TMT_fmri,2021.2.3,59.917948361028124,
TMTstop-A_1_1.xlsx,0:26,11,['3'],3,TMTstop-A_1_1linestimulus8.png,TMTstop-A_1_1greenlinestimulus8.png,TMTstop-A_1_1redlinestimulus8.png,TMT_A,1,11,,,,,,,,,0,0,0,0,0,10,10,10,,,,,,,,,,,,,,,,,,,,,,,,,,,,,,,,,,,,,,,3,0,46.99293900001794,76.56262060001609,None,"['1', '2', '3']",1,"[0.20055449998471886, 0.26731959998141974, 0.3756369999900926]",76.56262060001609,None,,001,2022_May_11_1050,TMT_fmri,2021.2.3,59.917948361028124,
TMTstop-A_1_1.xlsx,0:26,12,['2'],2,TMTstop-A_1_1linestimulus9.png,TMTstop-A_1_1greenlinestimulus9.png,TMTstop-A_1_1redlinestimulus9.png,TMT_A,1,12,,,,,,,,,0,0,0,0,0,11,11,11,,,,,,,,,,,,,,,,,,,,,,,,,,,,,,,,,,,,,,,2,0,47.23017220001202,77.03172880000784,None,"['1', '2']",1,"[0.08035609999205917, 0.1676564999797847]",77.03172880000784,None,,001,2022_May_11_1050,TMT_fmri,2021.2.3,59.917948361028124,
TMTstop-A_1_1.xlsx,0:26,13,['1'],1,TMTstop-A_1_1linestimulus10.png,TMTstop-A_1_1greenlinestimulus10.png,TMTstop-A_1_1redlinestimulus10.png,TMT_A,1,13,,,,,,,,,0,0,0,0,0,12,12,12,,,,,,,,,,,,,,,,,,,,,,,,,,,,,,,,,,,,,,,2,0,48.09195150001324,77.27648510001018,None,"['3', '1']",1,"[0.031919100001687184, 0.7998649000073783]",77.27648510001018,None,,001,2022_May_11_1050,TMT_fmri,2021.2.3,59.917948361028124,
TMTstop-A_1_1.xlsx,0:26,14,['2'],2,TMTstop-A_1_1linestimulus11.png,TMTstop-A_1_1greenlinestimulus11.png,TMTstop-A_1_1redlinestimulus11.png,TMT_A,1,14,,,,,,,,,0,0,0,0,0,13,13,13,,,,,,,,,,,,,,,,,,,,,,,,,,,,,,,,,,,,,,,1,1,48.142080200021155,78.13145830002031,None,['2'],1,[-0.012465999985579401],78.13145830002031,None,,001,2022_May_11_1050,TMT_fmri,2021.2.3,59.917948361028124,
TMTstop-A_1_1.xlsx,0:26,15,['1'],1,TMTstop-A_1_1linestimulus12.png,TMTstop-A_1_1greenlinestimulus12.png,TMTstop-A_1_1redlinestimulus12.png,TMT_A,1,15,,,,,,,,,0,0,0,0,0,14,14,14,,,,,,,,,,,,,,,,,,,,,,,,,,,,,,,,,,,,,,,2,0,48.40141059999587,78.18348360000527,None,"['3', '1']",1,"[0.03630919998977333, 0.18588100001215935]",78.18348360000527,None,,001,2022_May_11_1050,TMT_fmri,2021.2.3,59.917948361028124,
TMTstop-A_1_1.xlsx,0:26,16,['2'],2,TMTstop-A_1_1linestimulus13.png,TMTstop-A_1_1greenlinestimulus13.png,TMTstop-A_1_1redlinestimulus13.png,TMT_A,1,16,,,,,,,,,0,0,0,0,0,15,15,15,,,,,,,,,,,,,,,,,,,,,,,,,,,,,,,,,,,,,,,1,1,48.451367900008336,78.44039280002471,None,['2'],1,[-0.01964319997932762],78.44039280002471,None,,001,2022_May_11_1050,TMT_fmri,2021.2.3,59.917948361028124,
TMTstop-A_1_1.xlsx,0:26,17,['1'],1,TMTstop-A_1_1linestimulus14.png,TMTstop-A_1_1greenlinestimulus14.png,TMTstop-A_1_1redlinestimulus14.png,TMT_A,1,17,,,,,,,,,0,0,0,0,0,16,16,16,,,,,,,,,,,,,,,,,,,,,,,,,,,,,,,,,,,,,,,2,0,48.718446300015785,78.48997640001471,None,"['3', '1']",1,"[0.03546029998688027, 0.174508700001752]",78.48997640001471,None,,001,2022_May_11_1050,TMT_fmri,2021.2.3,59.917948361028124,
TMTstop-A_1_1.xlsx,0:26,18,['3'],3,TMTstop-A_1_1linestimulus15.png,TMTstop-A_1_1greenlinestimulus15.png,TMTstop-A_1_1redlinestimulus15.png,TMT_A,1,18,,,,,,,,,0,0,0,0,0,17,17,17,,,,,,,,,,,,,,,,,,,,,,,,,,,,,,,,,,,,,,,2,0,48.869244800007436,78.75751220001257,None,"['2', '3']",1,"[-0.01553319999948144, 0.07136010000249371]",78.75751220001257,None,,001,2022_May_11_1050,TMT_fmri,2021.2.3,59.917948361028124,
TMTstop-A_1_1.xlsx,0:26,19,['2'],2,TMTstop-A_1_1linestimulus16.png,TMTstop-A_1_1greenlinestimulus16.png,TMTstop-A_1_1redlinestimulus16.png,TMT_A,1,19,,,,,,,,,0,0,0,0,0,18,18,18,,,,,,,,,,,,,,,,,,,,,,,,,,,,,,,,,,,,,,,3,0,49.40492689999519,78.90921440001694,None,"['1', '1', '2']",1,"[0.07142200000816956, 0.4485090000089258, 0.4702271000132896]",78.90921440001694,None,,001,2022_May_11_1050,TMT_fmri,2021.2.3,59.917948361028124,
TMTstop-A_1_1.xlsx,0:26,20,['3'],3,TMTstop-A_1_1linestimulus17.png,TMTstop-A_1_1greenlinestimulus17.png,TMTstop-A_1_1redlinestimulus17.png,TMT_A,1,20,,,,,,,,,0,0,0,0,0,19,19,19,,,,,,,,,,,,,,,,,,,,,,,,,,,,,,,,,,,,,,,1,1,49.555925699998625,79.44459750002716,None,['3'],1,[0.09065100000589155],79.44459750002716,None,,001,2022_May_11_1050,TMT_fmri,2021.2.3,59.917948361028124,
TMTstop-A_1_1.xlsx,0:26,21,['1'],1,TMTstop-A_1_1linestimulus18.png,TMTstop-A_1_1greenlinestimulus18.png,TMTstop-A_1_1redlinestimulus18.png,TMT_A,1,21,,,,,,,,,0,0,0,0,0,20,20,20,,,,,,,,,,,,,,,,,,,,,,,,,,,,,,,,,,,,,,,1,1,49.72179270000197,79.59451680001803,None,['1'],1,[0.11078409999026917],79.59451680001803,None,,001,2022_May_11_1050,TMT_fmri,2021.2.3,59.917948361028124,
TMTstop-A_1_1.xlsx,0:26,22,['3'],3,TMTstop-A_1_1linestimulus19.png,TMTstop-A_1_1greenlinestimulus19.png,TMTstop-A_1_1redlinestimulus19.png,TMT_A,1,22,,,,,,,,,0,0,0,0,0,21,21,21,,,,,,,,,,,,,,,,,,,,,,,,,,,,,,,,,,,,,,,2,0,49.87667359999614,79.7614828000078,None,"['2', '3']",1,"[-0.01576399998157285, 0.10384950001025572]",79.7614828000078,None,,001,2022_May_11_1050,TMT_fmri,2021.2.3,59.917948361028124,
TMTstop-A_1_1.xlsx,0:26,23,['1'],1,TMTstop-A_1_1linestimulus20.png,TMTstop-A_1_1greenlinestimulus20.png,TMTstop-A_1_1redlinestimulus20.png,TMT_A,1,23,,,,,,,,,0,0,0,0,0,22,22,22,,,,,,,,,,,,,,,,,,,,,,,,,,,,,,,,,,,,,,,1,1,50.033476200012956,79.92276810001931,None,['1'],1,[0.08995810002670623],79.92276810001931,None,,001,2022_May_11_1050,TMT_fmri,2021.2.3,59.917948361028124,
TMTstop-A_1_1.xlsx,0:26,24,['3'],3,TMTstop-A_1_1linestimulus21.png,TMTstop-A_1_1greenlinestimulus21.png,TMTstop-A_1_1redlinestimulus21.png,TMT_A,1,24,,,,,,,,,0,0,0,0,0,23,23,23,,,,,,,,,,,,,,,,,,,,,,,,,,,,,,,,,,,,,,,2,0,50.19035509999958,80.07255590002751,None,"['2', '3']",1,"[-0.031686300004366785, 0.0905800000182353]",80.07255590002751,None,,001,2022_May_11_1050,TMT_fmri,2021.2.3,59.917948361028124,
TMTstop-A_1_1.xlsx,0:26,25,['1'],1,TMTstop-A_1_1linestimulus22.png,TMTstop-A_1_1greenlinestimulus22.png,TMTstop-A_1_1redlinestimulus22.png,TMT_A,1,25,,,,,,,,,0,0,0,0,0,24,24,24,,,,,,,,,,,,,,,,,,,,,,,,,,,,,,,,,,,,,,,1,1,50.30734820000362,80.22917679999955,None,['1'],1,[0.06644569998024963],80.22917679999955,None,,001,2022_May_11_1050,TMT_fmri,2021.2.3,59.917948361028124,
TMTstop-A_1_1.xlsx,0:26,None,None,None,TMTstop-A_1_1linestimulus23.png,TMTstop-A_1_1greenlinestimulus23.png,TMTstop-A_1_1redlinestimulus23.png,TMT_A,1,Feedback_last,,,,,,,,,0,0,0,0,0,25,25,25,,,,,,,,,,,,,,,,,,,,,,,,,,,,,,,,,,,,,,,2,0,,80.34648210002342,None,"['2', '3']",0,"[0.015549699979601428, 0.12019049999071285]",80.34648210002342,None,,001,2022_May_11_1050,TMT_fmri,2021.2.3,59.917948361028124,
TMTstop-A_1_2.xlsx,26:52,1,['1'],1,TMTstop-A_1_2.png,TMTstop-A_1_2.png,TMTstop-A_1_2.png,TMT_A,2,26,,,,,,,,,0,1,1,1,0,0,0,0,,,,,,,,,,,,,,,,,,,,,,,,,,,,,,,,,,,,,,,1,1,55.89343050000025,84.48117010001442,None,['1'],1,[1.3927164000051562],84.48117010001442,None,,001,2022_May_11_1050,TMT_fmri,2021.2.3,59.917948361028124,
TMTstop-A_1_2.xlsx,26:52,2,['3'],3,TMTstop-A_1_2.png,TMTstop-A_1_2firstgreen.png,TMTstop-A_1_2firstred.png,TMT_A,2,27,,,,,,,,,0,1,1,1,0,1,1,1,,,,,,,,,,,,,,,,,,,,,,,,,,,,,,,,,,,,,,,2,0,56.058428799995454,85.94056430002092,None,"['2', '3']",1,"[-0.008705600019311532, 0.1009734999970533]",85.94056430002092,None,,001,2022_May_11_1050,TMT_fmri,2021.2.3,59.917948361028124,
TMTstop-A_1_2.xlsx,26:52,3,['1'],1,TMTstop-A_1_2linestimulus0.png,TMTstop-A_1_2greenlinestimulus0.png,TMTstop-A_1_2redlinestimulus0.png,TMT_A,2,28,,,,,,,,,0,1,1,1,0,2,2,2,,,,,,,,,,,,,,,,,,,,,,,,,,,,,,,,,,,,,,,1,1,56.197423100005835,86.10313060000772,None,['1'],1,[0.08096740001928993],86.10313060000772,None,,001,2022_May_11_1050,TMT_fmri,2021.2.3,59.917948361028124,
TMTstop-A_1_2.xlsx,26:52,4,['2'],2,TMTstop-A_1_2linestimulus1.png,TMTstop-A_1_2greenlinestimulus1.png,TMTstop-A_1_2redlinestimulus1.png,TMT_A,2,29,,,,,,,,,0,1,1,1,0,3,3,3,,,,,,,,,,,,,,,,,,,,,,,,,,,,,,,,,,,,,,,1,1,56.28042990001268,86.23653920000652,None,['2'],1,[0.015575700002955273],86.23653920000652,None,,001,2022_May_11_1050,TMT_fmri,2021.2.3,59.917948361028124,
TMTstop-A_1_2.xlsx,26:52,5,['1'],1,TMTstop-A_1_2linestimulus2.png,TMTstop-A_1_2greenlinestimulus2.png,TMTstop-A_1_2redlinestimulus2.png,TMT_A,2,30,,,,,,,,,0,1,1,1,0,4,4,4,,,,,,,,,,,,,,,,,,,,,,,,,,,,,,,,,,,,,,,2,0,56.51387340002111,86.31994600000326,None,"['3', '1']",1,"[0.030668100022012368, 0.172443999996176]",86.31994600000326,None,,001,2022_May_11_1050,TMT_fmri,2021.2.3,59.917948361028124,
TMTstop-A_1_2.xlsx,26:52,6,['3'],3,TMTstop-A_1_2linestimulus3.png,TMTstop-A_1_2greenlinestimulus3.png,TMTstop-A_1_2redlinestimulus3.png,TMT_A,2,31,,,,,,,,,0,1,1,1,0,5,5,5,,,,,,,,,,,,,,,,,,,,,,,,,,,,,,,,,,,,,,,2,0,56.71386750001693,86.55300120002357,None,"['2', '3']",1,"[-0.00048340001376345754, 0.11771989997942]",86.55300120002357,None,,001,2022_May_11_1050,TMT_fmri,2021.2.3,59.917948361028124,
TMTstop-A_1_2.xlsx,26:52,7,['2'],2,TMTstop-A_1_2linestimulus4.png,TMTstop-A_1_2greenlinestimulus4.png,TMTstop-A_1_2redlinestimulus4.png,TMT_A,2,32,,,,,,,,,0,1,1,1,0,6,6,6,,,,,,,,,,,,,,,,,,,,,,,,,,,,,,,,,,,,,,,2,0,56.88072909999755,86.75327050001943,None,"['1', '2']",1,"[0.05877479998162016, 0.08959829999366775]",86.75327050001943,None,,001,2022_May_11_1050,TMT_fmri,2021.2.3,59.917948361028124,
TMTstop-A_1_2.xlsx,26:52,8,['1'],1,TMTstop-A_1_2linestimulus5.png,TMTstop-A_1_2greenlinestimulus5.png,TMTstop-A_1_2redlinestimulus5.png,TMT_A,2,33,,,,,,,,,0,1,1,1,0,7,7,7,,,,,,,,,,,,,,,,,,,,,,,,,,,,,,,,,,,,,,,2,0,57.16886269999668,86.92746960002114,None,"['3', '1']",1,"[0.05993499999749474, 0.2184836000087671]",86.92746960002114,None,,001,2022_May_11_1050,TMT_fmri,2021.2.3,59.917948361028124,
TMTstop-A_1_2.xlsx,26:52,9,['3'],3,TMTstop-A_1_2linestimulus6.png,TMTstop-A_1_2greenlinestimulus6.png,TMTstop-A_1_2redlinestimulus6.png,TMT_A,2,34,,,,,,,,,0,1,1,1,0,8,8,8,,,,,,,,,,,,,,,,,,,,,,,,,,,,,,,,,,,,,,,2,0,57.39186200001859,87.20750310001313,None,"['2', '3']",1,"[0.0034309000184293836, 0.14939410000806674]",87.20750310001313,None,,001,2022_May_11_1050,TMT_fmri,2021.2.3,59.917948361028124,
TMTstop-A_1_2.xlsx,26:52,10,['2'],2,TMTstop-A_1_2linestimulus7.png,TMTstop-A_1_2greenlinestimulus7.png,TMTstop-A_1_2redlinestimulus7.png,TMT_A,2,35,,,,,,,,,0,1,1,1,0,9,9,9,,,,,,,,,,,,,,,,,,,,,,,,,,,,,,,,,,,,,,,2,0,57.54273690000991,87.43172830002732,None,"['1', '2']",1,"[0.021279099979437888, 0.08649919999879785]",87.43172830002732,None,,001,2022_May_11_1050,TMT_fmri,2021.2.3,59.917948361028124,
TMTstop-A_1_2.xlsx,26:52,11,['1'],1,TMTstop-A_1_2linestimulus8.png,TMTstop-A_1_2greenlinestimulus8.png,TMTstop-A_1_2redlinestimulus8.png,TMT_A,2,36,,,,,,,,,0,1,1,1,0,10,10,10,,,,,,,,,,,,,,,,,,,,,,,,,,,,,,,,,,,,,,,2,0,57.79288170000655,87.58178170002066,None,"['3', '1']",1,"[0.04591939999954775, 0.18894599998020567]",87.58178170002066,None,,001,2022_May_11_1050,TMT_fmri,2021.2.3,59.917948361028124,
TMTstop-A_1_2.xlsx,26:52,12,['2'],2,TMTstop-A_1_2linestimulus9.png,TMTstop-A_1_2greenlinestimulus9.png,TMTstop-A_1_2redlinestimulus9.png,TMT_A,2,37,,,,,,,,,0,1,1,1,0,11,11,11,,,,,,,,,,,,,,,,,,,,,,,,,,,,,,,,,,,,,,,1,1,57.842868300009286,87.83210379999946,None,['2'],1,[-0.0010918000189121813],87.83210379999946,None,,001,2022_May_11_1050,TMT_fmri,2021.2.3,59.917948361028124,
TMTstop-A_1_2.xlsx,26:52,13,['1'],1,TMTstop-A_1_2linestimulus10.png,TMTstop-A_1_2greenlinestimulus10.png,TMTstop-A_1_2redlinestimulus10.png,TMT_A,2,38,,,,,,,,,0,1,1,1,0,12,12,12,,,,,,,,,,,,,,,,,,,,,,,,,,,,,,,,,,,,,,,2,0,58.422878900018986,87.88215290001244,None,"['3', '1']",1,"[0.0676065000006929, 0.5201227999932598]",87.88215290001244,None,,001,2022_May_11_1050,TMT_fmri,2021.2.3,59.917948361028124,
TMTstop-A_1_2.xlsx,26:52,14,['3'],3,TMTstop-A_1_2linestimulus11.png,TMTstop-A_1_2greenlinestimulus11.png,TMTstop-A_1_2redlinestimulus11.png,TMT_A,2,39,,,,,,,,,0,1,1,1,0,13,13,13,,,,,,,,,,,,,,,,,,,,,,,,,,,,,,,,,,,,,,,2,0,58.624597600020934,88.46259060001466,None,"['2', '3']",1,"[-0.0015048999921418726, 0.1368603000009898]",88.46259060001466,None,,001,2022_May_11_1050,TMT_fmri,2021.2.3,59.917948361028124,
TMTstop-A_1_2.xlsx,26:52,15,['1'],1,TMTstop-A_1_2linestimulus12.png,TMTstop-A_1_2greenlinestimulus12.png,TMTstop-A_1_2redlinestimulus12.png,TMT_A,2,40,,,,,,,,,0,1,1,1,0,14,14,14,,,,,,,,,,,,,,,,,,,,,,,,,,,,,,,,,,,,,,,1,1,58.7609347999969,88.66622560002725,None,['1'],1,[0.05574529999285005],88.66622560002725,None,,001,2022_May_11_1050,TMT_fmri,2021.2.3,59.917948361028124,
TMTstop-A_1_2.xlsx,26:52,16,['3'],3,TMTstop-A_1_2linestimulus13.png,TMTstop-A_1_2greenlinestimulus13.png,TMTstop-A_1_2redlinestimulus13.png,TMT_A,2,41,,,,,,,,,0,1,1,1,0,15,15,15,,,,,,,,,,,,,,,,,,,,,,,,,,,,,,,,,,,,,,,2,0,58.91061690001516,88.79951160002383,None,"['2', '3']",1,"[-0.003924399992683902, 0.10205710001173429]",88.79951160002383,None,,001,2022_May_11_1050,TMT_fmri,2021.2.3,59.917948361028124,
TMTstop-A_1_2.xlsx,26:52,17,['1'],1,TMTstop-A_1_2linestimulus14.png,TMTstop-A_1_2greenlinestimulus14.png,TMTstop-A_1_2redlinestimulus14.png,TMT_A,2,42,,,,,,,,,0,1,1,1,0,16,16,16,,,,,,,,,,,,,,,,,,,,,,,,,,,,,,,,,,,,,,,1,1,59.044599600019865,88.9497706000111,None,['1'],1,[0.0801725999917835],88.9497706000111,None,,001,2022_May_11_1050,TMT_fmri,2021.2.3,59.917948361028124,
TMTstop-A_1_2.xlsx,26:52,18,['2'],2,TMTstop-A_1_2linestimulus15.png,TMTstop-A_1_2greenlinestimulus15.png,TMTstop-A_1_2redlinestimulus15.png,TMT_A,2,43,,,,,,,,,0,1,1,1,0,17,17,17,,,,,,,,,,,,,,,,,,,,,,,,,,,,,,,,,,,,,,,1,1,59.09412039999734,89.08315370001947,None,['2'],1,[0.0010553999745752662],89.08315370001947,None,,001,2022_May_11_1050,TMT_fmri,2021.2.3,59.917948361028124,
TMTstop-A_1_2.xlsx,26:52,19,['1'],1,TMTstop-A_1_2linestimulus16.png,TMTstop-A_1_2greenlinestimulus16.png,TMTstop-A_1_2redlinestimulus16.png,TMT_A,2,44,,,,,,,,,0,1,1,1,0,18,18,18,,,,,,,,,,,,,,,,,,,,,,,,,,,,,,,,,,,,,,,2,0,59.34192360000452,89.13888640000368,None,"['3', '1']",1,"[0.06189449998782948, 0.17627050000010058]",89.13888640000368,None,,001,2022_May_11_1050,TMT_fmri,2021.2.3,59.917948361028124,
TMTstop-A_1_2.xlsx,26:52,20,['2'],2,TMTstop-A_1_2linestimulus17.png,TMTstop-A_1_2greenlinestimulus17.png,TMTstop-A_1_2redlinestimulus17.png,TMT_A,2,45,,,,,,,,,0,1,1,1,0,19,19,19,,,,,,,,,,,,,,,,,,,,,,,,,,,,,,,,,,,,,,,1,1,59.39199990002089,89.38119280000683,None,['2'],1,[-0.024699500005226582],89.38119280000683,None,,001,2022_May_11_1050,TMT_fmri,2021.2.3,59.917948361028124,
TMTstop-A_1_2.xlsx,26:52,21,['3'],3,TMTstop-A_1_2linestimulus18.png,TMTstop-A_1_2greenlinestimulus18.png,TMTstop-A_1_2redlinestimulus18.png,TMT_A,2,46,,,,,,,,,0,1,1,1,0,20,20,20,,,,,,,,,,,,,,,,,,,,,,,,,,,,,,,,,,,,,,,1,1,59.49196100002155,89.43118970000069,None,['3'],1,[0.04648580000502989],89.43118970000069,None,,001,2022_May_11_1050,TMT_fmri,2021.2.3,59.917948361028124,
TMTstop-A_1_2.xlsx,26:52,22,['2'],2,TMTstop-A_1_2linestimulus19.png,TMTstop-A_1_2greenlinestimulus19.png,TMTstop-A_1_2redlinestimulus19.png,TMT_A,2,47,,,,,,,,,0,1,1,1,0,21,21,21,,,,,,,,,,,,,,,,,,,,,,,,,,,,,,,,,,,,,,,2,0,59.71417890000157,89.53137609999976,None,"['1', '2']",1,"[0.06156230001943186, 0.14384659999632277]",89.53137609999976,None,,001,2022_May_11_1050,TMT_fmri,2021.2.3,59.917948361028124,
TMTstop-A_1_2.xlsx,26:52,23,['3'],3,TMTstop-A_1_2linestimulus20.png,TMTstop-A_1_2greenlinestimulus20.png,TMTstop-A_1_2redlinestimulus20.png,TMT_A,2,48,,,,,,,,,0,1,1,1,0,22,22,22,,,,,,,,,,,,,,,,,,,,,,,,,,,,,,,,,,,,,,,1,1,59.8209337000153,89.7605162000109,None,['3'],1,[0.02003849999164231],89.7605162000109,None,,001,2022_May_11_1050,TMT_fmri,2021.2.3,59.917948361028124,
TMTstop-A_1_2.xlsx,26:52,24,['2'],2,TMTstop-A_1_2linestimulus21.png,TMTstop-A_1_2greenlinestimulus21.png,TMTstop-A_1_2redlinestimulus21.png,TMT_A,2,49,,,,,,,,,0,1,1,1,0,23,23,23,,,,,,,,,,,,,,,,,,,,,,,,,,,,,,,,,,,,,,,2,0,59.97128779999912,89.86009230001946,None,"['1', '2']",1,"[0.04580380002153106, 0.08634130001883022]",89.86009230001946,None,,001,2022_May_11_1050,TMT_fmri,2021.2.3,59.917948361028124,
TMTstop-A_1_2.xlsx,26:52,25,['3'],3,TMTstop-A_1_2linestimulus22.png,TMTstop-A_1_2greenlinestimulus22.png,TMTstop-A_1_2redlinestimulus22.png,TMT_A,2,50,,,,,,,,,0,1,1,1,0,24,24,24,,,,,,,,,,,,,,,,,,,,,,,,,,,,,,,,,,,,,,,1,1,60.11065280000912,90.01668930001324,None,['3'],1,[0.07806510000955313],90.01668930001324,None,,001,2022_May_11_1050,TMT_fmri,2021.2.3,59.917948361028124,
TMTstop-A_1_2.xlsx,26:52,None,None,None,TMTstop-A_1_2linestimulus23.png,TMTstop-A_1_2greenlinestimulus23.png,TMTstop-A_1_2redlinestimulus23.png,TMT_A,2,Feedback_last,,,,,,,,,0,1,1,1,0,25,25,25,,,,,,,,,,,,,,,,,,,,,,,,,,,,,,,,,,,,,,,3,0,,90.14973400000599,None,"['1', '2', '3']",0,"[0.05425009998725727, 0.16977770000812598, 0.35209120000945404]",90.14973400000599,None,,001,2022_May_11_1050,TMT_fmri,2021.2.3,59.917948361028124,
TMTstop-A_1_3.xlsx,52:78,1,['1'],1,TMTstop-A_1_3.png,TMTstop-A_1_3.png,TMTstop-A_1_3.png,TMT_A,3,51,,,,,,,,,0,2,2,2,0,0,0,0,,,,,,,,,,,,,,,,,,,,,,,,,,,,,,,,,,,,,,,1,1,64.77534839999862,94.26386480001383,None,['1'],1,[0.49957610000274144],94.26386480001383,None,,001,2022_May_11_1050,TMT_fmri,2021.2.3,59.917948361028124,
TMTstop-A_1_3.xlsx,52:78,2,['3'],3,TMTstop-A_1_3.png,TMTstop-A_1_3firstgreen.png,TMTstop-A_1_3firstred.png,TMT_A,3,52,,,,,,,,,0,2,2,2,0,1,1,1,,,,,,,,,,,,,,,,,,,,,,,,,,,,,,,,,,,,,,,2,0,64.96644550000201,94.82158280001022,None,"['2', '3']",1,"[0.03440529998624697, 0.11288420000346377]",94.82158280001022,None,,001,2022_May_11_1050,TMT_fmri,2021.2.3,59.917948361028124,
TMTstop-A_1_3.xlsx,52:78,3,['2'],2,TMTstop-A_1_3linestimulus0.png,TMTstop-A_1_3greenlinestimulus0.png,TMTstop-A_1_3redlinestimulus0.png,TMT_A,3,53,,,,,,,,,0,2,2,2,0,2,2,2,,,,,,,,,,,,,,,,,,,,,,,,,,,,,,,,,,,,,,,2,0,65.17557120000129,95.01116720002028,None,"['1', '2']",1,"[0.09314240000094287, 0.12423280000803061]",95.01116720002028,None,,001,2022_May_11_1050,TMT_fmri,2021.2.3,59.917948361028124,
TMTstop-A_1_3.xlsx,52:78,4,['3'],3,TMTstop-A_1_3linestimulus1.png,TMTstop-A_1_3greenlinestimulus1.png,TMTstop-A_1_3redlinestimulus1.png,TMT_A,3,54,,,,,,,,,0,2,2,2,0,3,3,3,,,,,,,,,,,,,,,,,,,,,,,,,,,,,,,,,,,,,,,1,1,65.28546870002174,95.22180720002507,None,['3'],1,[0.05210230001830496],95.22180720002507,None,,001,2022_May_11_1050,TMT_fmri,2021.2.3,59.917948361028124,
TMTstop-A_1_3.xlsx,52:78,5,['2'],2,TMTstop-A_1_3linestimulus2.png,TMTstop-A_1_3greenlinestimulus2.png,TMTstop-A_1_3redlinestimulus2.png,TMT_A,3,55,,,,,,,,,0,2,2,2,0,4,4,4,,,,,,,,,,,,,,,,,,,,,,,,,,,,,,,,,,,,,,,2,0,65.47746730002109,95.33177300001262,None,"['1', '2']",1,"[0.08618780001415871, 0.10616060000029393]",95.33177300001262,None,,001,2022_May_11_1050,TMT_fmri,2021.2.3,59.917948361028124,
TMTstop-A_1_3.xlsx,52:78,6,['1'],1,TMTstop-A_1_3linestimulus3.png,TMTstop-A_1_3greenlinestimulus3.png,TMTstop-A_1_3redlinestimulus3.png,TMT_A,3,56,,,,,,,,,0,2,2,2,0,5,5,5,,,,,,,,,,,,,,,,,,,,,,,,,,,,,,,,,,,,,,,4,0,65.99747480000951,95.52164570000605,None,"['3', '1', '2', '1']",1,"[0.09057500000926666, 0.24176490001264028, 0.24686620000284165, 0.4656552000087686]",95.52164570000605,None,,001,2022_May_11_1050,TMT_fmri,2021.2.3,59.917948361028124,
TMTstop-A_1_3.xlsx,52:78,7,['3'],3,TMTstop-A_1_3linestimulus4.png,TMTstop-A_1_3greenlinestimulus4.png,TMTstop-A_1_3redlinestimulus4.png,TMT_A,3,57,,,,,,,,,0,2,2,2,0,6,6,6,,,,,,,,,,,,,,,,,,,,,,,,,,,,,,,,,,,,,,,2,0,66.25768380000954,96.0365482000052,None,"['2', '3']",1,"[-0.04010099999140948, 0.18747420000727288]",96.0365482000052,None,,001,2022_May_11_1050,TMT_fmri,2021.2.3,59.917948361028124,
TMTstop-A_1_3.xlsx,52:78,8,['1'],1,TMTstop-A_1_3linestimulus5.png,TMTstop-A_1_3greenlinestimulus5.png,TMTstop-A_1_3redlinestimulus5.png,TMT_A,3,58,,,,,,,,,0,2,2,2,0,7,7,7,,,,,,,,,,,,,,,,,,,,,,,,,,,,,,,,,,,,,,,1,1,66.39275240001734,96.2985024000227,None,['1'],1,[0.07042350000119768],96.2985024000227,None,,001,2022_May_11_1050,TMT_fmri,2021.2.3,59.917948361028124,
TMTstop-A_1_3.xlsx,52:78,9,['3'],3,TMTstop-A_1_3linestimulus6.png,TMTstop-A_1_3greenlinestimulus6.png,TMTstop-A_1_3redlinestimulus6.png,TMT_A,3,59,,,,,,,,,0,2,2,2,0,8,8,8,,,,,,,,,,,,,,,,,,,,,,,,,,,,,,,,,,,,,,,2,0,66.59274809999624,96.43198040002608,None,"['2', '3']",1,"[-0.003416999999899417, 0.11516980000305921]",96.43198040002608,None,,001,2022_May_11_1050,TMT_fmri,2021.2.3,59.917948361028124,
TMTstop-A_1_3.xlsx,52:78,10,['2'],2,TMTstop-A_1_3linestimulus7.png,TMTstop-A_1_3greenlinestimulus7.png,TMTstop-A_1_3redlinestimulus7.png,TMT_A,3,60,,,,,,,,,0,2,2,2,0,9,9,9,,,,,,,,,,,,,,,,,,,,,,,,,,,,,,,,,,,,,,,2,0,66.74275170001783,96.6319313000131,None,"['1', '2']",1,"[0.050323400006163865, 0.07200730001204647]",96.6319313000131,None,,001,2022_May_11_1050,TMT_fmri,2021.2.3,59.917948361028124,
TMTstop-A_1_3.xlsx,52:78,11,['3'],3,TMTstop-A_1_3linestimulus8.png,TMTstop-A_1_3greenlinestimulus8.png,TMTstop-A_1_3redlinestimulus8.png,TMT_A,3,61,,,,,,,,,0,2,2,2,0,10,10,10,,,,,,,,,,,,,,,,,,,,,,,,,,,,,,,,,,,,,,,7,0,67.86574940002174,96.78219970001373,None,"['1', '2', '1', '2', '1', '2', '3']",1,"[0.24277199999778531, 0.2887539000075776, 0.5889206000138074, 0.6299396000104025, 0.8577054000052158, 0.8917291999969166, 1.031489999993937]",96.78219970001373,None,,001,2022_May_11_1050,TMT_fmri,2021.2.3,59.917948361028124,
TMTstop-A_1_3.xlsx,52:78,12,['2'],2,TMTstop-A_1_3linestimulus9.png,TMTstop-A_1_3greenlinestimulus9.png,TMTstop-A_1_3redlinestimulus9.png,TMT_A,3,62,,,,,,,,,0,2,2,2,0,11,11,11,,,,,,,,,,,,,,,,,,,,,,,,,,,,,,,,,,,,,,,2,0,68.09978109999793,97.90520220002509,None,"['1', '2']",1,"[0.06279600001289509, 0.15598700000555255]",97.90520220002509,None,,001,2022_May_11_1050,TMT_fmri,2021.2.3,59.917948361028124,
TMTstop-A_1_3.xlsx,52:78,13,['1'],1,TMTstop-A_1_3linestimulus10.png,TMTstop-A_1_3greenlinestimulus10.png,TMTstop-A_1_3redlinestimulus10.png,TMT_A,3,63,,,,,,,,,0,2,2,2,0,12,12,12,,,,,,,,,,,,,,,,,,,,,,,,,,,,,,,,,,,,,,,2,0,68.42265439999755,98.13869910000358,None,"['3', '1']",1,"[0.10879600001499057, 0.2316704000113532]",98.13869910000358,None,,001,2022_May_11_1050,TMT_fmri,2021.2.3,59.917948361028124,
TMTstop-A_1_3.xlsx,52:78,14,['2'],2,TMTstop-A_1_3linestimulus11.png,TMTstop-A_1_3greenlinestimulus11.png,TMTstop-A_1_3redlinestimulus11.png,TMT_A,3,64,,,,,,,,,0,2,2,2,0,13,13,13,,,,,,,,,,,,,,,,,,,,,,,,,,,,,,,,,,,,,,,1,1,68.47957389999647,98.46877830001176,None,['2'],1,[-0.00897419999819249],98.46877830001176,None,,001,2022_May_11_1050,TMT_fmri,2021.2.3,59.917948361028124,
TMTstop-A_1_3.xlsx,52:78,15,['3'],3,TMTstop-A_1_3linestimulus12.png,TMTstop-A_1_3greenlinestimulus12.png,TMTstop-A_1_3redlinestimulus12.png,TMT_A,3,65,,,,,,,,,0,2,2,2,0,14,14,14,,,,,,,,,,,,,,,,,,,,,,,,,,,,,,,,,,,,,,,1,1,68.59857640002156,98.51834070001496,None,['3'],1,[0.05672769999364391],98.51834070001496,None,,001,2022_May_11_1050,TMT_fmri,2021.2.3,59.917948361028124,
TMTstop-A_1_3.xlsx,52:78,16,['2'],2,TMTstop-A_1_3linestimulus13.png,TMTstop-A_1_3greenlinestimulus13.png,TMTstop-A_1_3redlinestimulus13.png,TMT_A,3,66,,,,,,,,,0,2,2,2,0,15,15,15,,,,,,,,,,,,,,,,,,,,,,,,,,,,,,,,,,,,,,,2,0,68.7989249000093,98.65232370002195,None,"['1', '2']",1,"[0.06003660001442768, 0.1306054000160657]",98.65232370002195,None,,001,2022_May_11_1050,TMT_fmri,2021.2.3,59.917948361028124,
TMTstop-A_1_3.xlsx,52:78,17,['3'],3,TMTstop-A_1_3linestimulus14.png,TMTstop-A_1_3greenlinestimulus14.png,TMTstop-A_1_3redlinestimulus14.png,TMT_A,3,67,,,,,,,,,0,2,2,2,0,16,16,16,,,,,,,,,,,,,,,,,,,,,,,,,,,,,,,,,,,,,,,1,1,68.92194850000669,98.84409660001984,None,['3'],1,[0.06255520001286641],98.84409660001984,None,,001,2022_May_11_1050,TMT_fmri,2021.2.3,59.917948361028124,
TMTstop-A_1_3.xlsx,52:78,18,['2'],2,TMTstop-A_1_3linestimulus15.png,TMTstop-A_1_3greenlinestimulus15.png,TMTstop-A_1_3redlinestimulus15.png,TMT_A,3,68,,,,,,,,,0,2,2,2,0,17,17,17,,,,,,,,,,,,,,,,,,,,,,,,,,,,,,,,,,,,,,,2,0,69.15543490002165,98.96109620001516,None,"['1', '2']",1,"[0.07153309998102486, 0.1526292999915313]",98.96109620001516,None,,001,2022_May_11_1050,TMT_fmri,2021.2.3,59.917948361028124,
TMTstop-A_1_3.xlsx,52:78,19,['3'],3,TMTstop-A_1_3linestimulus16.png,TMTstop-A_1_3greenlinestimulus16.png,TMTstop-A_1_3redlinestimulus16.png,TMT_A,3,69,,,,,,,,,0,2,2,2,0,18,18,18,,,,,,,,,,,,,,,,,,,,,,,,,,,,,,,,,,,,,,,1,1,69.26198070001556,99.20119060002617,None,['3'],1,[0.023782000003848225],99.20119060002617,None,,001,2022_May_11_1050,TMT_fmri,2021.2.3,59.917948361028124,
TMTstop-A_1_3.xlsx,52:78,20,['1'],1,TMTstop-A_1_3linestimulus17.png,TMTstop-A_1_3greenlinestimulus17.png,TMTstop-A_1_3redlinestimulus17.png,TMT_A,3,70,,,,,,,,,0,2,2,2,0,19,19,19,,,,,,,,,,,,,,,,,,,,,,,,,,,,,,,,,,,,,,,1,1,69.36221390002174,99.3012705000001,None,['1'],1,[0.036854300007689744],99.3012705000001,None,,001,2022_May_11_1050,TMT_fmri,2021.2.3,59.917948361028124,
TMTstop-A_1_3.xlsx,52:78,21,['2'],2,TMTstop-A_1_3linestimulus18.png,TMTstop-A_1_3greenlinestimulus18.png,TMTstop-A_1_3redlinestimulus18.png,TMT_A,3,71,,,,,,,,,0,2,2,2,0,20,20,20,,,,,,,,,,,,,,,,,,,,,,,,,,,,,,,,,,,,,,,1,1,69.4462676999974,99.40184420000878,None,['2'],1,[0.017946200008736923],99.40184420000878,None,,001,2022_May_11_1050,TMT_fmri,2021.2.3,59.917948361028124,
TMTstop-A_1_3.xlsx,52:78,22,['3'],3,TMTstop-A_1_3linestimulus19.png,TMTstop-A_1_3greenlinestimulus19.png,TMTstop-A_1_3redlinestimulus19.png,TMT_A,3,72,,,,,,,,,0,2,2,2,0,21,21,21,,,,,,,,,,,,,,,,,,,,,,,,,,,,,,,,,,,,,,,1,1,69.54568910002126,99.48535010000342,None,['3'],1,[0.03981059999205172],99.48535010000342,None,,001,2022_May_11_1050,TMT_fmri,2021.2.3,59.917948361028124,
TMTstop-A_1_3.xlsx,52:78,23,['2'],2,TMTstop-A_1_3linestimulus20.png,TMTstop-A_1_3greenlinestimulus20.png,TMTstop-A_1_3redlinestimulus20.png,TMT_A,3,73,,,,,,,,,0,2,2,2,0,22,22,22,,,,,,,,,,,,,,,,,,,,,,,,,,,,,,,,,,,,,,,2,0,69.79049230000237,99.58555590000469,None,"['1', '2']",1,"[0.0589441999909468, 0.1433095999818761]",99.58555590000469,None,,001,2022_May_11_1050,TMT_fmri,2021.2.3,59.917948361028124,
TMTstop-A_1_3.xlsx,52:78,24,['1'],1,TMTstop-A_1_3linestimulus21.png,TMTstop-A_1_3greenlinestimulus21.png,TMTstop-A_1_3redlinestimulus21.png,TMT_A,3,74,,,,,,,,,0,2,2,2,0,23,23,23,,,,,,,,,,,,,,,,,,,,,,,,,,,,,,,,,,,,,,,2,0,69.9897759000014,99.82970260002185,None,"['3', '1']",1,"[-0.00020749997929669917, 0.12257100001443177]",99.82970260002185,None,,001,2022_May_11_1050,TMT_fmri,2021.2.3,59.917948361028124,
TMTstop-A_1_3.xlsx,52:78,25,['2'],2,TMTstop-A_1_3linestimulus22.png,TMTstop-A_1_3greenlinestimulus22.png,TMTstop-A_1_3redlinestimulus22.png,TMT_A,3,75,,,,,,,,,0,2,2,2,0,24,24,24,,,,,,,,,,,,,,,,,,,,,,,,,,,,,,,,,,,,,,,1,1,70.04082399999606,100.02997120001237,None,['2'],1,[-0.012822899996535853],100.02997120001237,None,,001,2022_May_11_1050,TMT_fmri,2021.2.3,59.917948361028124,
TMTstop-A_1_3.xlsx,52:78,None,None,None,TMTstop-A_1_3linestimulus23.png,TMTstop-A_1_3greenlinestimulus23.png,TMTstop-A_1_3redlinestimulus23.png,TMT_A,3,Feedback_last,,,,,,,,,0,2,2,2,0,25,25,25,,,,,,,,,,,,,,,,,,,,,,,,,,,,,,,,,,,,,,,4,0,,100.07945140000083,None,"['3', '1', '2', '3']",0,"[0.0558080000046175, 0.16843069999595173, 0.249283099983586, 0.4872070999990683]",100.07945140000083,None,,001,2022_May_11_1050,TMT_fmri,2021.2.3,59.917948361028124,
TMTstop-B_1_1.xlsx,0:26,1,['3'],3,TMTstop-B_1_1.png,TMTstop-B_1_1.png,TMTstop-B_1_1.png,TMT_B,1,1,,,,,,,,,,,,,,,,,0,0,0,0,0,0,0,0,,,,,,,,,,,,,,,,,,,,,,,,,,,,,,,3,0,84.98541839999962,114.1879238000256,None,"['1', '2', '3']",1,"[0.5554288999992423, 0.6495908999931999, 0.7489491000014823]",114.1879238000256,None,,001,2022_May_11_1050,TMT_fmri,2021.2.3,59.917948361028124,
TMTstop-B_1_1.xlsx,0:26,A,['1'],1,TMTstop-B_1_1.png,TMTstop-B_1_1firstgreen.png,TMTstop-B_1_1firstred.png,TMT_B,1,2,,,,,,,,,,,,,,,,,0,0,0,0,0,1,1,1,,,,,,,,,,,,,,,,,,,,,,,,,,,,,,,1,1,85.13562810001895,115.02472280000802,None,['1'],1,[0.10082829999737442],115.02472280000802,None,,001,2022_May_11_1050,TMT_fmri,2021.2.3,59.917948361028124,
TMTstop-B_1_1.xlsx,0:26,2,['3'],3,TMTstop-B_1_1linestimulus0.png,TMTstop-B_1_1greenlinestimulus0.png,TMTstop-B_1_1redlinestimulus0.png,TMT_B,1,3,,,,,,,,,,,,,,,,,0,0,0,0,0,2,2,2,,,,,,,,,,,,,,,,,,,,,,,,,,,,,,,2,0,85.35962299999665,115.175398100022,None,"['2', '3']",1,"[0.008456299983663484, 0.1638379999785684]",115.175398100022,None,,001,2022_May_11_1050,TMT_fmri,2021.2.3,59.917948361028124,
TMTstop-B_1_1.xlsx,0:26,B,['2'],2,TMTstop-B_1_1linestimulus1.png,TMTstop-B_1_1greenlinestimulus1.png,TMTstop-B_1_1redlinestimulus1.png,TMT_B,1,4,,,,,,,,,,,,,,,,,0,0,0,0,0,3,3,3,,,,,,,,,,,,,,,,,,,,,,,,,,,,,,,2,0,85.61029280000366,115.39910860001692,None,"['1', '2']",1,"[0.08948759999475442, 0.15691900000092573]",115.39910860001692,None,,001,2022_May_11_1050,TMT_fmri,2021.2.3,59.917948361028124,
TMTstop-B_1_1.xlsx,0:26,3,['1'],1,TMTstop-B_1_1linestimulus2.png,TMTstop-B_1_1greenlinestimulus2.png,TMTstop-B_1_1redlinestimulus2.png,TMT_B,1,5,,,,,,,,,,,,,,,,,0,0,0,0,0,4,4,4,,,,,,,,,,,,,,,,,,,,,,,,,,,,,,,2,0,85.84629400001722,115.65637229999993,None,"['3', '1']",1,"[0.013232500001322478, 0.13733629998750985]",115.65637229999993,None,,001,2022_May_11_1050,TMT_fmri,2021.2.3,59.917948361028124,
TMTstop-B_1_1.xlsx,0:26,C,['3'],3,TMTstop-B_1_1linestimulus3.png,TMTstop-B_1_1greenlinestimulus3.png,TMTstop-B_1_1redlinestimulus3.png,TMT_B,1,6,,,,,,,,,,,,,,,,,0,0,0,0,0,5,5,5,,,,,,,,,,,,,,,,,,,,,,,,,,,,,,,2,0,85.99929540001904,115.88501540001016,None,"['2', '3']",1,"[-0.02482259998214431, 0.0784577000013087]",115.88501540001016,None,,001,2022_May_11_1050,TMT_fmri,2021.2.3,59.917948361028124,
TMTstop-B_1_1.xlsx,0:26,4,['2'],2,TMTstop-B_1_1linestimulus4.png,TMTstop-B_1_1greenlinestimulus4.png,TMTstop-B_1_1redlinestimulus4.png,TMT_B,1,7,,,,,,,,,,,,,,,,,0,0,0,0,0,6,6,6,,,,,,,,,,,,,,,,,,,,,,,,,,,,,,,2,0,86.18333120000898,116.0384713000094,None,"['1', '2']",1,"[0.07180210002115928, 0.12933739999425597]",116.0384713000094,None,,001,2022_May_11_1050,TMT_fmri,2021.2.3,59.917948361028124,
TMTstop-B_1_1.xlsx,0:26,D,['1'],1,TMTstop-B_1_1linestimulus5.png,TMTstop-B_1_1greenlinestimulus5.png,TMTstop-B_1_1redlinestimulus5.png,TMT_B,1,8,,,,,,,,,,,,,,,,,0,0,0,0,0,7,7,7,,,,,,,,,,,,,,,,,,,,,,,,,,,,,,,2,0,86.47643450001488,116.22217170000658,None,"['3', '1']",1,"[0.07182080001803115, 0.19443840000894852]",116.22217170000658,None,,001,2022_May_11_1050,TMT_fmri,2021.2.3,59.917948361028124,
TMTstop-B_1_1.xlsx,0:26,5,['3'],3,TMTstop-B_1_1linestimulus6.png,TMTstop-B_1_1greenlinestimulus6.png,TMTstop-B_1_1redlinestimulus6.png,TMT_B,1,9,,,,,,,,,,,,,,,,,0,0,0,0,0,8,8,8,,,,,,,,,,,,,,,,,,,,,,,,,,,,,,,1,1,86.59319650000543,116.51662910002051,None,['3'],1,[0.06165059999329969],116.51662910002051,None,,001,2022_May_11_1050,TMT_fmri,2021.2.3,59.917948361028124,
TMTstop-B_1_1.xlsx,0:26,E,['1'],1,TMTstop-B_1_1linestimulus7.png,TMTstop-B_1_1greenlinestimulus7.png,TMTstop-B_1_1redlinestimulus7.png,TMT_B,1,10,,,,,,,,,,,,,,,,,0,0,0,0,0,9,9,9,,,,,,,,,,,,,,,,,,,,,,,,,,,,,,,1,1,86.71032030001516,116.63337049999973,None,['1'],1,[0.06407309998758137],116.63337049999973,None,,001,2022_May_11_1050,TMT_fmri,2021.2.3,59.917948361028124,
TMTstop-B_1_1.xlsx,0:26,6,['3'],3,TMTstop-B_1_1linestimulus8.png,TMTstop-B_1_1greenlinestimulus8.png,TMTstop-B_1_1redlinestimulus8.png,TMT_B,1,11,,,,,,,,,,,,,,,,,0,0,0,0,0,10,10,10,,,,,,,,,,,,,,,,,,,,,,,,,,,,,,,2,0,86.87232110000332,116.75027850002516,None,"['2', '3']",1,"[-0.02043279999634251, 0.1071290000109002]",116.75027850002516,None,,001,2022_May_11_1050,TMT_fmri,2021.2.3,59.917948361028124,
TMTstop-B_1_1.xlsx,0:26,F,['1'],1,TMTstop-B_1_1linestimulus9.png,TMTstop-B_1_1greenlinestimulus9.png,TMTstop-B_1_1redlinestimulus9.png,TMT_B,1,12,,,,,,,,,,,,,,,,,0,0,0,0,0,11,11,11,,,,,,,,,,,,,,,,,,,,,,,,,,,,,,,1,1,87.0223162000184,116.91159350000089,None,['1'],1,[0.08880890000727959],116.91159350000089,None,,001,2022_May_11_1050,TMT_fmri,2021.2.3,59.917948361028124,
TMTstop-B_1_1.xlsx,0:26,7,['3'],3,TMTstop-B_1_1linestimulus10.png,TMTstop-B_1_1greenlinestimulus10.png,TMTstop-B_1_1redlinestimulus10.png,TMT_B,1,13,,,,,,,,,,,,,,,,,0,0,0,0,0,12,12,12,,,,,,,,,,,,,,,,,,,,,,,,,,,,,,,2,0,87.17919610001263,117.06158290000167,None,"['2', '3']",1,"[-0.025801799987675622, 0.1071533000213094]",117.06158290000167,None,,001,2022_May_11_1050,TMT_fmri,2021.2.3,59.917948361028124,
TMTstop-B_1_1.xlsx,0:26,G,['2'],2,TMTstop-B_1_1linestimulus11.png,TMTstop-B_1_1greenlinestimulus11.png,TMTstop-B_1_1redlinestimulus11.png,TMT_B,1,14,,,,,,,,,,,,,,,,,0,0,0,0,0,13,13,13,,,,,,,,,,,,,,,,,,,,,,,,,,,,,,,2,0,87.37033330000122,117.22527510000509,None,"['1', '2']",1,"[0.07727290000184439, 0.12243600000510924]",117.22527510000509,None,,001,2022_May_11_1050,TMT_fmri,2021.2.3,59.917948361028124,
TMTstop-B_1_1.xlsx,0:26,8,['3'],3,TMTstop-B_1_1linestimulus12.png,TMTstop-B_1_1greenlinestimulus12.png,TMTstop-B_1_1redlinestimulus12.png,TMT_B,1,15,,,,,,,,,,,,,,,,,0,0,0,0,0,14,14,14,,,,,,,,,,,,,,,,,,,,,,,,,,,,,,,1,1,87.51132380001945,117.4159018000064,None,['3'],1,[0.08440619998145849],117.4159018000064,None,,001,2022_May_11_1050,TMT_fmri,2021.2.3,59.917948361028124,
TMTstop-B_1_1.xlsx,0:26,H,['1'],1,TMTstop-B_1_1linestimulus13.png,TMTstop-B_1_1greenlinestimulus13.png,TMTstop-B_1_1redlinestimulus13.png,TMT_B,1,16,,,,,,,,,,,,,,,,,0,0,0,0,0,15,15,15,,,,,,,,,,,,,,,,,,,,,,,,,,,,,,,1,1,87.64532440001494,117.55035260002478,None,['1'],1,[0.08152390000759624],117.55035260002478,None,,001,2022_May_11_1050,TMT_fmri,2021.2.3,59.917948361028124,
TMTstop-B_1_1.xlsx,0:26,9,['3'],3,TMTstop-B_1_1linestimulus14.png,TMTstop-B_1_1greenlinestimulus14.png,TMTstop-B_1_1redlinestimulus14.png,TMT_B,1,17,,,,,,,,,,,,,,,,,0,0,0,0,0,16,16,16,,,,,,,,,,,,,,,,,,,,,,,,,,,,,,,2,0,87.8723209000018,117.68386889999965,None,"['2', '3']",1,"[0.016726500005461276, 0.16013869998278096]",117.68386889999965,None,,001,2022_May_11_1050,TMT_fmri,2021.2.3,59.917948361028124,
TMTstop-B_1_1.xlsx,0:26,I,['2'],2,TMTstop-B_1_1linestimulus15.png,TMTstop-B_1_1greenlinestimulus15.png,TMTstop-B_1_1redlinestimulus15.png,TMT_B,1,18,,,,,,,,,,,,,,,,,0,0,0,0,0,17,17,17,,,,,,,,,,,,,,,,,,,,,,,,,,,,,,,2,0,88.12331220001215,117.91248990001623,None,"['1', '2']",1,"[0.09178529999917373, 0.18001330000697635]",117.91248990001623,None,,001,2022_May_11_1050,TMT_fmri,2021.2.3,59.917948361028124,
TMTstop-B_1_1.xlsx,0:26,10,['3'],3,TMTstop-B_1_1linestimulus16.png,TMTstop-B_1_1greenlinestimulus16.png,TMTstop-B_1_1redlinestimulus16.png,TMT_B,1,19,,,,,,,,,,,,,,,,,0,0,0,0,0,18,18,18,,,,,,,,,,,,,,,,,,,,,,,,,,,,,,,1,1,88.26355410000542,118.16980850000982,None,['3'],1,[0.0764132000040263],118.16980850000982,None,,001,2022_May_11_1050,TMT_fmri,2021.2.3,59.917948361028124,
TMTstop-B_1_1.xlsx,0:26,J,['2'],2,TMTstop-B_1_1linestimulus17.png,TMTstop-B_1_1greenlinestimulus17.png,TMTstop-B_1_1redlinestimulus17.png,TMT_B,1,20,,,,,,,,,,,,,,,,,0,0,0,0,0,19,19,19,,,,,,,,,,,,,,,,,,,,,,,,,,,,,,,2,0,88.48833270001342,118.30280200002016,None,"['1', '2']",1,"[0.10550480001256801, 0.16986000002361834]",118.30280200002016,None,,001,2022_May_11_1050,TMT_fmri,2021.2.3,59.917948361028124,
TMTstop-B_1_1.xlsx,0:26,11,['1'],1,TMTstop-B_1_1linestimulus18.png,TMTstop-B_1_1greenlinestimulus18.png,TMTstop-B_1_1redlinestimulus18.png,TMT_B,1,21,,,,,,,,,,,,,,,,,0,0,0,0,0,20,20,20,,,,,,,,,,,,,,,,,,,,,,,,,,,,,,,2,0,88.76629990001675,118.52795080002397,None,"['3', '1']",1,"[0.05838809997658245, 0.18162279998068698]",118.52795080002397,None,,001,2022_May_11_1050,TMT_fmri,2021.2.3,59.917948361028124,
TMTstop-B_1_1.xlsx,0:26,K,['2'],2,TMTstop-B_1_1linestimulus19.png,TMTstop-B_1_1greenlinestimulus19.png,TMTstop-B_1_1redlinestimulus19.png,TMT_B,1,22,,,,,,,,,,,,,,,,,0,0,0,0,0,21,21,21,,,,,,,,,,,,,,,,,,,,,,,,,,,,,,,1,1,88.8152900999994,118.80506390001392,None,['2'],1,[-0.0256807999976445],118.80506390001392,None,,001,2022_May_11_1050,TMT_fmri,2021.2.3,59.917948361028124,
TMTstop-B_1_1.xlsx,0:26,12,['1'],1,TMTstop-B_1_1linestimulus20.png,TMTstop-B_1_1greenlinestimulus20.png,TMTstop-B_1_1redlinestimulus20.png,TMT_B,1,23,,,,,,,,,,,,,,,,,0,0,0,0,0,22,22,22,,,,,,,,,,,,,,,,,,,,,,,,,,,,,,,2,0,89.04030079999939,118.85559730001842,None,"['3', '1']",1,"[0.011980499984929338, 0.1424255999736488]",118.85559730001842,None,,001,2022_May_11_1050,TMT_fmri,2021.2.3,59.917948361028124,
TMTstop-B_1_1.xlsx,0:26,L,['2'],2,TMTstop-B_1_1linestimulus21.png,TMTstop-B_1_1greenlinestimulus21.png,TMTstop-B_1_1redlinestimulus21.png,TMT_B,1,24,,,,,,,,,,,,,,,,,0,0,0,0,0,23,23,23,,,,,,,,,,,,,,,,,,,,,,,,,,,,,,,1,1,89.08918870001798,119.07873140001902,None,['2'],1,[-0.005944599979557097],119.07873140001902,None,,001,2022_May_11_1050,TMT_fmri,2021.2.3,59.917948361028124,
TMTstop-B_1_1.xlsx,0:26,13,['1'],1,TMTstop-B_1_1linestimulus22.png,TMTstop-B_1_1greenlinestimulus22.png,TMTstop-B_1_1redlinestimulus22.png,TMT_B,1,25,,,,,,,,,,,,,,,,,0,0,0,0,0,24,24,24,,,,,,,,,,,,,,,,,,,,,,,,,,,,,,,2,0,89.3147499000188,119.1298977000115,None,"['3', '1']",1,"[0.05240899999625981, 0.1682855999970343]",119.1298977000115,None,,001,2022_May_11_1050,TMT_fmri,2021.2.3,59.917948361028124,
TMTstop-B_1_1.xlsx,0:26,None,None,None,TMTstop-B_1_1linestimulus23.png,TMTstop-B_1_1greenlinestimulus23.png,TMTstop-B_1_1redlinestimulus23.png,TMT_B,1,Feedback_last,,,,,,,,,,,,,,,,,0,0,0,0,0,25,25,25,,,,,,,,,,,,,,,,,,,,,,,,,,,,,,,2,0,,119.35417780000716,None,"['2', '3']",0,"[0.018639199988683686, 0.14370169999892823]",119.35417780000716,None,,001,2022_May_11_1050,TMT_fmri,2021.2.3,59.917948361028124,
TMTstop-B_1_2.xlsx,26:52,1,['1'],1,TMTstop-B_1_2.png,TMTstop-B_1_2.png,TMTstop-B_1_2.png,TMT_B,2,26,,,,,,,,,,,,,,,,,0,1,1,1,0,0,0,0,,,,,,,,,,,,,,,,,,,,,,,,,,,,,,,1,1,94.06496430002153,123.56702340001357,None,['1'],1,[0.48141360000590794],123.56702340001357,None,,001,2022_May_11_1050,TMT_fmri,2021.2.3,59.917948361028124,
TMTstop-B_1_2.xlsx,26:52,A,['2'],2,TMTstop-B_1_2.png,TMTstop-B_1_2firstgreen.png,TMTstop-B_1_2firstred.png,TMT_B,2,27,,,,,,,,,,,,,,,,,0,1,1,1,0,1,1,1,,,,,,,,,,,,,,,,,,,,,,,,,,,,,,,1,1,94.1900676000223,124.11249630001839,None,['2'],1,[0.055008299998007715],124.11249630001839,None,,001,2022_May_11_1050,TMT_fmri,2021.2.3,59.917948361028124,
TMTstop-B_1_2.xlsx,26:52,2,['1'],1,TMTstop-B_1_2linestimulus0.png,TMTstop-B_1_2greenlinestimulus0.png,TMTstop-B_1_2redlinestimulus0.png,TMT_B,2,28,,,,,,,,,,,,,,,,,0,1,1,1,0,2,2,2,,,,,,,,,,,,,,,,,,,,,,,,,,,,,,,2,0,94.43833780000568,124.23685110002407,None,"['3', '1']",1,"[0.018814000010024756, 0.1870305000047665]",124.23685110002407,None,,001,2022_May_11_1050,TMT_fmri,2021.2.3,59.917948361028124,
TMTstop-B_1_2.xlsx,26:52,B,['2'],2,TMTstop-B_1_2linestimulus1.png,TMTstop-B_1_2greenlinestimulus1.png,TMTstop-B_1_2redlinestimulus1.png,TMT_B,2,29,,,,,,,,,,,,,,,,,0,1,1,1,0,3,3,3,,,,,,,,,,,,,,,,,,,,,,,,,,,,,,,1,1,94.49407370001427,124.48358290002216,None,['2'],1,[-0.022533999988809228],124.48358290002216,None,,001,2022_May_11_1050,TMT_fmri,2021.2.3,59.917948361028124,
TMTstop-B_1_2.xlsx,26:52,3,['1'],1,TMTstop-B_1_2linestimulus2.png,TMTstop-B_1_2greenlinestimulus2.png,TMTstop-B_1_2redlinestimulus2.png,TMT_B,2,30,,,,,,,,,,,,,,,,,0,1,1,1,0,4,4,4,,,,,,,,,,,,,,,,,,,,,,,,,,,,,,,2,0,95.29403660001117,124.53378410000005,None,"['3', '1']",1,"[0.06944529997417703, 0.7435648999817204]",124.53378410000005,None,,001,2022_May_11_1050,TMT_fmri,2021.2.3,59.917948361028124,
TMTstop-B_1_2.xlsx,26:52,C,['3'],3,TMTstop-B_1_2linestimulus3.png,TMTstop-B_1_2greenlinestimulus3.png,TMTstop-B_1_2redlinestimulus3.png,TMT_B,2,31,,,,,,,,,,,,,,,,,0,1,1,1,0,5,5,5,,,,,,,,,,,,,,,,,,,,,,,,,,,,,,,3,0,96.23314120000578,125.33446540002478,None,"['1', '2', '3']",1,"[0.6287818000128027, 0.739993900002446, 0.8371168000157923]",125.33446540002478,None,,001,2022_May_11_1050,TMT_fmri,2021.2.3,59.917948361028124,
TMTstop-B_1_2.xlsx,26:52,4,['2'],2,TMTstop-B_1_2linestimulus4.png,TMTstop-B_1_2greenlinestimulus4.png,TMTstop-B_1_2redlinestimulus4.png,TMT_B,2,32,,,,,,,,,,,,,,,,,0,1,1,1,0,6,6,6,,,,,,,,,,,,,,,,,,,,,,,,,,,,,,,2,0,96.46601289999671,126.27215540001635,None,"['1', '2']",1,"[0.07623129998682998, 0.13748159998795018]",126.27215540001635,None,,001,2022_May_11_1050,TMT_fmri,2021.2.3,59.917948361028124,
TMTstop-B_1_2.xlsx,26:52,D,['1'],1,TMTstop-B_1_2linestimulus5.png,TMTstop-B_1_2greenlinestimulus5.png,TMTstop-B_1_2redlinestimulus5.png,TMT_B,2,33,,,,,,,,,,,,,,,,,0,1,1,1,0,7,7,7,,,,,,,,,,,,,,,,,,,,,,,,,,,,,,,2,0,96.66725290002069,126.50638700000127,None,"['3', '1']",1,"[0.020491800009040162, 0.14413460000650957]",126.50638700000127,None,,001,2022_May_11_1050,TMT_fmri,2021.2.3,59.917948361028124,
TMTstop-B_1_2.xlsx,26:52,5,['2'],2,TMTstop-B_1_2linestimulus6.png,TMTstop-B_1_2greenlinestimulus6.png,TMTstop-B_1_2redlinestimulus6.png,TMT_B,2,34,,,,,,,,,,,,,,,,,0,1,1,1,0,8,8,8,,,,,,,,,,,,,,,,,,,,,,,,,,,,,,,1,1,96.76701579999644,126.70665130001726,None,['2'],1,[0.0187242999963928],126.70665130001726,None,,001,2022_May_11_1050,TMT_fmri,2021.2.3,59.917948361028124,
TMTstop-B_1_2.xlsx,26:52,E,['3'],3,TMTstop-B_1_2linestimulus7.png,TMTstop-B_1_2greenlinestimulus7.png,TMTstop-B_1_2redlinestimulus7.png,TMT_B,2,35,,,,,,,,,,,,,,,,,0,1,1,1,0,9,9,9,,,,,,,,,,,,,,,,,,,,,,,,,,,,,,,1,1,96.86713070000405,126.80668530002004,None,['3'],1,[0.03170079999836162],126.80668530002004,None,,001,2022_May_11_1050,TMT_fmri,2021.2.3,59.917948361028124,
TMTstop-B_1_2.xlsx,26:52,6,['1'],1,TMTstop-B_1_2linestimulus8.png,TMTstop-B_1_2greenlinestimulus8.png,TMTstop-B_1_2redlinestimulus8.png,TMT_B,2,36,,,,,,,,,,,,,,,,,0,1,1,1,0,10,10,10,,,,,,,,,,,,,,,,,,,,,,,,,,,,,,,1,1,96.98412760000792,126.90686000001733,None,['1'],1,[0.060345000005327165],126.90686000001733,None,,001,2022_May_11_1050,TMT_fmri,2021.2.3,59.917948361028124,
TMTstop-B_1_2.xlsx,26:52,F,['3'],3,TMTstop-B_1_2linestimulus9.png,TMTstop-B_1_2greenlinestimulus9.png,TMTstop-B_1_2redlinestimulus9.png,TMT_B,2,37,,,,,,,,,,,,,,,,,0,1,1,1,0,11,11,11,,,,,,,,,,,,,,,,,,,,,,,,,,,,,,,4,0,97.95410329999868,127.0235115000105,None,"['2', '1', '2', '3']",1,"[0.0005800999933853745, 0.5219941999821458, 0.7985486999968998, 0.8927562999888323]",127.0235115000105,None,,001,2022_May_11_1050,TMT_fmri,2021.2.3,59.917948361028124,
TMTstop-B_1_2.xlsx,26:52,7,['1'],1,TMTstop-B_1_2linestimulus10.png,TMTstop-B_1_2greenlinestimulus10.png,TMTstop-B_1_2redlinestimulus10.png,TMT_B,2,38,,,,,,,,,,,,,,,,,0,1,1,1,0,12,12,12,,,,,,,,,,,,,,,,,,,,,,,,,,,,,,,1,1,98.30612449999899,127.99496300000465,None,['1'],1,[0.2955699000158347],127.99496300000465,None,,001,2022_May_11_1050,TMT_fmri,2021.2.3,59.917948361028124,
TMTstop-B_1_2.xlsx,26:52,G,['2'],2,TMTstop-B_1_2linestimulus11.png,TMTstop-B_1_2greenlinestimulus11.png,TMTstop-B_1_2redlinestimulus11.png,TMT_B,2,39,,,,,,,,,,,,,,,,,0,1,1,1,0,13,13,13,,,,,,,,,,,,,,,,,,,,,,,,,,,,,,,1,1,98.39712650000001,128.35339260002365,None,['2'],1,[0.0327238000172656],128.35339260002365,None,,001,2022_May_11_1050,TMT_fmri,2021.2.3,59.917948361028124,
TMTstop-B_1_2.xlsx,26:52,8,['1'],1,TMTstop-B_1_2linestimulus12.png,TMTstop-B_1_2greenlinestimulus12.png,TMTstop-B_1_2redlinestimulus12.png,TMT_B,2,40,,,,,,,,,,,,,,,,,0,1,1,1,0,14,14,14,,,,,,,,,,,,,,,,,,,,,,,,,,,,,,,2,0,98.6519911000214,128.4366312000202,None,"['3', '1']",1,"[0.04203459998825565, 0.1732168000016827]",128.4366312000202,None,,001,2022_May_11_1050,TMT_fmri,2021.2.3,59.917948361028124,
TMTstop-B_1_2.xlsx,26:52,H,['2'],2,TMTstop-B_1_2linestimulus13.png,TMTstop-B_1_2greenlinestimulus13.png,TMTstop-B_1_2redlinestimulus13.png,TMT_B,2,41,,,,,,,,,,,,,,,,,0,1,1,1,0,15,15,15,,,,,,,,,,,,,,,,,,,,,,,,,,,,,,,1,1,98.70216440001968,128.6917545000033,None,['2'],1,[-0.027422199986176565],128.6917545000033,None,,001,2022_May_11_1050,TMT_fmri,2021.2.3,59.917948361028124,
TMTstop-B_1_2.xlsx,26:52,9,['3'],3,TMTstop-B_1_2linestimulus14.png,TMTstop-B_1_2greenlinestimulus14.png,TMTstop-B_1_2redlinestimulus14.png,TMT_B,2,42,,,,,,,,,,,,,,,,,0,1,1,1,0,16,16,16,,,,,,,,,,,,,,,,,,,,,,,,,,,,,,,1,1,98.80306130001554,128.74187570001232,None,['3'],1,[0.02288200001930818],128.74187570001232,None,,001,2022_May_11_1050,TMT_fmri,2021.2.3,59.917948361028124,
TMTstop-B_1_2.xlsx,26:52,I,['1'],1,TMTstop-B_1_2linestimulus15.png,TMTstop-B_1_2greenlinestimulus15.png,TMTstop-B_1_2redlinestimulus15.png,TMT_B,2,43,,,,,,,,,,,,,,,,,0,1,1,1,0,17,17,17,,,,,,,,,,,,,,,,,,,,,,,,,,,,,,,1,1,98.9021285000199,128.84206240001367,None,['1'],1,[0.043946799996774644],128.84206240001367,None,,001,2022_May_11_1050,TMT_fmri,2021.2.3,59.917948361028124,
TMTstop-B_1_2.xlsx,26:52,10,['2'],2,TMTstop-B_1_2linestimulus16.png,TMTstop-B_1_2greenlinestimulus16.png,TMTstop-B_1_2redlinestimulus16.png,TMT_B,2,44,,,,,,,,,,,,,,,,,0,1,1,1,0,18,18,18,,,,,,,,,,,,,,,,,,,,,,,,,,,,,,,1,1,98.95226039999397,128.94212650001282,None,['2'],1,[-0.015571099997032434],128.94212650001282,None,,001,2022_May_11_1050,TMT_fmri,2021.2.3,59.917948361028124,
TMTstop-B_1_2.xlsx,26:52,J,['1'],1,TMTstop-B_1_2linestimulus17.png,TMTstop-B_1_2greenlinestimulus17.png,TMTstop-B_1_2redlinestimulus17.png,TMT_B,2,45,,,,,,,,,,,,,,,,,0,1,1,1,0,19,19,19,,,,,,,,,,,,,,,,,,,,,,,,,,,,,,,2,0,99.16703030001372,128.998573400022,None,"['3', '1']",1,"[0.0335215000086464, 0.13883300000452437]",128.998573400022,None,,001,2022_May_11_1050,TMT_fmri,2021.2.3,59.917948361028124,
TMTstop-B_1_2.xlsx,26:52,11,['3'],3,TMTstop-B_1_2linestimulus18.png,TMTstop-B_1_2greenlinestimulus18.png,TMTstop-B_1_2redlinestimulus18.png,TMT_B,2,46,,,,,,,,,,,,,,,,,0,1,1,1,0,20,20,20,,,,,,,,,,,,,,,,,,,,,,,,,,,,,,,2,0,99.3177699999942,129.2067161000159,None,"['2', '3']",1,"[-0.010694700002204627, 0.10206549998838454]",129.2067161000159,None,,001,2022_May_11_1050,TMT_fmri,2021.2.3,59.917948361028124,
TMTstop-B_1_2.xlsx,26:52,K,['2'],2,TMTstop-B_1_2linestimulus19.png,TMTstop-B_1_2greenlinestimulus19.png,TMTstop-B_1_2redlinestimulus19.png,TMT_B,2,47,,,,,,,,,,,,,,,,,0,1,1,1,0,21,21,21,,,,,,,,,,,,,,,,,,,,,,,,,,,,,,,2,0,99.50066230000812,129.35691860000952,None,"['1', '2']",1,"[0.07070010001189075, 0.12455950002186]",129.35691860000952,None,,001,2022_May_11_1050,TMT_fmri,2021.2.3,59.917948361028124,
TMTstop-B_1_2.xlsx,26:52,12,['1'],1,TMTstop-B_1_2linestimulus20.png,TMTstop-B_1_2greenlinestimulus20.png,TMTstop-B_1_2redlinestimulus20.png,TMT_B,2,48,,,,,,,,,,,,,,,,,0,1,1,1,0,22,22,22,,,,,,,,,,,,,,,,,,,,,,,,,,,,,,,2,0,99.72330370001146,129.54000440001255,None,"['3', '1']",1,"[0.06645890002255328, 0.16676650001318194]",129.54000440001255,None,,001,2022_May_11_1050,TMT_fmri,2021.2.3,59.917948361028124,
TMTstop-B_1_2.xlsx,26:52,L,['2'],2,TMTstop-B_1_2linestimulus21.png,TMTstop-B_1_2greenlinestimulus21.png,TMTstop-B_1_2redlinestimulus21.png,TMT_B,2,49,,,,,,,,,,,,,,,,,0,1,1,1,0,23,23,23,,,,,,,,,,,,,,,,,,,,,,,,,,,,,,,1,1,99.78141049999977,129.77043230002164,None,['2'],1,[-0.022390800004359335],129.77043230002164,None,,001,2022_May_11_1050,TMT_fmri,2021.2.3,59.917948361028124,
TMTstop-B_1_2.xlsx,26:52,13,['1'],1,TMTstop-B_1_2linestimulus22.png,TMTstop-B_1_2greenlinestimulus22.png,TMTstop-B_1_2redlinestimulus22.png,TMT_B,2,50,,,,,,,,,,,,,,,,,0,1,1,1,0,24,24,24,,,,,,,,,,,,,,,,,,,,,,,,,,,,,,,2,0,100.0145085999975,129.81992190002347,None,"['3', '1']",1,"[0.06238909999956377, 0.14709600000060163]",129.81992190002347,None,,001,2022_May_11_1050,TMT_fmri,2021.2.3,59.917948361028124,
TMTstop-B_1_2.xlsx,26:52,None,None,None,TMTstop-B_1_2linestimulus23.png,TMTstop-B_1_2greenlinestimulus23.png,TMTstop-B_1_2redlinestimulus23.png,TMT_B,2,Feedback_last,,,,,,,,,,,,,,,,,0,1,1,1,0,25,25,25,,,,,,,,,,,,,,,,,,,,,,,,,,,,,,,2,0,,130.05423080001492,None,"['2', '3']",0,"[-0.00870730000315234, 0.11181060000672005]",130.05423080001492,None,,001,2022_May_11_1050,TMT_fmri,2021.2.3,59.917948361028124,
TMTstop-Control_1_5.xlsx,104:130,1,['3'],3,TMTstop-control_1_5.png,TMTstop-control_1_5.png,TMTstop-control_1_5.png,TMT_Control,5,101,,,,,,,,,,,,,,,,,,,,,,,,,0,0,0,0,0,0,0,0,,,,,,,,,,,,,,,,,,,,,,,2,0,115.60427310000523,144.21127140001045,None,"['2', '3']",1,"[0.7651897000032477, 1.3633050000062212]",144.21127140001045,None,,001,2022_May_11_1050,TMT_fmri,2021.2.3,59.917948361028124,
TMTstop-Control_1_5.xlsx,104:130,2,['2'],2,TMTstop-control_1_5.png,TMTstop-control_1_5firstgreen.png,TMTstop-control_1_5firstred.png,TMT_Control,5,102,,,,,,,,,,,,,,,,,,,,,,,,,0,0,0,0,0,1,1,1,,,,,,,,,,,,,,,,,,,,,,,2,0,115.91761800000677,145.64913180001895,None,"['1', '2']",1,"[0.18721410000580363, 0.2506420999998227]",145.64913180001895,None,,001,2022_May_11_1050,TMT_fmri,2021.2.3,59.917948361028124,
TMTstop-Control_1_5.xlsx,104:130,3,['1'],1,TMTstop-control_1_5linestimulus0.png,TMTstop-control_1_5greenlinestimulus0.png,TMTstop-control_1_5redlinestimulus0.png,TMT_Control,5,103,,,,,,,,,,,,,,,,,,,,,,,,,0,0,0,0,0,2,2,2,,,,,,,,,,,,,,,,,,,,,,,5,0,117.18269990000408,145.9570346000255,None,"['3', '1', '2', '3', '1']",1,"[0.09045120002701879, 0.3878186000220012, 0.40406000000075437, 0.5928138000017498, 1.1834054000210017]",145.9570346000255,None,,001,2022_May_11_1050,TMT_fmri,2021.2.3,59.917948361028124,
TMTstop-Control_1_5.xlsx,104:130,4,['3'],3,TMTstop-control_1_5linestimulus1.png,TMTstop-control_1_5greenlinestimulus1.png,TMTstop-control_1_5redlinestimulus1.png,TMT_Control,5,104,,,,,,,,,,,,,,,,,,,,,,,,,0,0,0,0,0,3,3,3,,,,,,,,,,,,,,,,,,,,,,,1,1,117.48372040002141,147.22225620000972,None,['3'],1,[0.2481827000156045],147.22225620000972,None,,001,2022_May_11_1050,TMT_fmri,2021.2.3,59.917948361028124,
TMTstop-Control_1_5.xlsx,104:130,5,['1'],1,TMTstop-control_1_5linestimulus2.png,TMTstop-control_1_5greenlinestimulus2.png,TMTstop-control_1_5redlinestimulus2.png,TMT_Control,5,105,,,,,,,,,,,,,,,,,,,,,,,,,0,0,0,0,0,4,4,4,,,,,,,,,,,,,,,,,,,,,,,1,1,117.6905878999969,147.53037360002054,None,['1'],1,[0.13737979999859817],147.53037360002054,None,,001,2022_May_11_1050,TMT_fmri,2021.2.3,59.917948361028124,
TMTstop-Control_1_5.xlsx,104:130,6,['2'],2,TMTstop-control_1_5linestimulus3.png,TMTstop-control_1_5greenlinestimulus3.png,TMTstop-control_1_5redlinestimulus3.png,TMT_Control,5,106,,,,,,,,,,,,,,,,,,,,,,,,,0,0,0,0,0,5,5,5,,,,,,,,,,,,,,,,,,,,,,,1,1,117.79872160000377,147.7377858000109,None,['2'],1,[0.05010500000207685],147.7377858000109,None,,001,2022_May_11_1050,TMT_fmri,2021.2.3,59.917948361028124,
TMTstop-Control_1_5.xlsx,104:130,7,['3'],3,TMTstop-control_1_5linestimulus4.png,TMTstop-control_1_5greenlinestimulus4.png,TMTstop-control_1_5redlinestimulus4.png,TMT_Control,5,107,,,,,,,,,,,,,,,,,,,,,,,,,0,0,0,0,0,6,6,6,,,,,,,,,,,,,,,,,,,,,,,1,1,117.9157318000216,147.83789490000345,None,['3'],1,[0.05860240000765771],147.83789490000345,None,,001,2022_May_11_1050,TMT_fmri,2021.2.3,59.917948361028124,
TMTstop-Control_1_5.xlsx,104:130,8,['2'],2,TMTstop-control_1_5linestimulus4.png,TMTstop-control_1_5greenlinestimulus5.png,TMTstop-control_1_5redlinestimulus5.png,TMT_Control,5,108,,,,,,,,,,,,,,,,,,,,,,,,,0,0,0,0,0,7,7,7,,,,,,,,,,,,,,,,,,,,,,,2,0,118.2139522000216,147.9629879000131,None,"['1', '2']",1,"[0.1484651000064332, 0.2047139999922365]",147.9629879000131,None,,001,2022_May_11_1050,TMT_fmri,2021.2.3,59.917948361028124,
TMTstop-Control_1_5.xlsx,104:130,9,['1'],1,TMTstop-control_1_5linestimulus6.png,TMTstop-control_1_5greenlinestimulus6.png,TMTstop-control_1_5redlinestimulus6.png,TMT_Control,5,109,,,,,,,,,,,,,,,,,,,,,,,,,0,0,0,0,0,8,8,8,,,,,,,,,,,,,,,,,,,,,,,2,0,118.47804840002209,148.25319000001764,None,"['3', '1']",1,"[0.04288229998201132, 0.20730819998425432]",148.25319000001764,None,,001,2022_May_11_1050,TMT_fmri,2021.2.3,59.917948361028124,
TMTstop-Control_1_5.xlsx,104:130,10,['2'],2,TMTstop-control_1_5linestimulus7.png,TMTstop-control_1_5greenlinestimulus7.png,TMTstop-control_1_5redlinestimulus7.png,TMT_Control,5,110,,,,,,,,,,,,,,,,,,,,,,,,,0,0,0,0,0,9,9,9,,,,,,,,,,,,,,,,,,,,,,,1,1,118.54404140001861,148.5163906000089,None,['2'],1,[0.004275599989341572],148.5163906000089,None,,001,2022_May_11_1050,TMT_fmri,2021.2.3,59.917948361028124,
