Block_paper,Condition_rows,NumberLetter,corrAns,Correct,StimFile,Correct_StimFile,False_StimFile,Version,Paper,TrialNumber_Version,Round,Block,Blocks_Control1.thisRepN,Blocks_Control1.thisTrialN,Blocks_Control1.thisN,Blocks_Control1.thisIndex,trials_Control1.thisRepN,trials_Control1.thisTrialN,trials_Control1.thisN,trials_Control1.thisIndex,Blocks_TMTA1.thisRepN,Blocks_TMTA1.thisTrialN,Blocks_TMTA1.thisN,Blocks_TMTA1.thisIndex,trials_TMTA1.thisRepN,trials_TMTA1.thisTrialN,trials_TMTA1.thisN,trials_TMTA1.thisIndex,key_resp_7.keys,key_resp_7.rt,key_resp_7.started,key_resp_7.stopped,polygon_2.started,polygon_2.stopped,text_2.started,text_2.stopped,Attempts,First_attempt,ResponseClock,Stim.started,Stim.stopped,key_resp_2.keys,key_resp_2.corr,key_resp_2.rt,key_resp_2.started,key_resp_2.stopped,participant,session,date,expName,psychopyVersion,frameRate,
,,,,,,,,,,,,,,,,,,,,,,,,,,,,,s,2.088590200059116,10.708166200201958,None,,,,,,,,,,,,,,,,001,2022_Dec_12_1607,TMT_fmri,2021.2.3,59.92182596261079,
C1,0:26,1,['2'],2,Images/TMTstop-control_1_1.png,Images/TMTstop-control_1_1.png,Images/TMTstop-control_1_1.png,TMT_Control,C1,1,1,1,0,0,0,0,0,0,0,0,,,,,,,,,,,,,10.708166200201958,None,26.330904100090265,None,2,0,8.5238282000646,33.68821520032361,None,"['1', '2']",1,"[0.982377499807626, 1.1161035997793078]",33.68821520032361,None,,001,2022_Dec_12_1607,TMT_fmri,2021.2.3,59.92182596261079,
C1,0:26,2,['1'],1,Images/TMTstop-control_1_1.png,Images/TMTstop-control_1_1firstgreen.png,Images/TMTstop-control_1_1firstred.png,TMT_Control,C1,2,None,1,0,0,0,0,0,1,1,1,,,,,,,,,,,,,,,,,2,0,8.780978300143033,34.89523570006713,None,"['3', '1']",1,"[-0.012531100306659937, 0.16346359997987747]",34.89523570006713,None,,001,2022_Dec_12_1607,TMT_fmri,2021.2.3,59.92182596261079,
C1,0:26,3,['3'],3,Images/TMTstop-control_1_1linestimulus0.png,Images/TMTstop-control_1_1greenlinestimulus0.png,Images/TMTstop-control_1_1redlinestimulus0.png,TMT_Control,C1,3,None,1,0,0,0,0,0,2,2,2,,,,,,,,,,,,,,,,,2,0,8.880847699940205,35.14502770034596,None,"['2', '3']",1,"[-0.03203570004552603, 0.050204300321638584]",35.14502770034596,None,,001,2022_Dec_12_1607,TMT_fmri,2021.2.3,59.92182596261079,
C1,0:26,4,['1'],1,Images/TMTstop-control_1_1linestimulus1.png,Images/TMTstop-control_1_1greenlinestimulus1.png,Images/TMTstop-control_1_1redlinestimulus1.png,TMT_Control,C1,4,None,1,0,0,0,0,0,3,3,3,,,,,,,,,,,,,,,,,3,0,9.36185280000791,35.24583230027929,None,"['2', '3', '1']",1,"[0.11509430035948753, 0.24337820010259748, 0.4071035999804735]",35.24583230027929,None,,001,2022_Dec_12_1607,TMT_fmri,2021.2.3,59.92182596261079,
C1,0:26,5,['3'],3,Images/TMTstop-control_1_1linestimulus2.png,Images/TMTstop-control_1_1greenlinestimulus2.png,Images/TMTstop-control_1_1redlinestimulus2.png,TMT_Control,C1,5,None,1,0,0,0,0,0,4,4,4,,,,,,,,,,,,,,,,,2,0,9.55894220015034,35.742557200137526,None,"['2', '3']",1,"[-0.012120999861508608, 0.07001330005005002]",35.742557200137526,None,,001,2022_Dec_12_1607,TMT_fmri,2021.2.3,59.92182596261079,
C1,0:26,6,['1'],1,Images/TMTstop-control_1_1linestimulus3.png,Images/TMTstop-control_1_1greenlinestimulus3.png,Images/TMTstop-control_1_1redlinestimulus3.png,TMT_Control,C1,6,None,1,0,0,0,0,0,5,5,5,,,,,,,,,,,,,,,,,1,1,9.647883899975568,35.927512700203806,None,['1'],1,[0.02291129995137453],35.927512700203806,None,,001,2022_Dec_12_1607,TMT_fmri,2021.2.3,59.92182596261079,
C1,0:26,7,['2'],2,Images/TMTstop-control_1_1linestimulus4.png,Images/TMTstop-control_1_1greenlinestimulus4.png,Images/TMTstop-control_1_1redlinestimulus4.png,TMT_Control,C1,7,None,1,0,0,0,0,0,6,6,6,,,,,,,,,,,,,,,,,1,1,9.704905800055712,36.01883580023423,None,['2'],1,[-0.0022770999930799007],36.01883580023423,None,,001,2022_Dec_12_1607,TMT_fmri,2021.2.3,59.92182596261079,
C1,0:26,8,['1'],1,Images/TMTstop-control_1_1linestimulus4.png,Images/TMTstop-control_1_1greenlinestimulus5.png,Images/TMTstop-control_1_1redlinestimulus5.png,TMT_Control,C1,8,None,1,0,0,0,0,0,7,7,7,,,,,,,,,,,,,,,,,2,0,9.923855300061405,36.085190600249916,None,"['3', '1']",1,"[-0.003829600289463997, 0.14555040001869202]",36.085190600249916,None,,001,2022_Dec_12_1607,TMT_fmri,2021.2.3,59.92182596261079,
C1,0:26,9,['3'],3,Images/TMTstop-control_1_1linestimulus6.png,Images/TMTstop-control_1_1greenlinestimulus6.png,Images/TMTstop-control_1_1redlinestimulus6.png,TMT_Control,C1,9,None,1,0,0,0,0,0,8,8,8,,,,,,,,,,,,,,,,,2,0,10.078851900063455,36.28901239996776,None,"['2', '3']",1,"[-0.011395300272852182, 0.0715393996797502]",36.28901239996776,None,,001,2022_Dec_12_1607,TMT_fmri,2021.2.3,59.92182596261079,
C1,0:26,10,['2'],2,Images/TMTstop-control_1_1linestimulus7.png,Images/TMTstop-control_1_1greenlinestimulus7.png,Images/TMTstop-control_1_1redlinestimulus7.png,TMT_Control,C1,10,None,1,0,0,0,0,0,9,9,9,,,,,,,,,,,,,,,,,2,0,10.264811399858445,36.44507740018889,None,"['1', '2']",1,"[0.0785992001183331, 0.11759709985926747]",36.44507740018889,None,,001,2022_Dec_12_1607,TMT_fmri,2021.2.3,59.92182596261079,
C1,0:26,11,['1'],1,Images/TMTstop-control_1_1linestimulus8.png,Images/TMTstop-control_1_1greenlinestimulus8.png,Images/TMTstop-control_1_1redlinestimulus8.png,TMT_Control,C1,11,None,1,0,0,0,0,0,10,10,10,,,,,,,,,,,,,,,,,2,0,10.493852000217885,36.62902670027688,None,"['3', '1']",1,"[0.014659400098025799, 0.17385210003703833]",36.62902670027688,None,,001,2022_Dec_12_1607,TMT_fmri,2021.2.3,59.92182596261079,
C1,0:26,12,['2'],2,Images/TMTstop-control_1_1linestimulus9.png,Images/TMTstop-control_1_1greenlinestimulus9.png,Images/TMTstop-control_1_1redlinestimulus9.png,TMT_Control,C1,12,None,1,0,0,0,0,0,11,11,11,,,,,,,,,,,,,,,,,1,1,10.543810700066388,36.85820210026577,None,['2'],1,[-0.012440099846571684],36.85820210026577,None,,001,2022_Dec_12_1607,TMT_fmri,2021.2.3,59.92182596261079,
C1,0:26,13,['3'],3,Images/TMTstop-control_1_1linestimulus10.png,Images/TMTstop-control_1_1greenlinestimulus10.png,Images/TMTstop-control_1_1redlinestimulus10.png,TMT_Control,C1,13,None,1,0,0,0,0,0,12,12,12,,,,,,,,,,,,,,,,,1,1,10.64387089991942,36.90821300027892,None,['3'],1,[0.029025400057435036],36.90821300027892,None,,001,2022_Dec_12_1607,TMT_fmri,2021.2.3,59.92182596261079,
C1,0:26,14,['2'],2,Images/TMTstop-control_1_1linestimulus11.png,Images/TMTstop-control_1_1greenlinestimulus11.png,Images/TMTstop-control_1_1redlinestimulus11.png,TMT_Control,C1,14,None,1,0,0,0,0,0,13,13,13,,,,,,,,,,,,,,,,,2,0,10.843859900254756,37.00836999993771,None,"['1', '2']",1,"[0.08707220014184713, 0.12751389993354678]",37.00836999993771,None,,001,2022_Dec_12_1607,TMT_fmri,2021.2.3,59.92182596261079,
C1,0:26,15,['3'],3,Images/TMTstop-control_1_1linestimulus12.png,Images/TMTstop-control_1_1greenlinestimulus12.png,Images/TMTstop-control_1_1redlinestimulus12.png,TMT_Control,C1,15,None,1,0,0,0,0,0,14,14,14,,,,,,,,,,,,,,,,,1,1,10.926897500175983,37.208580600097775,None,['3'],1,[0.011506199836730957],37.208580600097775,None,,001,2022_Dec_12_1607,TMT_fmri,2021.2.3,59.92182596261079,
C1,0:26,16,['2'],2,Images/TMTstop-control_1_1linestimulus13.png,Images/TMTstop-control_1_1greenlinestimulus13.png,Images/TMTstop-control_1_1redlinestimulus13.png,TMT_Control,C1,16,None,1,0,0,0,0,0,15,15,15,,,,,,,,,,,,,,,,,2,0,11.12684979988262,37.2915795003064,None,"['1', '2']",1,"[0.09591990010812879, 0.12532499991357327]",37.2915795003064,None,,001,2022_Dec_12_1607,TMT_fmri,2021.2.3,59.92182596261079,
C1,0:26,17,['3'],3,Images/TMTstop-control_1_1linestimulus14.png,Images/TMTstop-control_1_1greenlinestimulus14.png,Images/TMTstop-control_1_1redlinestimulus14.png,TMT_Control,C1,17,None,1,0,0,0,0,0,16,16,16,,,,,,,,,,,,,,,,,1,1,11.21084630023688,37.49225760018453,None,['3'],1,[0.013227600138634443],37.49225760018453,None,,001,2022_Dec_12_1607,TMT_fmri,2021.2.3,59.92182596261079,
C1,0:26,18,['2'],2,Images/TMTstop-control_1_1linestimulus15.png,Images/TMTstop-control_1_1greenlinestimulus15.png,Images/TMTstop-control_1_1redlinestimulus15.png,TMT_Control,C1,18,None,1,0,0,0,0,0,17,17,17,,,,,,,,,,,,,,,,,2,0,11.42784810019657,37.57569980015978,None,"['1', '2']",1,"[0.10593389999121428, 0.15823940001428127]",37.57569980015978,None,,001,2022_Dec_12_1607,TMT_fmri,2021.2.3,59.92182596261079,
C1,0:26,19,['1'],1,Images/TMTstop-control_1_1linestimulus16.png,Images/TMTstop-control_1_1greenlinestimulus16.png,Images/TMTstop-control_1_1redlinestimulus16.png,TMT_Control,C1,19,None,1,0,0,0,0,0,18,18,18,,,,,,,,,,,,,,,,,2,0,11.690850399900228,37.79261390026659,None,"['3', '1']",1,"[0.035846800077706575, 0.2102952003479004]",37.79261390026659,None,,001,2022_Dec_12_1607,TMT_fmri,2021.2.3,59.92182596261079,
C1,0:26,20,['3'],3,Images/TMTstop-control_1_1linestimulus17.png,Images/TMTstop-control_1_1greenlinestimulus17.png,Images/TMTstop-control_1_1redlinestimulus17.png,TMT_Control,C1,20,None,1,0,0,0,0,0,19,19,19,,,,,,,,,,,,,,,,,2,0,11.84182080021128,38.05571100022644,None,"['2', '3']",1,"[-0.00692019984126091, 0.08317859983071685]",38.05571100022644,None,,001,2022_Dec_12_1607,TMT_fmri,2021.2.3,59.92182596261079,
C1,0:26,21,['1'],1,Images/TMTstop-control_1_1linestimulus18.png,Images/TMTstop-control_1_1greenlinestimulus18.png,Images/TMTstop-control_1_1redlinestimulus18.png,TMT_Control,C1,21,None,1,0,0,0,0,0,20,20,20,,,,,,,,,,,,,,,,,1,1,12.009890499990433,38.20586120011285,None,['1'],1,[0.111950000282377],38.20586120011285,None,,001,2022_Dec_12_1607,TMT_fmri,2021.2.3,59.92182596261079,
C1,0:26,22,['2'],2,Images/TMTstop-control_1_1linestimulus19.png,Images/TMTstop-control_1_1greenlinestimulus19.png,Images/TMTstop-control_1_1redlinestimulus19.png,TMT_Control,C1,22,None,1,0,0,0,0,0,21,21,21,,,,,,,,,,,,,,,,,1,1,12.059816500172019,38.37384210014716,None,['2'],1,[-0.010141000151634216],38.37384210014716,None,,001,2022_Dec_12_1607,TMT_fmri,2021.2.3,59.92182596261079,
C1,0:26,23,['3'],3,Images/TMTstop-control_1_1linestimulus20.png,Images/TMTstop-control_1_1greenlinestimulus20.png,Images/TMTstop-control_1_1redlinestimulus20.png,TMT_Control,C1,23,None,1,0,0,0,0,0,22,22,22,,,,,,,,,,,,,,,,,1,1,12.114847599994391,38.42964200023562,None,['3'],1,[9.8399817943573e-05],38.42964200023562,None,,001,2022_Dec_12_1607,TMT_fmri,2021.2.3,59.92182596261079,
C1,0:26,24,['2'],2,Images/TMTstop-control_1_1linestimulus21.png,Images/TMTstop-control_1_1greenlinestimulus21.png,Images/TMTstop-control_1_1redlinestimulus21.png,TMT_Control,C1,24,None,1,0,0,0,0,0,23,23,23,,,,,,,,,,,,,,,,,2,0,12.36288549983874,38.48631320009008,None,"['1', '2']",1,"[0.12386430008336902, 0.17558389995247126]",38.48631320009008,None,,001,2022_Dec_12_1607,TMT_fmri,2021.2.3,59.92182596261079,
C1,0:26,25,['1'],1,Images/TMTstop-control_1_1linestimulus22.png,Images/TMTstop-control_1_1greenlinestimulus22.png,Images/TMTstop-control_1_1redlinestimulus22.png,TMT_Control,C1,25,None,1,0,0,0,0,0,24,24,24,,,,,,,,,,,,,,,,,2,0,12.76984339999035,38.72761519998312,None,"['3', '1']",1,"[-0.003786199726164341, 0.3503586002625525]",38.72761519998312,None,,001,2022_Dec_12_1607,TMT_fmri,2021.2.3,59.92182596261079,
C1,0:26,None,None,None,Images/TMTstop-control_1_1linestimulus23.png,Images/TMTstop-control_1_1greenlinestimulus23.png,Images/TMTstop-control_1_1redlinestimulus23.png,TMT_Control,C1,Feedback_last,None,1,0,0,0,0,0,25,25,25,,,,,,,,,,,,,,,,,0,0,,39.13444610033184,None,None,1,,39.13444610033184,None,,001,2022_Dec_12_1607,TMT_fmri,2021.2.3,59.92182596261079,
C2,26:52,1,['2'],2,Images/TMTstop-control_1_2.png,Images/TMTstop-control_1_2.png,Images/TMTstop-control_1_2.png,TMT_Control,C2,26,None,1,0,1,1,1,0,0,0,0,,,,,,,,,,,,,,,,,5,0,18.00507610011846,43.37894030008465,None,"['1', '2', '3', '1', '2']",1,"[0.5735120000317693, 0.6950727002695203, 0.7131790001876652, 0.8901348002254963, 0.9310777001082897]",43.37894030008465,None,,001,2022_Dec_12_1607,TMT_fmri,2021.2.3,59.92182596261079,
C2,26:52,2,['3'],3,Images/TMTstop-control_1_2.png,Images/TMTstop-control_1_2firstgreen.png,Images/TMTstop-control_1_2firstred.png,TMT_Control,C2,27,None,1,0,1,1,1,0,1,1,1,,,,,,,,,,,,,,,,,1,1,18.09816040005535,44.376549900043756,None,['3'],1,[0.025551399681717157],44.376549900043756,None,,001,2022_Dec_12_1607,TMT_fmri,2021.2.3,59.92182596261079,
C2,26:52,3,['2'],2,Images/TMTstop-control_1_2linestimulus0.png,Images/TMTstop-control_1_2greenlinestimulus0.png,Images/TMTstop-control_1_2redlinestimulus0.png,TMT_Control,C2,28,None,1,0,1,1,1,0,2,2,2,,,,,,,,,,,,,,,,,2,0,18.286121199838817,44.46657480020076,None,"['1', '2']",1,"[0.07720200018957257, 0.10127320000901818]",44.46657480020076,None,,001,2022_Dec_12_1607,TMT_fmri,2021.2.3,59.92182596261079,
C2,26:52,4,['3'],3,Images/TMTstop-control_1_2linestimulus1.png,Images/TMTstop-control_1_2greenlinestimulus1.png,Images/TMTstop-control_1_2redlinestimulus1.png,TMT_Control,C2,29,None,1,0,1,1,1,0,3,3,3,,,,,,,,,,,,,,,,,1,1,18.386128699872643,44.65014740033075,None,['3'],1,[0.036807000171393156],44.65014740033075,None,,001,2022_Dec_12_1607,TMT_fmri,2021.2.3,59.92182596261079,
C2,26:52,5,['2'],2,Images/TMTstop-control_1_2linestimulus2.png,Images/TMTstop-control_1_2greenlinestimulus2.png,Images/TMTstop-control_1_2redlinestimulus2.png,TMT_Control,C2,30,None,1,0,1,1,1,0,4,4,4,,,,,,,,,,,,,,,,,2,0,18.602107299957424,44.75030510034412,None,"['1', '2']",1,"[0.10560939973220229, 0.13166739977896214]",44.75030510034412,None,,001,2022_Dec_12_1607,TMT_fmri,2021.2.3,59.92182596261079,
C2,26:52,6,['3'],3,Images/TMTstop-control_1_2linestimulus3.png,Images/TMTstop-control_1_2greenlinestimulus3.png,Images/TMTstop-control_1_2redlinestimulus3.png,TMT_Control,C2,31,None,1,0,1,1,1,0,5,5,5,,,,,,,,,,,,,,,,,1,1,18.703162800054997,44.96662580035627,None,['3'],1,[0.0430999998934567],44.96662580035627,None,,001,2022_Dec_12_1607,TMT_fmri,2021.2.3,59.92182596261079,
C2,26:52,7,['2'],2,Images/TMTstop-control_1_2linestimulus4.png,Images/TMTstop-control_1_2greenlinestimulus4.png,Images/TMTstop-control_1_2redlinestimulus4.png,TMT_Control,C2,32,None,1,0,1,1,1,0,6,6,6,,,,,,,,,,,,,,,,,2,0,18.920077099930495,45.06687270011753,None,"['1', '2']",1,"[0.11128140008077025, 0.1347733000293374]",45.06687270011753,None,,001,2022_Dec_12_1607,TMT_fmri,2021.2.3,59.92182596261079,
C2,26:52,8,['1'],1,Images/TMTstop-control_1_2linestimulus4.png,Images/TMTstop-control_1_2greenlinestimulus5.png,Images/TMTstop-control_1_2redlinestimulus5.png,TMT_Control,C2,33,None,1,0,1,1,1,0,7,7,7,,,,,,,,,,,,,,,,,2,0,19.2841030000709,45.28459360031411,None,"['3', '1']",1,"[0.09835580037906766, 0.3000084003433585]",45.28459360031411,None,,001,2022_Dec_12_1607,TMT_fmri,2021.2.3,59.92182596261079,
C2,26:52,9,['3'],3,Images/TMTstop-control_1_2linestimulus6.png,Images/TMTstop-control_1_2greenlinestimulus6.png,Images/TMTstop-control_1_2redlinestimulus6.png,TMT_Control,C2,34,None,1,0,1,1,1,0,8,8,8,,,,,,,,,,,,,,,,,2,0,19.457181700039655,45.6483537000604,None,"['2', '3']",1,"[0.013745100237429142, 0.10676900018006563]",45.6483537000604,None,,001,2022_Dec_12_1607,TMT_fmri,2021.2.3,59.92182596261079,
C2,26:52,10,['2'],2,Images/TMTstop-control_1_2linestimulus7.png,Images/TMTstop-control_1_2greenlinestimulus7.png,Images/TMTstop-control_1_2redlinestimulus7.png,TMT_Control,C2,35,None,1,0,1,1,1,0,9,9,9,,,,,,,,,,,,,,,,,2,0,19.674154799897224,45.83877840032801,None,"['1', '2']",1,"[0.08740040007978678, 0.12114829989150167]",45.83877840032801,None,,001,2022_Dec_12_1607,TMT_fmri,2021.2.3,59.92182596261079,
C2,26:52,11,['3'],3,Images/TMTstop-control_1_2linestimulus8.png,Images/TMTstop-control_1_2greenlinestimulus8.png,Images/TMTstop-control_1_2redlinestimulus8.png,TMT_Control,C2,36,None,1,0,1,1,1,0,10,10,10,,,,,,,,,,,,,,,,,1,1,19.762148700188845,46.04281080001965,None,['3'],1,[0.011033500079065561],46.04281080001965,None,,001,2022_Dec_12_1607,TMT_fmri,2021.2.3,59.92182596261079,
C2,26:52,12,['2'],2,Images/TMTstop-control_1_2linestimulus9.png,Images/TMTstop-control_1_2greenlinestimulus9.png,Images/TMTstop-control_1_2redlinestimulus9.png,TMT_Control,C2,37,None,1,0,1,1,1,0,11,11,11,,,,,,,,,,,,,,,,,2,0,19.945067999884486,46.12562910001725,None,"['1', '2']",1,"[0.08312750002369285, 0.10402760002762079]",46.12562910001725,None,,001,2022_Dec_12_1607,TMT_fmri,2021.2.3,59.92182596261079,
C2,26:52,13,['3'],3,Images/TMTstop-control_1_2linestimulus10.png,Images/TMTstop-control_1_2greenlinestimulus10.png,Images/TMTstop-control_1_2redlinestimulus10.png,TMT_Control,C2,38,None,1,0,1,1,1,0,12,12,12,,,,,,,,,,,,,,,,,1,1,20.085126399993896,46.31589510012418,None,['3'],1,[0.07066049985587597],46.31589510012418,None,,001,2022_Dec_12_1607,TMT_fmri,2021.2.3,59.92182596261079,
C2,26:52,14,['2'],2,Images/TMTstop-control_1_2linestimulus11.png,Images/TMTstop-control_1_2greenlinestimulus11.png,Images/TMTstop-control_1_2redlinestimulus11.png,TMT_Control,C2,39,None,1,0,1,1,1,0,13,13,13,,,,,,,,,,,,,,,,,2,0,20.235104099847376,46.44878670014441,None,"['1', '2']",1,"[0.05193640012294054, 0.07004440017044544]",46.44878670014441,None,,001,2022_Dec_12_1607,TMT_fmri,2021.2.3,59.92182596261079,
C2,26:52,15,['3'],3,Images/TMTstop-control_1_2linestimulus12.png,Images/TMTstop-control_1_2greenlinestimulus12.png,Images/TMTstop-control_1_2redlinestimulus12.png,TMT_Control,C2,40,None,1,0,1,1,1,0,14,14,14,,,,,,,,,,,,,,,,,1,1,20.342099899891764,46.60576890036464,None,['3'],1,[0.050404499750584364],46.60576890036464,None,,001,2022_Dec_12_1607,TMT_fmri,2021.2.3,59.92182596261079,
C2,26:52,16,['1'],1,Images/TMTstop-control_1_2linestimulus13.png,Images/TMTstop-control_1_2greenlinestimulus13.png,Images/TMTstop-control_1_2redlinestimulus13.png,TMT_Control,C2,41,None,1,0,1,1,1,0,15,15,15,,,,,,,,,,,,,,,,,1,1,20.508115500211716,46.706078400369734,None,['1'],1,[0.11142290011048317],46.706078400369734,None,,001,2022_Dec_12_1607,TMT_fmri,2021.2.3,59.92182596261079,
C2,26:52,17,['2'],2,Images/TMTstop-control_1_2linestimulus14.png,Images/TMTstop-control_1_2greenlinestimulus14.png,Images/TMTstop-control_1_2redlinestimulus14.png,TMT_Control,C2,42,None,1,0,1,1,1,0,16,16,16,,,,,,,,,,,,,,,,,1,1,20.55810180027038,46.873042500112206,None,['2'],1,[-0.019248099997639656],46.873042500112206,None,,001,2022_Dec_12_1607,TMT_fmri,2021.2.3,59.92182596261079,
C2,26:52,18,['1'],1,Images/TMTstop-control_1_2linestimulus15.png,Images/TMTstop-control_1_2greenlinestimulus15.png,Images/TMTstop-control_1_2redlinestimulus15.png,TMT_Control,C2,43,None,1,0,1,1,1,0,17,17,17,,,,,,,,,,,,,,,,,2,0,20.82263009995222,46.92319080000743,None,"['3', '1']",1,"[0.04082649992778897, 0.20820230012759566]",46.92319080000743,None,,001,2022_Dec_12_1607,TMT_fmri,2021.2.3,59.92182596261079,
C2,26:52,19,['2'],2,Images/TMTstop-control_1_2linestimulus16.png,Images/TMTstop-control_1_2greenlinestimulus16.png,Images/TMTstop-control_1_2redlinestimulus16.png,TMT_Control,C2,44,None,1,0,1,1,1,0,18,18,18,,,,,,,,,,,,,,,,,1,1,20.87158520007506,47.1865205001086,None,['2'],1,[-0.015704399906098843],47.1865205001086,None,,001,2022_Dec_12_1607,TMT_fmri,2021.2.3,59.92182596261079,
C2,26:52,20,['3'],3,Images/TMTstop-control_1_2linestimulus17.png,Images/TMTstop-control_1_2greenlinestimulus17.png,Images/TMTstop-control_1_2redlinestimulus17.png,TMT_Control,C2,45,None,1,0,1,1,1,0,19,19,19,,,,,,,,,,,,,,,,,1,1,20.973615900147706,47.23809530027211,None,['3'],1,[0.049632399808615446],47.23809530027211,None,,001,2022_Dec_12_1607,TMT_fmri,2021.2.3,59.92182596261079,
C2,26:52,21,['1'],1,Images/TMTstop-control_1_2linestimulus18.png,Images/TMTstop-control_1_2greenlinestimulus18.png,Images/TMTstop-control_1_2redlinestimulus18.png,TMT_Control,C2,46,None,1,0,1,1,1,0,20,20,20,,,,,,,,,,,,,,,,,1,1,21.14061690028757,47.338171400129795,None,['1'],1,[0.116746099665761],47.338171400129795,None,,001,2022_Dec_12_1607,TMT_fmri,2021.2.3,59.92182596261079,
C2,26:52,22,['3'],3,Images/TMTstop-control_1_2linestimulus19.png,Images/TMTstop-control_1_2greenlinestimulus19.png,Images/TMTstop-control_1_2redlinestimulus19.png,TMT_Control,C2,47,None,1,0,1,1,1,0,21,21,21,,,,,,,,,,,,,,,,,2,0,21.29670870024711,47.504784600343555,None,"['2', '3']",1,"[-0.02636840008199215, 0.09726719977334142]",47.504784600343555,None,,001,2022_Dec_12_1607,TMT_fmri,2021.2.3,59.92182596261079,
C2,26:52,23,['2'],2,Images/TMTstop-control_1_2linestimulus20.png,Images/TMTstop-control_1_2greenlinestimulus20.png,Images/TMTstop-control_1_2redlinestimulus20.png,TMT_Control,C2,48,None,1,0,1,1,1,0,22,22,22,,,,,,,,,,,,,,,,,2,0,21.485584700014442,47.6671919003129,None,"['1', '2']",1,"[0.08164490014314651, 0.10863929986953735]",47.6671919003129,None,,001,2022_Dec_12_1607,TMT_fmri,2021.2.3,59.92182596261079,
C2,26:52,24,['3'],3,Images/TMTstop-control_1_2linestimulus21.png,Images/TMTstop-control_1_2greenlinestimulus21.png,Images/TMTstop-control_1_2redlinestimulus21.png,TMT_Control,C2,49,None,1,0,1,1,1,0,23,23,23,,,,,,,,,,,,,,,,,1,1,21.59464710019529,47.856528100091964,None,['3'],1,[0.04639390017837286],47.856528100091964,None,,001,2022_Dec_12_1607,TMT_fmri,2021.2.3,59.92182596261079,
C2,26:52,25,['1'],1,Images/TMTstop-control_1_2linestimulus22.png,Images/TMTstop-control_1_2greenlinestimulus22.png,Images/TMTstop-control_1_2redlinestimulus22.png,TMT_Control,C2,50,None,1,0,1,1,1,0,24,24,24,,,,,,,,,,,,,,,,,1,1,21.735686200205237,47.965951800346375,None,['1'],1,[0.0757878003641963],47.965951800346375,None,,001,2022_Dec_12_1607,TMT_fmri,2021.2.3,59.92182596261079,
C2,26:52,None,None,None,Images/TMTstop-control_1_2linestimulus23.png,Images/TMTstop-control_1_2greenlinestimulus23.png,Images/TMTstop-control_1_2redlinestimulus23.png,TMT_Control,C2,Feedback_last,None,1,0,1,1,1,0,25,25,25,,,,,,,,,,,,,,,,,0,0,,48.10031779995188,None,None,1,,48.10031779995188,None,,001,2022_Dec_12_1607,TMT_fmri,2021.2.3,59.92182596261079,
A1,208:234,1,['1'],1,Images/TMTstop-A_1_1.png,Images/TMTstop-A_1_1.png,Images/TMTstop-A_1_1.png,TMT_A,A1,1,1,2,,,,,,,,,0,0,0,0,0,0,0,0,,,,,,,,,1,1,59.1832834999077,84.07915730029345,None,['1'],1,[1.4070493998005986],84.07915730029345,None,,001,2022_Dec_12_1607,TMT_fmri,2021.2.3,59.92182596261079,
A1,208:234,2,['3'],3,Images/TMTstop-A_1_1.png,Images/TMTstop-A_1_1firstgreen.png,Images/TMTstop-A_1_1firstred.png,TMT_A,A1,2,None,2,,,,,,,,,0,0,0,0,0,1,1,1,,,,,,,,,2,0,59.381177000235766,85.55496630026028,None,"['2', '3']",1,"[0.07428390020504594, 0.10192180005833507]",85.55496630026028,None,,001,2022_Dec_12_1607,TMT_fmri,2021.2.3,59.92182596261079,
A1,208:234,3,['1'],1,Images/TMTstop-A_1_1linestimulus0.png,Images/TMTstop-A_1_1greenlinestimulus0.png,Images/TMTstop-A_1_1redlinestimulus0.png,TMT_A,A1,3,None,2,,,,,,,,,0,0,0,0,0,2,2,2,,,,,,,,,1,1,59.532156200148165,85.74645789992064,None,['1'],1,[0.08665599999949336],85.74645789992064,None,,001,2022_Dec_12_1607,TMT_fmri,2021.2.3,59.92182596261079,
A1,208:234,4,['3'],3,Images/TMTstop-A_1_1linestimulus1.png,Images/TMTstop-A_1_1greenlinestimulus1.png,Images/TMTstop-A_1_1redlinestimulus1.png,TMT_A,A1,4,None,2,,,,,,,,,0,0,0,0,0,3,3,3,,,,,,,,,2,0,59.698121999856085,85.9129258999601,None,"['2', '3']",1,"[-0.01771249994635582, 0.0730794002301991]",85.9129258999601,None,,001,2022_Dec_12_1607,TMT_fmri,2021.2.3,59.92182596261079,
A1,208:234,5,['1'],1,Images/TMTstop-A_1_1linestimulus2.png,Images/TMTstop-A_1_1greenlinestimulus2.png,Images/TMTstop-A_1_1redlinestimulus2.png,TMT_A,A1,5,None,2,,,,,,,,,0,0,0,0,0,4,4,4,,,,,,,,,1,1,59.832312600221485,86.06348360003904,None,['1'],1,[0.07511430000886321],86.06348360003904,None,,001,2022_Dec_12_1607,TMT_fmri,2021.2.3,59.92182596261079,
A1,208:234,6,['3'],3,Images/TMTstop-A_1_1linestimulus3.png,Images/TMTstop-A_1_1greenlinestimulus3.png,Images/TMTstop-A_1_1redlinestimulus3.png,TMT_A,A1,6,None,2,,,,,,,,,0,0,0,0,0,5,5,5,,,,,,,,,2,0,59.9931461000815,86.19637570017949,None,"['2', '3']",1,"[-0.02155750012025237, 0.0938197998329997]",86.19637570017949,None,,001,2022_Dec_12_1607,TMT_fmri,2021.2.3,59.92182596261079,
A1,208:234,7,['1'],1,Images/TMTstop-A_1_1linestimulus4.png,Images/TMTstop-A_1_1greenlinestimulus4.png,Images/TMTstop-A_1_1redlinestimulus4.png,TMT_A,A1,7,None,2,,,,,,,,,0,0,0,0,0,6,6,6,,,,,,,,,4,0,60.584128899965435,86.37442870019004,None,"['1', '2', '3', '1']",1,"[0.10192589974030852, 0.11529990006238222, 0.31403939984738827, 0.47996339993551373]",86.37442870019004,None,,001,2022_Dec_12_1607,TMT_fmri,2021.2.3,59.92182596261079,
A1,208:234,8,['2'],2,Images/TMTstop-A_1_1linestimulus5.png,Images/TMTstop-A_1_1greenlinestimulus5.png,Images/TMTstop-A_1_1redlinestimulus5.png,TMT_A,A1,8,None,2,,,,,,,,,0,0,0,0,0,7,7,7,,,,,,,,,1,1,60.65111109986901,86.96558360010386,None,['2'],1,[-0.05794030008837581],86.96558360010386,None,,001,2022_Dec_12_1607,TMT_fmri,2021.2.3,59.92182596261079,
A1,208:234,9,['3'],3,Images/TMTstop-A_1_1linestimulus6.png,Images/TMTstop-A_1_1greenlinestimulus6.png,Images/TMTstop-A_1_1redlinestimulus6.png,TMT_A,A1,9,None,2,,,,,,,,,0,0,0,0,0,8,8,8,,,,,,,,,1,1,60.70314980018884,87.01767480000854,None,['3'],1,[-0.0011599999852478504],87.01767480000854,None,,001,2022_Dec_12_1607,TMT_fmri,2021.2.3,59.92182596261079,
A1,208:234,10,['1'],1,Images/TMTstop-A_1_1linestimulus7.png,Images/TMTstop-A_1_1greenlinestimulus7.png,Images/TMTstop-A_1_1redlinestimulus7.png,TMT_A,A1,10,None,2,,,,,,,,,0,0,0,0,0,9,9,9,,,,,,,,,1,1,60.85828129993752,87.07210480002686,None,['1'],1,[0.09380099968984723],87.07210480002686,None,,001,2022_Dec_12_1607,TMT_fmri,2021.2.3,59.92182596261079,
A1,208:234,11,['3'],3,Images/TMTstop-A_1_1linestimulus8.png,Images/TMTstop-A_1_1greenlinestimulus8.png,Images/TMTstop-A_1_1redlinestimulus8.png,TMT_A,A1,11,None,2,,,,,,,,,0,0,0,0,0,10,10,10,,,,,,,,,2,0,61.01519740000367,87.22253220016137,None,"['2', '3']",1,"[-0.01952490024268627, 0.10229439986869693]",87.22253220016137,None,,001,2022_Dec_12_1607,TMT_fmri,2021.2.3,59.92182596261079,
A1,208:234,12,['2'],2,Images/TMTstop-A_1_1linestimulus9.png,Images/TMTstop-A_1_1greenlinestimulus9.png,Images/TMTstop-A_1_1redlinestimulus9.png,TMT_A,A1,12,None,2,,,,,,,,,0,0,0,0,0,11,11,11,,,,,,,,,2,0,61.23217310011387,87.39634920004755,None,"['1', '2']",1,"[0.09439609991386533, 0.14928900031372905]",87.39634920004755,None,,001,2022_Dec_12_1607,TMT_fmri,2021.2.3,59.92182596261079,
A1,208:234,13,['1'],1,Images/TMTstop-A_1_1linestimulus10.png,Images/TMTstop-A_1_1greenlinestimulus10.png,Images/TMTstop-A_1_1redlinestimulus10.png,TMT_A,A1,13,None,2,,,,,,,,,0,0,0,0,0,12,12,12,,,,,,,,,2,0,61.515163899865,87.60080939996988,None,"['3', '1']",1,"[0.056162099819630384, 0.2201527999714017]",87.60080939996988,None,,001,2022_Dec_12_1607,TMT_fmri,2021.2.3,59.92182596261079,
A1,208:234,14,['2'],2,Images/TMTstop-A_1_1linestimulus11.png,Images/TMTstop-A_1_1greenlinestimulus11.png,Images/TMTstop-A_1_1redlinestimulus11.png,TMT_A,A1,14,None,2,,,,,,,,,0,0,0,0,0,13,13,13,,,,,,,,,1,1,61.58210420003161,87.89661470009014,None,['2'],1,[-0.03674939973279834],87.89661470009014,None,,001,2022_Dec_12_1607,TMT_fmri,2021.2.3,59.92182596261079,
A1,208:234,15,['1'],1,Images/TMTstop-A_1_1linestimulus12.png,Images/TMTstop-A_1_1greenlinestimulus12.png,Images/TMTstop-A_1_1redlinestimulus12.png,TMT_A,A1,15,None,2,,,,,,,,,0,0,0,0,0,14,14,14,,,,,,,,,2,0,61.86814589984715,87.94651800021529,None,"['3', '1']",1,"[0.02639500005170703, 0.19210109999403358]",87.94651800021529,None,,001,2022_Dec_12_1607,TMT_fmri,2021.2.3,59.92182596261079,
A1,208:234,16,['2'],2,Images/TMTstop-A_1_1linestimulus13.png,Images/TMTstop-A_1_1greenlinestimulus13.png,Images/TMTstop-A_1_1redlinestimulus13.png,TMT_A,A1,16,None,2,,,,,,,,,0,0,0,0,0,15,15,15,,,,,,,,,1,1,61.9171372000128,88.23164430027828,None,['2'],1,[-0.03759190021082759],88.23164430027828,None,,001,2022_Dec_12_1607,TMT_fmri,2021.2.3,59.92182596261079,
A1,208:234,17,['1'],1,Images/TMTstop-A_1_1linestimulus14.png,Images/TMTstop-A_1_1greenlinestimulus14.png,Images/TMTstop-A_1_1redlinestimulus14.png,TMT_A,A1,17,None,2,,,,,,,,,0,0,0,0,0,16,16,16,,,,,,,,,2,0,62.18323120009154,88.28417730005458,None,"['3', '1']",1,"[0.008906399831175804, 0.19656400009989738]",88.28417730005458,None,,001,2022_Dec_12_1607,TMT_fmri,2021.2.3,59.92182596261079,
A1,208:234,18,['3'],3,Images/TMTstop-A_1_1linestimulus15.png,Images/TMTstop-A_1_1greenlinestimulus15.png,Images/TMTstop-A_1_1redlinestimulus15.png,TMT_A,A1,18,None,2,,,,,,,,,0,0,0,0,0,17,17,17,,,,,,,,,2,0,62.325153099838644,88.57284429995343,None,"['2', '3']",1,"[-0.05737629998475313, 0.03664160007610917]",88.57284429995343,None,,001,2022_Dec_12_1607,TMT_fmri,2021.2.3,59.92182596261079,
A1,208:234,19,['2'],2,Images/TMTstop-A_1_1linestimulus16.png,Images/TMTstop-A_1_1greenlinestimulus16.png,Images/TMTstop-A_1_1redlinestimulus16.png,TMT_A,A1,19,None,2,,,,,,,,,0,0,0,0,0,18,18,18,,,,,,,,,2,0,62.54514469997957,88.70612430013716,None,"['1', '2']",1,"[0.07590650022029877, 0.14235799992457032]",88.70612430013716,None,,001,2022_Dec_12_1607,TMT_fmri,2021.2.3,59.92182596261079,
A1,208:234,20,['3'],3,Images/TMTstop-A_1_1linestimulus17.png,Images/TMTstop-A_1_1greenlinestimulus17.png,Images/TMTstop-A_1_1redlinestimulus17.png,TMT_A,A1,20,None,2,,,,,,,,,0,0,0,0,0,19,19,19,,,,,,,,,1,1,62.644717200193554,88.9094626000151,None,['3'],1,[0.035718200262635946],88.9094626000151,None,,001,2022_Dec_12_1607,TMT_fmri,2021.2.3,59.92182596261079,
A1,208:234,21,['1'],1,Images/TMTstop-A_1_1linestimulus18.png,Images/TMTstop-A_1_1greenlinestimulus18.png,Images/TMTstop-A_1_1redlinestimulus18.png,TMT_A,A1,21,None,2,,,,,,,,,0,0,0,0,0,20,20,20,,,,,,,,,1,1,62.81173769989982,89.00957210035995,None,['1'],1,[0.10354259982705116],89.00957210035995,None,,001,2022_Dec_12_1607,TMT_fmri,2021.2.3,59.92182596261079,
A1,208:234,22,['3'],3,Images/TMTstop-A_1_1linestimulus19.png,Images/TMTstop-A_1_1greenlinestimulus19.png,Images/TMTstop-A_1_1redlinestimulus19.png,TMT_A,A1,22,None,2,,,,,,,,,0,0,0,0,0,21,21,21,,,,,,,,,2,0,62.98501509986818,89.19280360033736,None,"['2', '3']",1,"[-0.019724299665540457, 0.07827150030061603]",89.19280360033736,None,,001,2022_Dec_12_1607,TMT_fmri,2021.2.3,59.92182596261079,
A1,208:234,23,['1'],1,Images/TMTstop-A_1_1linestimulus20.png,Images/TMTstop-A_1_1greenlinestimulus20.png,Images/TMTstop-A_1_1redlinestimulus20.png,TMT_A,A1,23,None,2,,,,,,,,,0,0,0,0,0,22,22,22,,,,,,,,,1,1,63.118005299940705,89.36563190026209,None,['1'],1,[0.061512500047683716],89.36563190026209,None,,001,2022_Dec_12_1607,TMT_fmri,2021.2.3,59.92182596261079,
A1,208:234,24,['3'],3,Images/TMTstop-A_1_1linestimulus21.png,Images/TMTstop-A_1_1greenlinestimulus21.png,Images/TMTstop-A_1_1redlinestimulus21.png,TMT_A,A1,24,None,2,,,,,,,,,0,0,0,0,0,23,23,23,,,,,,,,,2,0,63.2900307001546,89.48246800014749,None,"['2', '3']",1,"[0.012473999988287687, 0.10865150019526482]",89.48246800014749,None,,001,2022_Dec_12_1607,TMT_fmri,2021.2.3,59.92182596261079,
A1,208:234,25,['1'],1,Images/TMTstop-A_1_1linestimulus22.png,Images/TMTstop-A_1_1greenlinestimulus22.png,Images/TMTstop-A_1_1redlinestimulus22.png,TMT_A,A1,25,None,2,,,,,,,,,0,0,0,0,0,24,24,24,,,,,,,,,1,1,63.42817169986665,89.67143779993057,None,['1'],1,[0.06908119982108474],89.67143779993057,None,,001,2022_Dec_12_1607,TMT_fmri,2021.2.3,59.92182596261079,
A1,208:234,None,None,None,Images/TMTstop-A_1_1linestimulus23.png,Images/TMTstop-A_1_1greenlinestimulus23.png,Images/TMTstop-A_1_1redlinestimulus23.png,TMT_A,A1,Feedback_last,None,2,,,,,,,,,0,0,0,0,0,25,25,25,,,,,,,,,5,0,,89.79929320001975,None,"['2', '3', '1', '2', '3']",0,"[0.0015627997927367687, 0.10577149968594313, 0.25186700001358986, 0.3102326998487115, 0.39439859986305237]",89.79929320001975,None,,001,2022_Dec_12_1607,TMT_fmri,2021.2.3,59.92182596261079,
