Block_paper,Condition_rows,NumberLetter,corrAns,Correct,StimFile,Correct_StimFile,False_StimFile,Version,Paper,TrialNumber_Version,Round,Block,Blocks_Control1.thisRepN,Blocks_Control1.thisTrialN,Blocks_Control1.thisN,Blocks_Control1.thisIndex,trials_Control1.thisRepN,trials_Control1.thisTrialN,trials_Control1.thisN,trials_Control1.thisIndex,key_resp_7.keys,key_resp_7.rt,key_resp_7.started,key_resp_7.stopped,polygon_2.started,polygon_2.stopped,text_2.started,text_2.stopped,Attempts,First_attempt,ResponseClock,Stim.started,Stim.stopped,key_resp_2.keys,key_resp_2.corr,key_resp_2.rt,key_resp_2.started,key_resp_2.stopped,participant,session,date,expName,psychopyVersion,frameRate,
,,,,,,,,,,,,,,,,,,,,,s,1.2791776000522077,12.692928600125015,None,,,,,,,,,,,,,,,,001,2022_Dec_12_1604,TMT_fmri,2021.2.3,59.91916908112064,
C1,0:26,1,['2'],2,Images/TMTstop-control_1_1.png,Images/TMTstop-control_1_1.png,Images/TMTstop-control_1_1.png,TMT_Control,C1,1,1,1,0,0,0,0,0,0,0,0,,,,,12.692928600125015,None,27.502854300197214,None,2,0,7.895279800053686,34.85545130027458,None,"['1', '2']",1,"[0.4045684998854995, 0.48943360010161996]",34.85545130027458,None,,001,2022_Dec_12_1604,TMT_fmri,2021.2.3,59.91916908112064,
C1,0:26,2,['1'],1,Images/TMTstop-control_1_1.png,Images/TMTstop-control_1_1firstgreen.png,Images/TMTstop-control_1_1firstred.png,TMT_Control,C1,2,None,1,0,0,0,0,0,1,1,1,,,,,,,,,2,0,8.09533549984917,35.42605279991403,None,"['3', '1']",1,"[-0.019856599625200033, 0.1486512003466487]",35.42605279991403,None,,001,2022_Dec_12_1604,TMT_fmri,2021.2.3,59.91916908112064,
C1,0:26,3,['3'],3,Images/TMTstop-control_1_1linestimulus0.png,Images/TMTstop-control_1_1greenlinestimulus0.png,Images/TMTstop-control_1_1redlinestimulus0.png,TMT_Control,C1,3,None,1,0,0,0,0,0,2,2,2,,,,,,,,,2,0,8.245285399723798,35.62679520016536,None,"['2', '3']",1,"[-0.004629500210285187, 0.055135299917310476]",35.62679520016536,None,,001,2022_Dec_12_1604,TMT_fmri,2021.2.3,59.91916908112064,
C1,0:26,4,['1'],1,Images/TMTstop-control_1_1linestimulus1.png,Images/TMTstop-control_1_1greenlinestimulus1.png,Images/TMTstop-control_1_1redlinestimulus1.png,TMT_Control,C1,4,None,1,0,0,0,0,0,3,3,3,,,,,,,,,1,1,8.345325199887156,35.79351670015603,None,['1'],1,[0.028427799697965384],35.79351670015603,None,,001,2022_Dec_12_1604,TMT_fmri,2021.2.3,59.91916908112064,
C1,0:26,5,['3'],3,Images/TMTstop-control_1_1linestimulus2.png,Images/TMTstop-control_1_1greenlinestimulus2.png,Images/TMTstop-control_1_1redlinestimulus2.png,TMT_Control,C1,5,None,1,0,0,0,0,0,4,4,4,,,,,,,,,2,0,8.45831219991669,35.88408000022173,None,"['2', '3']",1,"[-0.0015338999219238758, 0.05162569973617792]",35.88408000022173,None,,001,2022_Dec_12_1604,TMT_fmri,2021.2.3,59.91916908112064,
C1,0:26,6,['1'],1,Images/TMTstop-control_1_1linestimulus3.png,Images/TMTstop-control_1_1greenlinestimulus3.png,Images/TMTstop-control_1_1redlinestimulus3.png,TMT_Control,C1,6,None,1,0,0,0,0,0,5,5,5,,,,,,,,,1,1,8.609288599807769,36.00714310025796,None,['1'],1,[0.06964159989729524],36.00714310025796,None,,001,2022_Dec_12_1604,TMT_fmri,2021.2.3,59.91916908112064,
C1,0:26,7,['2'],2,Images/TMTstop-control_1_1linestimulus4.png,Images/TMTstop-control_1_1greenlinestimulus4.png,Images/TMTstop-control_1_1redlinestimulus4.png,TMT_Control,C1,7,None,1,0,0,0,0,0,6,6,6,,,,,,,,,1,1,8.659326499793679,36.14024859992787,None,['2'],1,[-0.00016160029917955399],36.14024859992787,None,,001,2022_Dec_12_1604,TMT_fmri,2021.2.3,59.91916908112064,
C1,0:26,8,['1'],1,Images/TMTstop-control_1_1linestimulus4.png,Images/TMTstop-control_1_1greenlinestimulus5.png,Images/TMTstop-control_1_1redlinestimulus5.png,TMT_Control,C1,8,None,1,0,0,0,0,0,7,7,7,,,,,,,,,2,0,8.873309900052845,36.19749030005187,None,"['3', '1']",1,"[-0.008437400218099356, 0.15521080000326037]",36.19749030005187,None,,001,2022_Dec_12_1604,TMT_fmri,2021.2.3,59.91916908112064,
C1,0:26,9,['3'],3,Images/TMTstop-control_1_1linestimulus6.png,Images/TMTstop-control_1_1greenlinestimulus6.png,Images/TMTstop-control_1_1redlinestimulus6.png,TMT_Control,C1,9,None,1,0,0,0,0,0,8,8,8,,,,,,,,,2,0,9.074377399869263,36.40491490019485,None,"['2', '3']",1,"[0.02612459985539317, 0.12738960003480315]",36.40491490019485,None,,001,2022_Dec_12_1604,TMT_fmri,2021.2.3,59.91916908112064,
C1,0:26,10,['2'],2,Images/TMTstop-control_1_1linestimulus7.png,Images/TMTstop-control_1_1greenlinestimulus7.png,Images/TMTstop-control_1_1redlinestimulus7.png,TMT_Control,C1,10,None,1,0,0,0,0,0,9,9,9,,,,,,,,,2,0,9.324287899769843,36.605271700304,None,"['1', '2']",1,"[0.10159790003672242, 0.15421020006760955]",36.605271700304,None,,001,2022_Dec_12_1604,TMT_fmri,2021.2.3,59.91916908112064,
C1,0:26,11,['1'],1,Images/TMTstop-control_1_1linestimulus8.png,Images/TMTstop-control_1_1greenlinestimulus8.png,Images/TMTstop-control_1_1redlinestimulus8.png,TMT_Control,C1,11,None,1,0,0,0,0,0,10,10,10,,,,,,,,,5,0,9.830317199695855,36.86087190033868,None,"['3', '1', '2', '3', '1']",1,"[-0.03613629983738065, 0.1521002002991736, 0.1799854002892971, 0.27026790007948875, 0.41982199996709824]",36.86087190033868,None,,001,2022_Dec_12_1604,TMT_fmri,2021.2.3,59.91916908112064,
C1,0:26,12,['2'],2,Images/TMTstop-control_1_1linestimulus9.png,Images/TMTstop-control_1_1greenlinestimulus9.png,Images/TMTstop-control_1_1redlinestimulus9.png,TMT_Control,C1,12,None,1,0,0,0,0,0,11,11,11,,,,,,,,,1,1,9.880336300004274,37.36142380023375,None,['2'],1,[-0.02634999994188547],37.36142380023375,None,,001,2022_Dec_12_1604,TMT_fmri,2021.2.3,59.91916908112064,
C1,0:26,13,['3'],3,Images/TMTstop-control_1_1linestimulus10.png,Images/TMTstop-control_1_1greenlinestimulus10.png,Images/TMTstop-control_1_1redlinestimulus10.png,TMT_Control,C1,13,None,1,0,0,0,0,0,12,12,12,,,,,,,,,1,1,9.933439099695534,37.41431420017034,None,['3'],1,[-0.018118100240826607],37.41431420017034,None,,001,2022_Dec_12_1604,TMT_fmri,2021.2.3,59.91916908112064,
C1,0:26,14,['2'],2,Images/TMTstop-control_1_1linestimulus11.png,Images/TMTstop-control_1_1greenlinestimulus11.png,Images/TMTstop-control_1_1redlinestimulus11.png,TMT_Control,C1,14,None,1,0,0,0,0,0,13,13,13,,,,,,,,,2,0,10.119337399955839,37.466023500077426,None,"['1', '2']",1,"[0.0794836999848485, 0.12530939979478717]",37.466023500077426,None,,001,2022_Dec_12_1604,TMT_fmri,2021.2.3,59.91916908112064,
C1,0:26,15,['3'],3,Images/TMTstop-control_1_1linestimulus12.png,Images/TMTstop-control_1_1greenlinestimulus12.png,Images/TMTstop-control_1_1redlinestimulus12.png,TMT_Control,C1,15,None,1,0,0,0,0,0,14,14,14,,,,,,,,,1,1,10.18532899999991,37.650762900244445,None,['3'],1,[0.012227099854499102],37.650762900244445,None,,001,2022_Dec_12_1604,TMT_fmri,2021.2.3,59.91916908112064,
C1,0:26,16,['2'],2,Images/TMTstop-control_1_1linestimulus13.png,Images/TMTstop-control_1_1greenlinestimulus13.png,Images/TMTstop-control_1_1redlinestimulus13.png,TMT_Control,C1,16,None,1,0,0,0,0,0,15,15,15,,,,,,,,,2,0,10.395351300016046,37.72275080019608,None,"['1', '2']",1,"[0.09077669959515333, 0.12540039978921413]",37.72275080019608,None,,001,2022_Dec_12_1604,TMT_fmri,2021.2.3,59.91916908112064,
C1,0:26,17,['3'],3,Images/TMTstop-control_1_1linestimulus14.png,Images/TMTstop-control_1_1greenlinestimulus14.png,Images/TMTstop-control_1_1redlinestimulus14.png,TMT_Control,C1,17,None,1,0,0,0,0,0,16,16,16,,,,,,,,,1,1,10.452492199838161,37.93379840021953,None,['3'],1,[-0.009951500222086906],37.93379840021953,None,,001,2022_Dec_12_1604,TMT_fmri,2021.2.3,59.91916908112064,
C1,0:26,18,['2'],2,Images/TMTstop-control_1_1linestimulus15.png,Images/TMTstop-control_1_1greenlinestimulus15.png,Images/TMTstop-control_1_1redlinestimulus15.png,TMT_Control,C1,18,None,1,0,0,0,0,0,17,17,17,,,,,,,,,2,0,10.652298299595714,37.98382760025561,None,"['1', '2']",1,"[0.08565450040623546, 0.12012290023267269]",37.98382760025561,None,,001,2022_Dec_12_1604,TMT_fmri,2021.2.3,59.91916908112064,
C1,0:26,19,['1'],1,Images/TMTstop-control_1_1linestimulus16.png,Images/TMTstop-control_1_1greenlinestimulus16.png,Images/TMTstop-control_1_1redlinestimulus16.png,TMT_Control,C1,19,None,1,0,0,0,0,0,18,18,18,,,,,,,,,2,0,10.88629539962858,38.183993000071496,None,"['3', '1']",1,"[0.0026755002327263355, 0.15618780022487044]",38.183993000071496,None,,001,2022_Dec_12_1604,TMT_fmri,2021.2.3,59.91916908112064,
C1,0:26,20,['3'],3,Images/TMTstop-control_1_1linestimulus17.png,Images/TMTstop-control_1_1greenlinestimulus17.png,Images/TMTstop-control_1_1redlinestimulus17.png,TMT_Control,C1,20,None,1,0,0,0,0,0,19,19,19,,,,,,,,,2,0,10.986358299851418,38.41707589989528,None,"['2', '3']",1,"[-0.04399289982393384, 0.03893119981512427]",38.41707589989528,None,,001,2022_Dec_12_1604,TMT_fmri,2021.2.3,59.91916908112064,
C1,0:26,21,['1'],1,Images/TMTstop-control_1_1linestimulus18.png,Images/TMTstop-control_1_1greenlinestimulus18.png,Images/TMTstop-control_1_1redlinestimulus18.png,TMT_Control,C1,21,None,1,0,0,0,0,0,20,20,20,,,,,,,,,1,1,11.152381499763578,38.51775050023571,None,['1'],1,[0.10633839992806315],38.51775050023571,None,,001,2022_Dec_12_1604,TMT_fmri,2021.2.3,59.91916908112064,
C1,0:26,22,['2'],2,Images/TMTstop-control_1_1linestimulus19.png,Images/TMTstop-control_1_1greenlinestimulus19.png,Images/TMTstop-control_1_1redlinestimulus19.png,TMT_Control,C1,22,None,1,0,0,0,0,0,21,21,21,,,,,,,,,1,1,11.203321899753064,38.68448649998754,None,['2'],1,[-0.021341499872505665],38.68448649998754,None,,001,2022_Dec_12_1604,TMT_fmri,2021.2.3,59.91916908112064,
C1,0:26,23,['3'],3,Images/TMTstop-control_1_1linestimulus20.png,Images/TMTstop-control_1_1greenlinestimulus20.png,Images/TMTstop-control_1_1redlinestimulus20.png,TMT_Control,C1,23,None,1,0,0,0,0,0,22,22,22,,,,,,,,,1,1,11.286339899990708,38.73412290029228,None,['3'],1,[0.006577599793672562],38.73412290029228,None,,001,2022_Dec_12_1604,TMT_fmri,2021.2.3,59.91916908112064,
C1,0:26,24,['2'],2,Images/TMTstop-control_1_1linestimulus21.png,Images/TMTstop-control_1_1greenlinestimulus21.png,Images/TMTstop-control_1_1redlinestimulus21.png,TMT_Control,C1,24,None,1,0,0,0,0,0,23,23,23,,,,,,,,,2,0,11.47034309990704,38.818046000320464,None,"['1', '2']",1,"[0.0805577002465725, 0.10684320004656911]",38.818046000320464,None,,001,2022_Dec_12_1604,TMT_fmri,2021.2.3,59.91916908112064,
C1,0:26,25,['1'],1,Images/TMTstop-control_1_1linestimulus22.png,Images/TMTstop-control_1_1greenlinestimulus22.png,Images/TMTstop-control_1_1redlinestimulus22.png,TMT_Control,C1,25,None,1,0,0,0,0,0,24,24,24,,,,,,,,,2,0,11.703318499960005,39.002044800203294,None,"['3', '1']",1,"[0.02813829993829131, 0.1723183998838067]",39.002044800203294,None,,001,2022_Dec_12_1604,TMT_fmri,2021.2.3,59.91916908112064,
C1,0:26,None,None,None,Images/TMTstop-control_1_1linestimulus23.png,Images/TMTstop-control_1_1greenlinestimulus23.png,Images/TMTstop-control_1_1redlinestimulus23.png,TMT_Control,C1,Feedback_last,None,1,0,0,0,0,0,25,25,25,,,,,,,,,2,0,,39.23517870018259,None,"['2', '3']",0,"[-0.02606259984895587, 0.043991600163280964]",39.23517870018259,None,,001,2022_Dec_12_1604,TMT_fmri,2021.2.3,59.91916908112064,
C2,26:52,1,['2'],2,Images/TMTstop-control_1_2.png,Images/TMTstop-control_1_2.png,Images/TMTstop-control_1_2.png,TMT_Control,C2,26,None,1,0,1,1,1,0,0,0,0,,,,,,,,,2,0,16.574588999617845,43.484559800010175,None,"['1', '2']",1,"[0.47243670001626015, 0.5698192999698222]",43.484559800010175,None,,001,2022_Dec_12_1604,TMT_fmri,2021.2.3,59.91916908112064,
C2,26:52,2,['3'],3,Images/TMTstop-control_1_2.png,Images/TMTstop-control_1_2firstgreen.png,Images/TMTstop-control_1_2firstred.png,TMT_Control,C2,27,None,1,0,1,1,1,0,1,1,1,,,,,,,,,1,1,16.65769389970228,44.106054100207984,None,['3'],1,[0.005001300014555454],44.106054100207984,None,,001,2022_Dec_12_1604,TMT_fmri,2021.2.3,59.91916908112064,
C2,26:52,3,['2'],2,Images/TMTstop-control_1_2linestimulus0.png,Images/TMTstop-control_1_2greenlinestimulus0.png,Images/TMTstop-control_1_2redlinestimulus0.png,TMT_Control,C2,28,None,1,0,1,1,1,0,2,2,2,,,,,,,,,2,0,16.85858969995752,44.189598500262946,None,"['1', '2']",1,"[0.09753760043531656, 0.14029610017314553]",44.189598500262946,None,,001,2022_Dec_12_1604,TMT_fmri,2021.2.3,59.91916908112064,
C2,26:52,4,['3'],3,Images/TMTstop-control_1_2linestimulus1.png,Images/TMTstop-control_1_2greenlinestimulus1.png,Images/TMTstop-control_1_2redlinestimulus1.png,TMT_Control,C2,29,None,1,0,1,1,1,0,3,3,3,,,,,,,,,1,1,16.941581999883056,44.38980740029365,None,['3'],1,[0.014846100006252527],44.38980740029365,None,,001,2022_Dec_12_1604,TMT_fmri,2021.2.3,59.91916908112064,
C2,26:52,5,['2'],2,Images/TMTstop-control_1_2linestimulus2.png,Images/TMTstop-control_1_2greenlinestimulus2.png,Images/TMTstop-control_1_2redlinestimulus2.png,TMT_Control,C2,30,None,1,0,1,1,1,0,4,4,4,,,,,,,,,2,0,17.141532799694687,44.47284140018746,None,"['1', '2']",1,"[0.08869310002774, 0.12519529974088073]",44.47284140018746,None,,001,2022_Dec_12_1604,TMT_fmri,2021.2.3,59.91916908112064,
C2,26:52,6,['3'],3,Images/TMTstop-control_1_2linestimulus3.png,Images/TMTstop-control_1_2greenlinestimulus3.png,Images/TMTstop-control_1_2redlinestimulus3.png,TMT_Control,C2,31,None,1,0,1,1,1,0,5,5,5,,,,,,,,,1,1,17.225065999664366,44.67335520032793,None,['3'],1,[0.019544000271707773],44.67335520032793,None,,001,2022_Dec_12_1604,TMT_fmri,2021.2.3,59.91916908112064,
C2,26:52,7,['2'],2,Images/TMTstop-control_1_2linestimulus4.png,Images/TMTstop-control_1_2greenlinestimulus4.png,Images/TMTstop-control_1_2redlinestimulus4.png,TMT_Control,C2,32,None,1,0,1,1,1,0,6,6,6,,,,,,,,,2,0,17.442028899677098,44.7734966003336,None,"['1', '2']",1,"[0.04920039977878332, 0.11755259986966848]",44.7734966003336,None,,001,2022_Dec_12_1604,TMT_fmri,2021.2.3,59.91916908112064,
C2,26:52,8,['1'],1,Images/TMTstop-control_1_2linestimulus4.png,Images/TMTstop-control_1_2greenlinestimulus5.png,Images/TMTstop-control_1_2redlinestimulus5.png,TMT_Control,C2,33,None,1,0,1,1,1,0,7,7,7,,,,,,,,,5,0,17.943089899607003,44.97372219990939,None,"['3', '1', '2', '3', '1']",1,"[-0.0029774000868201256, 0.15597769990563393, 0.1884800996631384, 0.2935101999901235, 0.4503623000346124]",44.97372219990939,None,,001,2022_Dec_12_1604,TMT_fmri,2021.2.3,59.91916908112064,
C2,26:52,9,['3'],3,Images/TMTstop-control_1_2linestimulus6.png,Images/TMTstop-control_1_2greenlinestimulus6.png,Images/TMTstop-control_1_2redlinestimulus6.png,TMT_Control,C2,34,None,1,0,1,1,1,0,8,8,8,,,,,,,,,2,0,18.146065599750727,45.49103139992803,None,"['2', '3']",1,"[0.02403710037469864, 0.08895650040358305]",45.49103139992803,None,,001,2022_Dec_12_1604,TMT_fmri,2021.2.3,59.91916908112064,
C2,26:52,10,['2'],2,Images/TMTstop-control_1_2linestimulus7.png,Images/TMTstop-control_1_2greenlinestimulus7.png,Images/TMTstop-control_1_2redlinestimulus7.png,TMT_Control,C2,35,None,1,0,1,1,1,0,9,9,9,,,,,,,,,2,0,18.337032499723136,45.680510400328785,None,"['1', '2']",1,"[0.060821200255304575, 0.11524510011076927]",45.680510400328785,None,,001,2022_Dec_12_1604,TMT_fmri,2021.2.3,59.91916908112064,
C2,26:52,11,['3'],3,Images/TMTstop-control_1_2linestimulus8.png,Images/TMTstop-control_1_2greenlinestimulus8.png,Images/TMTstop-control_1_2redlinestimulus8.png,TMT_Control,C2,36,None,1,0,1,1,1,0,10,10,10,,,,,,,,,1,1,18.404066799674183,45.86888450011611,None,['3'],1,[0.017434799578040838],45.86888450011611,None,,001,2022_Dec_12_1604,TMT_fmri,2021.2.3,59.91916908112064,
C2,26:52,12,['2'],2,Images/TMTstop-control_1_2linestimulus9.png,Images/TMTstop-control_1_2greenlinestimulus9.png,Images/TMTstop-control_1_2redlinestimulus9.png,TMT_Control,C2,37,None,1,0,1,1,1,0,11,11,11,,,,,,,,,2,0,18.735162199940532,45.94213770003989,None,"['1', '2']",1,"[0.1648506000638008, 0.2579965996555984]",45.94213770003989,None,,001,2022_Dec_12_1604,TMT_fmri,2021.2.3,59.91916908112064,
C2,26:52,13,['3'],3,Images/TMTstop-control_1_2linestimulus10.png,Images/TMTstop-control_1_2greenlinestimulus10.png,Images/TMTstop-control_1_2redlinestimulus10.png,TMT_Control,C2,38,None,1,0,1,1,1,0,12,12,12,,,,,,,,,3,0,19.252181799616665,46.271067100111395,None,"['1', '2', '3']",1,"[0.3332630000077188, 0.39553699968382716, 0.46258809976279736]",46.271067100111395,None,,001,2022_Dec_12_1604,TMT_fmri,2021.2.3,59.91916908112064,
C2,26:52,14,['2'],2,Images/TMTstop-control_1_2linestimulus11.png,Images/TMTstop-control_1_2greenlinestimulus11.png,Images/TMTstop-control_1_2redlinestimulus11.png,TMT_Control,C2,39,None,1,0,1,1,1,0,13,13,13,,,,,,,,,2,0,19.478040299843997,46.79135630000383,None,"['1', '2']",1,"[0.10548869986087084, 0.14446579990908504]",46.79135630000383,None,,001,2022_Dec_12_1604,TMT_fmri,2021.2.3,59.91916908112064,
C2,26:52,15,['3'],3,Images/TMTstop-control_1_2linestimulus12.png,Images/TMTstop-control_1_2greenlinestimulus12.png,Images/TMTstop-control_1_2redlinestimulus12.png,TMT_Control,C2,40,None,1,0,1,1,1,0,14,14,14,,,,,,,,,1,1,19.561092299874872,47.00931920018047,None,['3'],1,[0.0023627998307347298],47.00931920018047,None,,001,2022_Dec_12_1604,TMT_fmri,2021.2.3,59.91916908112064,
C2,26:52,16,['1'],1,Images/TMTstop-control_1_2linestimulus13.png,Images/TMTstop-control_1_2greenlinestimulus13.png,Images/TMTstop-control_1_2redlinestimulus13.png,TMT_Control,C2,41,None,1,0,1,1,1,0,15,15,15,,,,,,,,,1,1,19.678069999907166,47.10924750007689,None,['1'],1,[0.05171089991927147],47.10924750007689,None,,001,2022_Dec_12_1604,TMT_fmri,2021.2.3,59.91916908112064,
C2,26:52,17,['2'],2,Images/TMTstop-control_1_2linestimulus14.png,Images/TMTstop-control_1_2greenlinestimulus14.png,Images/TMTstop-control_1_2redlinestimulus14.png,TMT_Control,C2,42,None,1,0,1,1,1,0,16,16,16,,,,,,,,,1,1,19.762185500003397,47.20945650013164,None,['2'],1,[0.0066221002489328384],47.20945650013164,None,,001,2022_Dec_12_1604,TMT_fmri,2021.2.3,59.91916908112064,
C2,26:52,18,['1'],1,Images/TMTstop-control_1_2linestimulus15.png,Images/TMTstop-control_1_2greenlinestimulus15.png,Images/TMTstop-control_1_2redlinestimulus15.png,TMT_Control,C2,43,None,1,0,1,1,1,0,17,17,17,,,,,,,,,2,0,19.967048999853432,47.293083699885756,None,"['3', '1']",1,"[-0.011079200077801943, 0.14797789976000786]",47.293083699885756,None,,001,2022_Dec_12_1604,TMT_fmri,2021.2.3,59.91916908112064,
C2,26:52,19,['2'],2,Images/TMTstop-control_1_2linestimulus16.png,Images/TMTstop-control_1_2greenlinestimulus16.png,Images/TMTstop-control_1_2redlinestimulus16.png,TMT_Control,C2,44,None,1,0,1,1,1,0,18,18,18,,,,,,,,,1,1,20.03402889985591,47.5148960002698,None,['2'],1,[-0.027819199953228235],47.5148960002698,None,,001,2022_Dec_12_1604,TMT_fmri,2021.2.3,59.91916908112064,
C2,26:52,20,['3'],3,Images/TMTstop-control_1_2linestimulus17.png,Images/TMTstop-control_1_2greenlinestimulus17.png,Images/TMTstop-control_1_2redlinestimulus17.png,TMT_Control,C2,45,None,1,0,1,1,1,0,19,19,19,,,,,,,,,1,1,20.100111699663103,47.58167640026659,None,['3'],1,[-0.025915099773555994],47.58167640026659,None,,001,2022_Dec_12_1604,TMT_fmri,2021.2.3,59.91916908112064,
C2,26:52,21,['1'],1,Images/TMTstop-control_1_2linestimulus18.png,Images/TMTstop-control_1_2greenlinestimulus18.png,Images/TMTstop-control_1_2redlinestimulus18.png,TMT_Control,C2,46,None,1,0,1,1,1,0,20,20,20,,,,,,,,,1,1,20.2530606999062,47.634099800139666,None,['1'],1,[0.08682419965043664],47.634099800139666,None,,001,2022_Dec_12_1604,TMT_fmri,2021.2.3,59.91916908112064,
C2,26:52,22,['3'],3,Images/TMTstop-control_1_2linestimulus19.png,Images/TMTstop-control_1_2greenlinestimulus19.png,Images/TMTstop-control_1_2redlinestimulus19.png,TMT_Control,C2,47,None,1,0,1,1,1,0,21,21,21,,,,,,,,,2,0,20.360051199793816,47.78431829996407,None,"['2', '3']",1,"[-0.021339500322937965, 0.05252509983256459]",47.78431829996407,None,,001,2022_Dec_12_1604,TMT_fmri,2021.2.3,59.91916908112064,
C2,26:52,23,['2'],2,Images/TMTstop-control_1_2linestimulus20.png,Images/TMTstop-control_1_2greenlinestimulus20.png,Images/TMTstop-control_1_2redlinestimulus20.png,TMT_Control,C2,48,None,1,0,1,1,1,0,22,22,22,,,,,,,,,2,0,20.57806900003925,47.89212840003893,None,"['1', '2']",1,"[0.11276109982281923, 0.13193749962374568]",47.89212840003893,None,,001,2022_Dec_12_1604,TMT_fmri,2021.2.3,59.91916908112064,
C2,26:52,24,['3'],3,Images/TMTstop-control_1_2linestimulus21.png,Images/TMTstop-control_1_2greenlinestimulus21.png,Images/TMTstop-control_1_2redlinestimulus21.png,TMT_Control,C2,49,None,1,0,1,1,1,0,23,23,23,,,,,,,,,1,1,20.644030099734664,48.12546729994938,None,['3'],1,[-0.029460499994456768],48.12546729994938,None,,001,2022_Dec_12_1604,TMT_fmri,2021.2.3,59.91916908112064,
C2,26:52,25,['1'],1,Images/TMTstop-control_1_2linestimulus22.png,Images/TMTstop-control_1_2greenlinestimulus22.png,Images/TMTstop-control_1_2redlinestimulus22.png,TMT_Control,C2,50,None,1,0,1,1,1,0,24,24,24,,,,,,,,,1,1,20.801049399655312,48.18244490027428,None,['1'],1,[0.09027450019493699],48.18244490027428,None,,001,2022_Dec_12_1604,TMT_fmri,2021.2.3,59.91916908112064,
C2,26:52,None,None,None,Images/TMTstop-control_1_2linestimulus23.png,Images/TMTstop-control_1_2greenlinestimulus23.png,Images/TMTstop-control_1_2redlinestimulus23.png,TMT_Control,C2,Feedback_last,None,1,0,1,1,1,0,25,25,25,,,,,,,,,2,0,,48.33287480007857,None,"['2', '3']",0,"[-0.0037323003634810448, 0.06825589993968606]",48.33287480007857,None,,001,2022_Dec_12_1604,TMT_fmri,2021.2.3,59.91916908112064,
