NumberLetter,corrAns,StimFile,Correct_StimFile,False_StimFile,DurationTrial,Block_file,Condition_rows,Correct,restartpractice.thisRepN,restartpractice.thisTrialN,restartpractice.thisN,restartpractice.thisIndex,trials_practice.thisRepN,trials_practice.thisTrialN,trials_practice.thisN,trials_practice.thisIndex,Blocks_loop.thisRepN,Blocks_loop.thisTrialN,Blocks_loop.thisN,Blocks_loop.thisIndex,trials.thisRepN,trials.thisTrialN,trials.thisN,trials.thisIndex,key_resp_6.keys,key_resp_6.rt,key_resp_6.started,key_resp_6.stopped,Stim_practice.started,Stim_practice.stopped,key_resp_practice.keys,key_resp_practice.rt,key_resp_practice.started,key_resp_practice.stopped,key_resp_5.keys,key_resp_5.rt,key_resp_5.started,key_resp_5.stopped,Attempts,Keypress_count,Stim.started,Stim.stopped,key_resp_2.keys,key_resp_2.corr,key_resp_2.rt,key_resp_2.started,key_resp_2.stopped,participant,session,date,expName,psychopyVersion,frameRate,
,,,,,,,,,,,,,,,,,,,,,,,,,2,0.36002859997097403,7.85965760005638,None,,,,,,,,,,,,,,,,,,,,,001,2022_Jan_24_1452,TMTAstop-A,2021.2.3,60.100451890552684,
1,['1'],TMTstop-A_1_practice.png,TMTstop-A_1_practice.png,TMTstop-A_1_practice.png,10,,,,0,0,0,0,0,0,0,0,,,,,,,,,,,,,11.344714500010014,None,1,0.48368579999078065,11.344714500010014,None,,,,,,,,,,,,,,,001,2022_Jan_24_1452,TMTAstop-A,2021.2.3,60.100451890552684,
2,['2'],TMTstop-A_1_practice.png,TMTstop-A_1_practicefirstgreen.png,TMTstop-A_1_practicefirstred.png,10,,,,0,0,0,0,0,1,1,1,,,,,,,,,,,,,11.912294100038707,None,2,0.04387429996859282,11.912294100038707,None,,,,,,,,,,,,,,,001,2022_Jan_24_1452,TMTAstop-A,2021.2.3,60.100451890552684,
3,['3'],TMTstop-A_1_practicelinestimulus0.png,TMTstop-A_1_practicegreenlinestimulus0.png,TMTstop-A_1_practiceredlinestimulus0.png,10,,,,0,0,0,0,0,2,2,2,,,,,,,,,,,,,12.04572559997905,None,3,0.006993599934503436,12.04572559997905,None,,,,,,,,,,,,,,,001,2022_Jan_24_1452,TMTAstop-A,2021.2.3,60.100451890552684,
4,['1'],TMTstop-A_1_practicelinestimulus1.png,TMTstop-A_1_practicegreenlinestimulus1.png,TMTstop-A_1_practiceredlinestimulus1.png,10,,,,0,0,0,0,0,3,3,3,,,,,,,,,,,,,12.145806199987419,None,1,0.05614590004552156,12.145806199987419,None,,,,,,,,,,,,,,,001,2022_Jan_24_1452,TMTAstop-A,2021.2.3,60.100451890552684,
5,['2'],TMTstop-A_1_practicelinestimulus2.png,TMTstop-A_1_practicegreenlinestimulus2.png,TMTstop-A_1_practiceredlinestimulus2.png,10,,,,0,0,0,0,0,4,4,4,,,,,,,,,,,,,12.296232799999416,None,2,0.0023731000255793333,12.296232799999416,None,,,,,,,,,,,,,,,001,2022_Jan_24_1452,TMTAstop-A,2021.2.3,60.100451890552684,
6,['3'],TMTstop-A_1_practicelinestimulus3.png,TMTstop-A_1_practicegreenlinestimulus3.png,TMTstop-A_1_practiceredlinestimulus3.png,10,,,,0,0,0,0,0,5,5,5,,,,,,,,,,,,,12.379261999973096,None,3,0.2851988999173045,12.379261999973096,None,,,,,,,,,,,,,,,001,2022_Jan_24_1452,TMTAstop-A,2021.2.3,60.100451890552684,
7,['1'],TMTstop-A_1_practicelinestimulus4.png,TMTstop-A_1_practicegreenlinestimulus4.png,TMTstop-A_1_practiceredlinestimulus4.png,10,,,,0,0,0,0,0,6,6,6,,,,,,,,,,,,,12.779271499952301,None,1,0.014558200025931,12.779271499952301,None,,,,,,,,,,,,,,,001,2022_Jan_24_1452,TMTAstop-A,2021.2.3,60.100451890552684,
8,['3'],TMTstop-A_1_practicelinestimulus5.png,TMTstop-A_1_practicegreenlinestimulus5.png,TMTstop-A_1_practiceredlinestimulus5.png,10,,,,0,0,0,0,0,7,7,7,,,,,,,,,,,,,12.887777899974026,None,3,0.08415619994048029,12.887777899974026,None,,,,,,,,,,,,,,,001,2022_Jan_24_1452,TMTAstop-A,2021.2.3,60.100451890552684,
9,['2'],TMTstop-A_1_practicelinestimulus6.png,TMTstop-A_1_practicegreenlinestimulus6.png,TMTstop-A_1_practiceredlinestimulus6.png,10,,,,0,0,0,0,0,8,8,8,,,,,,,,,,,,,13.06273839995265,None,2,0.08284219994675368,13.06273839995265,None,,,,,,,,,,,,,,,001,2022_Jan_24_1452,TMTAstop-A,2021.2.3,60.100451890552684,
10,['3'],TMTstop-A_1_practicelinestimulus7.png,TMTstop-A_1_practicegreenlinestimulus7.png,TMTstop-A_1_practiceredlinestimulus7.png,10,,,,0,0,0,0,0,9,9,9,,,,,,,,,,,,,13.262894500046968,None,3,0.25850430002901703,13.262894500046968,None,,,,,,,,,,,,,,,001,2022_Jan_24_1452,TMTAstop-A,2021.2.3,60.100451890552684,
11,['1'],TMTstop-A_1_practicelinestimulus8.png,TMTstop-A_1_practicegreenlinestimulus8.png,TMTstop-A_1_practiceredlinestimulus8.png,10,,,,0,0,0,0,0,10,10,10,,,,,,,,,,,,,13.646425300044939,None,1,0.2803253000602126,13.646425300044939,None,,,,,,,,,,,,,,,001,2022_Jan_24_1452,TMTAstop-A,2021.2.3,60.100451890552684,
12,['2'],TMTstop-A_1_practicelinestimulus9.png,TMTstop-A_1_practicegreenlinestimulus9.png,TMTstop-A_1_practiceredlinestimulus9.png,10,,,,0,0,0,0,0,11,11,11,,,,,,,,,,,,,14.013191199977882,None,2,0.281769199995324,14.013191199977882,None,,,,,,,,,,,,,,,001,2022_Jan_24_1452,TMTAstop-A,2021.2.3,60.100451890552684,
None,None,TMTstop-A_1_practicelinestimulus10.png,TMTstop-A_1_practicegreenlinestimulus10.png,TMTstop-A_1_practiceredlinestimulus10.png,None,,,,0,0,0,0,0,12,12,12,,,,,,,,,,,,,14.380247700028121,None,2,0.19882089993916452,14.380247700028121,None,,,,,,,,,,,,,,,001,2022_Jan_24_1452,TMTAstop-A,2021.2.3,60.100451890552684,
,,,,,,,,,0,0,0,0,,,,,,,,,,,,,,,,,,,,,,,2,0.5668756000231951,15.510785400052555,None,,,,,,,,,,,001,2022_Jan_24_1452,TMTAstop-A,2021.2.3,60.100451890552684,
1,['2'],TMTstop-A_1_1.png,TMTstop-A_1_1.png,TMTstop-A_1_1.png,10,TMTstop-A_1_1.xlsx,0:26,,,,,,,,,,0,0,0,0,0,0,0,0,,,,,,,,,,,,,,,2,4,19.215083200018853,None,"['1', '2']",1,"[0.4534827000461519, 0.5803141000214964]",19.215083200018853,None,,001,2022_Jan_24_1452,TMTAstop-A,2021.2.3,60.100451890552684,
2,['1'],TMTstop-A_1_1.png,TMTstop-A_1_1firstgreen.png,TMTstop-A_1_1firstred.png,10,TMTstop-A_1_1.xlsx,0:26,,,,,,,,,,0,0,0,0,0,1,1,1,,,,,,,,,,,,,,,2,10,19.915961700025946,None,"['3', '1']",1,"[-0.03309729997999966, 0.21455160004552454]",19.915961700025946,None,,001,2022_Jan_24_1452,TMTAstop-A,2021.2.3,60.100451890552684,
3,['2'],TMTstop-A_1_1linestimulus0.png,TMTstop-A_1_1greenlinestimulus0.png,TMTstop-A_1_1redlinestimulus0.png,10,TMTstop-A_1_1.xlsx,0:26,,,,,,,,,,0,0,0,0,0,2,2,2,,,,,,,,,,,,,,,1,11,20.249410800053738,None,['2'],1,[-0.04234919999726117],20.249410800053738,None,,001,2022_Jan_24_1452,TMTAstop-A,2021.2.3,60.100451890552684,
4,['3'],TMTstop-A_1_1linestimulus1.png,TMTstop-A_1_1greenlinestimulus1.png,TMTstop-A_1_1redlinestimulus1.png,10,TMTstop-A_1_1.xlsx,0:26,,,,,,,,,,0,0,0,0,0,3,3,3,,,,,,,,,,,,,,,1,12,20.33283249998931,None,['3'],1,[0.0019551999866962433],20.33283249998931,None,,001,2022_Jan_24_1452,TMTAstop-A,2021.2.3,60.100451890552684,
5,['2'],TMTstop-A_1_1linestimulus2.png,TMTstop-A_1_1greenlinestimulus2.png,TMTstop-A_1_1redlinestimulus2.png,10,TMTstop-A_1_1.xlsx,0:26,,,,,,,,,,0,0,0,0,0,4,4,4,,,,,,,,,,,,,,,2,15,20.432875400059856,None,"['1', '2']",1,"[0.04876719997264445, 0.10657409997656941]",20.432875400059856,None,,001,2022_Jan_24_1452,TMTAstop-A,2021.2.3,60.100451890552684,
6,['3'],TMTstop-A_1_1linestimulus3.png,TMTstop-A_1_1greenlinestimulus3.png,TMTstop-A_1_1redlinestimulus3.png,10,TMTstop-A_1_1.xlsx,0:26,,,,,,,,,,0,0,0,0,0,5,5,5,,,,,,,,,,,,,,,1,16,20.66620310000144,None,['3'],1,[-0.03846919990610331],20.66620310000144,None,,001,2022_Jan_24_1452,TMTAstop-A,2021.2.3,60.100451890552684,
7,['2'],TMTstop-A_1_1linestimulus4.png,TMTstop-A_1_1greenlinestimulus4.png,TMTstop-A_1_1redlinestimulus4.png,10,TMTstop-A_1_1.xlsx,0:26,,,,,,,,,,0,0,0,0,0,6,6,6,,,,,,,,,,,,,,,3,26,20.749698500032537,None,"['1', '1', '2']",1,"[0.025505000026896596, 0.3896102999569848, 0.46416400000452995]",20.749698500032537,None,,001,2022_Jan_24_1452,TMTAstop-A,2021.2.3,60.100451890552684,
8,['1'],TMTstop-A_1_1linestimulus5.png,TMTstop-A_1_1greenlinestimulus5.png,TMTstop-A_1_1redlinestimulus5.png,10,TMTstop-A_1_1.xlsx,0:26,,,,,,,,,,0,0,0,0,0,7,7,7,,,,,,,,,,,,,,,2,31,21.316625499981456,None,"['3', '1']",1,"[0.01651509990915656, 0.18464639992453158]",21.316625499981456,None,,001,2022_Jan_24_1452,TMTAstop-A,2021.2.3,60.100451890552684,
9,['2'],TMTstop-A_1_1linestimulus6.png,TMTstop-A_1_1greenlinestimulus6.png,TMTstop-A_1_1redlinestimulus6.png,10,TMTstop-A_1_1.xlsx,0:26,,,,,,,,,,0,0,0,0,0,8,8,8,,,,,,,,,,,,,,,1,32,21.6172306999797,None,['2'],1,[0.05353729997295886],21.6172306999797,None,,001,2022_Jan_24_1452,TMTAstop-A,2021.2.3,60.100451890552684,
10,['1'],TMTstop-A_1_1linestimulus7.png,TMTstop-A_1_1greenlinestimulus7.png,TMTstop-A_1_1redlinestimulus7.png,10,TMTstop-A_1_1.xlsx,0:26,,,,,,,,,,0,0,0,0,0,9,9,9,,,,,,,,,,,,,,,2,42,21.76683460001368,None,"['3', '1']",1,"[0.00537390005774796, 0.46541699999943376]",21.76683460001368,None,,001,2022_Jan_24_1452,TMTAstop-A,2021.2.3,60.100451890552684,
11,['2'],TMTstop-A_1_1linestimulus8.png,TMTstop-A_1_1greenlinestimulus8.png,TMTstop-A_1_1redlinestimulus8.png,10,TMTstop-A_1_1.xlsx,0:26,,,,,,,,,,0,0,0,0,0,10,10,10,,,,,,,,,,,,,,,3,54,22.31668659998104,None,"['1', '1', '2']",1,"[0.21331970009487122, 0.474867400014773, 0.7564524000044912]",22.31668659998104,None,,001,2022_Jan_24_1452,TMTAstop-A,2021.2.3,60.100451890552684,
12,['3'],TMTstop-A_1_1linestimulus9.png,TMTstop-A_1_1greenlinestimulus9.png,TMTstop-A_1_1redlinestimulus9.png,10,TMTstop-A_1_1.xlsx,0:26,,,,,,,,,,0,0,0,0,0,11,11,11,,,,,,,,,,,,,,,2,61,23.167460500029847,None,"['2', '3']",1,"[0.3629299000604078, 0.6281836000271142]",23.167460500029847,None,,001,2022_Jan_24_1452,TMTAstop-A,2021.2.3,60.100451890552684,
13,['2'],TMTstop-A_1_1linestimulus10.png,TMTstop-A_1_1greenlinestimulus10.png,TMTstop-A_1_1redlinestimulus10.png,1,TMTstop-A_1_1.xlsx,0:26,,,,,,,,,,0,0,0,0,0,12,12,12,,,,,,,,,,,,,,,2,66,23.917738200048916,None,"['1', '2']",1,"[0.06330100004561245, 0.2599186999723315]",23.917738200048916,None,,001,2022_Jan_24_1452,TMTAstop-A,2021.2.3,60.100451890552684,
14,['3'],TMTstop-A_1_1linestimulus11.png,TMTstop-A_1_1greenlinestimulus11.png,TMTstop-A_1_1redlinestimulus11.png,None,TMTstop-A_1_1.xlsx,0:26,,,,,,,,,,0,0,0,0,0,13,13,13,,,,,,,,,,,,,,,1,67,24.268115299986675,None,['3'],1,[0.004790500039234757],24.268115299986675,None,,001,2022_Jan_24_1452,TMTAstop-A,2021.2.3,60.100451890552684,
15,['1'],TMTstop-A_1_1linestimulus12.png,TMTstop-A_1_1greenlinestimulus12.png,TMTstop-A_1_1redlinestimulus12.png,None,TMTstop-A_1_1.xlsx,0:26,,,,,,,,,,0,0,0,0,0,14,14,14,,,,,,,,,,,,,,,1,68,24.367936599999666,None,['1'],1,[0.09799110004678369],24.367936599999666,None,,001,2022_Jan_24_1452,TMTAstop-A,2021.2.3,60.100451890552684,
16,['3'],TMTstop-A_1_1linestimulus13.png,TMTstop-A_1_1greenlinestimulus13.png,TMTstop-A_1_1redlinestimulus13.png,None,TMTstop-A_1_1.xlsx,0:26,,,,,,,,,,0,0,0,0,0,15,15,15,,,,,,,,,,,,,,,2,72,24.5518709999742,None,"['2', '3']",1,"[-0.01470930001232773, 0.10054709995165467]",24.5518709999742,None,,001,2022_Jan_24_1452,TMTAstop-A,2021.2.3,60.100451890552684,
17,['2'],TMTstop-A_1_1linestimulus14.png,TMTstop-A_1_1greenlinestimulus14.png,TMTstop-A_1_1redlinestimulus14.png,None,TMTstop-A_1_1.xlsx,0:26,,,,,,,,,,0,0,0,0,0,16,16,16,,,,,,,,,,,,,,,2,75,24.784987200051546,None,"['1', '2']",1,"[0.01798969996161759, 0.07385259994771332]",24.784987200051546,None,,001,2022_Jan_24_1452,TMTAstop-A,2021.2.3,60.100451890552684,
18,['3'],TMTstop-A_1_1linestimulus15.png,TMTstop-A_1_1greenlinestimulus15.png,TMTstop-A_1_1redlinestimulus15.png,None,TMTstop-A_1_1.xlsx,0:26,,,,,,,,,,0,0,0,0,0,17,17,17,,,,,,,,,,,,,,,1,76,24.984993600053713,None,['3'],1,[-0.0020068000303581357],24.984993600053713,None,,001,2022_Jan_24_1452,TMTAstop-A,2021.2.3,60.100451890552684,
19,['1'],TMTstop-A_1_1linestimulus16.png,TMTstop-A_1_1greenlinestimulus16.png,TMTstop-A_1_1redlinestimulus16.png,None,TMTstop-A_1_1.xlsx,0:26,,,,,,,,,,0,0,0,0,0,18,18,18,,,,,,,,,,,,,,,1,77,25.068392500048503,None,['1'],1,[0.061121099977754056],25.068392500048503,None,,001,2022_Jan_24_1452,TMTAstop-A,2021.2.3,60.100451890552684,
20,['3'],TMTstop-A_1_1linestimulus17.png,TMTstop-A_1_1greenlinestimulus17.png,TMTstop-A_1_1redlinestimulus17.png,None,TMTstop-A_1_1.xlsx,0:26,,,,,,,,,,0,0,0,0,0,19,19,19,,,,,,,,,,,,,,,2,80,25.218446900020353,None,"['2', '3']",1,"[-0.030628599924966693, 0.06995849998202175]",25.218446900020353,None,,001,2022_Jan_24_1452,TMTAstop-A,2021.2.3,60.100451890552684,
21,['1'],TMTstop-A_1_1linestimulus18.png,TMTstop-A_1_1greenlinestimulus18.png,TMTstop-A_1_1redlinestimulus18.png,None,TMTstop-A_1_1.xlsx,0:26,,,,,,,,,,0,0,0,0,0,20,20,20,,,,,,,,,,,,,,,1,81,25.401753599988297,None,['1'],1,[0.0526712000137195],25.401753599988297,None,,001,2022_Jan_24_1452,TMTAstop-A,2021.2.3,60.100451890552684,
22,['3'],TMTstop-A_1_1linestimulus19.png,TMTstop-A_1_1greenlinestimulus19.png,TMTstop-A_1_1redlinestimulus19.png,None,TMTstop-A_1_1.xlsx,0:26,,,,,,,,,,0,0,0,0,0,21,21,21,,,,,,,,,,,,,,,2,84,25.551904499996454,None,"['2', '3']",1,"[-0.020785999950021505, 0.08936410001479089]",25.551904499996454,None,,001,2022_Jan_24_1452,TMTAstop-A,2021.2.3,60.100451890552684,
23,['1'],TMTstop-A_1_1linestimulus20.png,TMTstop-A_1_1greenlinestimulus20.png,TMTstop-A_1_1redlinestimulus20.png,None,TMTstop-A_1_1.xlsx,0:26,,,,,,,,,,0,0,0,0,0,22,22,22,,,,,,,,,,,,,,,1,85,25.73719929996878,None,['1'],1,[0.06390959990676492],25.73719929996878,None,,001,2022_Jan_24_1452,TMTAstop-A,2021.2.3,60.100451890552684,
24,['2'],TMTstop-A_1_1linestimulus21.png,TMTstop-A_1_1greenlinestimulus21.png,TMTstop-A_1_1redlinestimulus21.png,None,TMTstop-A_1_1.xlsx,0:26,,,,,,,,,,0,0,0,0,0,23,23,23,,,,,,,,,,,,,,,1,86,25.886637300020084,None,['2'],1,[-0.016344100004062057],25.886637300020084,None,,001,2022_Jan_24_1452,TMTAstop-A,2021.2.3,60.100451890552684,
25,['3'],TMTstop-A_1_1linestimulus22.png,TMTstop-A_1_1greenlinestimulus22.png,TMTstop-A_1_1redlinestimulus22.png,None,TMTstop-A_1_1.xlsx,0:26,,,,,,,,,,0,0,0,0,0,24,24,24,,,,,,,,,,,,,,,1,87,25.968848600052297,None,['3'],1,[0.3186092999530956],25.968848600052297,None,,001,2022_Jan_24_1452,TMTAstop-A,2021.2.3,60.100451890552684,
None,None,TMTstop-A_1_1linestimulus23.png,TMTstop-A_1_1greenlinestimulus23.png,TMTstop-A_1_1redlinestimulus23.png,None,TMTstop-A_1_1.xlsx,0:26,,,,,,,,,,0,0,0,0,0,25,25,25,,,,,,,,,,,,,,,3,,26.385763500002213,None,"['1', '2', '3']",0,"[0.233672900008969, 0.4550134000601247, 0.5110067999921739]",26.385763500002213,None,,001,2022_Jan_24_1452,TMTAstop-A,2021.2.3,60.100451890552684,
,,,,,,TMTstop-A_1_1.xlsx,0:26,,,,,,,,,,0,0,0,0,,,,,,,,,,,,,,,,,,,,,,,,,,,,,001,2022_Jan_24_1452,TMTAstop-A,2021.2.3,60.100451890552684,
1,['3'],TMTstop-A_1_2.png,TMTstop-A_1_2.png,TMTstop-A_1_2.png,10,TMTstop-A_1_2.xlsx,26:52,3,,,,,,,,,0,1,1,1,0,0,0,0,,,,,,,,,,,,,,,3,109,30.470945499953814,None,"['1', '2', '3']",1,"[0.35521609999705106, 0.4853870999068022, 0.5751705999718979]",30.470945499953814,None,,001,2022_Jan_24_1452,TMTAstop-A,2021.2.3,60.100451890552684,
2,['2'],TMTstop-A_1_2.png,TMTstop-A_1_2firstgreen.png,TMTstop-A_1_2firstred.png,10,TMTstop-A_1_2.xlsx,26:52,2,,,,,,,,,0,1,1,1,0,1,1,1,,,,,,,,,,,,,,,2,112,31.1710788999917,None,"['1', '2']",1,"[0.03907590010203421, 0.11154060007538646]",31.1710788999917,None,,001,2022_Jan_24_1452,TMTAstop-A,2021.2.3,60.100451890552684,
3,['3'],TMTstop-A_1_2linestimulus0.png,TMTstop-A_1_2greenlinestimulus0.png,TMTstop-A_1_2redlinestimulus0.png,10,TMTstop-A_1_2.xlsx,26:52,3,,,,,,,,,0,1,1,1,0,2,2,2,,,,,,,,,,,,,,,1,113,31.38824460003525,None,['3'],1,[-0.004762200056575239],31.38824460003525,None,,001,2022_Jan_24_1452,TMTAstop-A,2021.2.3,60.100451890552684,
4,['1'],TMTstop-A_1_2linestimulus1.png,TMTstop-A_1_2greenlinestimulus1.png,TMTstop-A_1_2redlinestimulus1.png,10,TMTstop-A_1_2.xlsx,26:52,1,,,,,,,,,0,1,1,1,0,3,3,3,,,,,,,,,,,,,,,1,114,31.471264300053008,None,['1'],1,[0.0484633999876678],31.471264300053008,None,,001,2022_Jan_24_1452,TMTAstop-A,2021.2.3,60.100451890552684,
5,['2'],TMTstop-A_1_2linestimulus2.png,TMTstop-A_1_2greenlinestimulus2.png,TMTstop-A_1_2redlinestimulus2.png,10,TMTstop-A_1_2.xlsx,26:52,2,,,,,,,,,0,1,1,1,0,4,4,4,,,,,,,,,,,,,,,1,115,31.60458040004596,None,['2'],1,[-0.007315900060348213],31.60458040004596,None,,001,2022_Jan_24_1452,TMTAstop-A,2021.2.3,60.100451890552684,
6,['3'],TMTstop-A_1_2linestimulus3.png,TMTstop-A_1_2greenlinestimulus3.png,TMTstop-A_1_2redlinestimulus3.png,10,TMTstop-A_1_2.xlsx,26:52,3,,,,,,,,,0,1,1,1,0,5,5,5,,,,,,,,,,,,,,,1,116,31.671491699991748,None,['3'],1,[0.01847399992402643],31.671491699991748,None,,001,2022_Jan_24_1452,TMTAstop-A,2021.2.3,60.100451890552684,
7,['2'],TMTstop-A_1_2linestimulus4.png,TMTstop-A_1_2greenlinestimulus4.png,TMTstop-A_1_2redlinestimulus4.png,10,TMTstop-A_1_2.xlsx,26:52,2,,,,,,,,,0,1,1,1,0,6,6,6,,,,,,,,,,,,,,,2,118,31.78812579996884,None,"['1', '2']",1,"[0.019461499992758036, 0.07522070000413805]",31.78812579996884,None,,001,2022_Jan_24_1452,TMTAstop-A,2021.2.3,60.100451890552684,
,,,,,,,,,,,,,,,,,,,,,,,,,,,,,,,,,,,,,,,1,,,,,,,,,,,,,,,
