Block_file,Condition_rows,NumberLetter,corrAns,StimFile,Correct_StimFile,False_StimFile,DurationTrial,Correct,restartpractice.thisRepN,restartpractice.thisTrialN,restartpractice.thisN,restartpractice.thisIndex,trials_practice.thisRepN,trials_practice.thisTrialN,trials_practice.thisN,trials_practice.thisIndex,Blocks_loop.thisRepN,Blocks_loop.thisTrialN,Blocks_loop.thisN,Blocks_loop.thisIndex,trials.thisRepN,trials.thisTrialN,trials.thisN,trials.thisIndex,key_resp_6.keys,key_resp_6.rt,key_resp_practice.keys,key_resp_practice.rt,key_resp_5.keys,key_resp_5.rt,Attempts,First_attempt,Stim.started,Stim.stopped,key_resp_2.keys,key_resp_2.corr,key_resp_2.rt,key_resp_2.started,key_resp_2.stopped,participant,session,date,expName,psychopyVersion,frameRate,
,,,,,,,,,,,,,,,,,,,,,,,,,2,0.3949486000929028,,,,,,,,,,,,,,,001,2022_Feb_02_1221,TMTAstop-A,2021.2.3,148.29160660595073,
TMTstop-A_1_1.xlsx,0:26,1,['2'],TMTstop-A_1_1.png,TMTstop-A_1_1.png,TMTstop-A_1_1.png,10,,,,,,,,,,0,0,0,0,0,0,0,0,,,None,0.011793400160968304,2,1.0177495998796076,2,1,20.224269999889657,None,"['1', '2']",1,"[0.49319199984893203, 0.6631457998882979]",20.224269999889657,None,,001,2022_Feb_02_1221,TMTAstop-A,2021.2.3,148.29160660595073,
TMTstop-A_1_1.xlsx,0:26,2,['1'],TMTstop-A_1_1.png,TMTstop-A_1_1firstgreen.png,TMTstop-A_1_1firstred.png,10,,,,,,,,,,0,0,0,0,0,1,1,1,,,,,,,2,1,21.003061400027946,None,"['3', '1']",1,"[-0.05684129986912012, 0.10838190000504255]",21.003061400027946,None,,001,2022_Feb_02_1221,TMTAstop-A,2021.2.3,148.29160660595073,
TMTstop-A_1_1.xlsx,0:26,3,['2'],TMTstop-A_1_1linestimulus0.png,TMTstop-A_1_1greenlinestimulus0.png,TMTstop-A_1_1redlinestimulus0.png,10,,,,,,,,,,0,0,0,0,0,2,2,2,,,,,,,1,1,21.19680879986845,None,['2'],1,[-0.01470810011960566],21.19680879986845,None,,001,2022_Feb_02_1221,TMTAstop-A,2021.2.3,148.29160660595073,
TMTstop-A_1_1.xlsx,0:26,4,['3'],TMTstop-A_1_1linestimulus1.png,TMTstop-A_1_1greenlinestimulus1.png,TMTstop-A_1_1redlinestimulus1.png,10,,,,,,,,,,0,0,0,0,0,3,3,3,,,,,,,1,1,21.272961899871007,None,['3'],1,[-0.001089500030502677],21.272961899871007,None,,001,2022_Feb_02_1221,TMTAstop-A,2021.2.3,148.29160660595073,
TMTstop-A_1_1.xlsx,0:26,5,['2'],TMTstop-A_1_1linestimulus2.png,TMTstop-A_1_1greenlinestimulus2.png,TMTstop-A_1_1redlinestimulus2.png,10,,,,,,,,,,0,0,0,0,0,4,4,4,,,,,,,2,1,21.34972079982981,None,"['1', '2']",1,"[0.07889920007437468, 0.12232450000010431]",21.34972079982981,None,,001,2022_Feb_02_1221,TMTAstop-A,2021.2.3,148.29160660595073,
TMTstop-A_1_1.xlsx,0:26,6,['3'],TMTstop-A_1_1linestimulus3.png,TMTstop-A_1_1greenlinestimulus3.png,TMTstop-A_1_1redlinestimulus3.png,10,,,,,,,,,,0,0,0,0,0,5,5,5,,,,,,,1,1,21.550943600013852,None,['3'],1,[0.026717699831351638],21.550943600013852,None,,001,2022_Feb_02_1221,TMTAstop-A,2021.2.3,148.29160660595073,
TMTstop-A_1_1.xlsx,0:26,7,['2'],TMTstop-A_1_1linestimulus4.png,TMTstop-A_1_1greenlinestimulus4.png,TMTstop-A_1_1redlinestimulus4.png,10,,,,,,,,,,0,0,0,0,0,6,6,6,,,,,,,2,1,21.655235799960792,None,"['1', '2']",1,"[0.05966260004788637, 0.12011380004696548]",21.655235799960792,None,,001,2022_Feb_02_1221,TMTAstop-A,2021.2.3,148.29160660595073,
TMTstop-A_1_1.xlsx,0:26,8,['1'],TMTstop-A_1_1linestimulus5.png,TMTstop-A_1_1greenlinestimulus5.png,TMTstop-A_1_1redlinestimulus5.png,10,,,,,,,,,,0,0,0,0,0,7,7,7,,,,,,,2,1,21.88423700002022,None,"['3', '1']",1,"[0.0005491999909281731, 0.1263526000548154]",21.88423700002022,None,,001,2022_Feb_02_1221,TMTAstop-A,2021.2.3,148.29160660595073,
TMTstop-A_1_1.xlsx,0:26,9,['2'],TMTstop-A_1_1linestimulus6.png,TMTstop-A_1_1greenlinestimulus6.png,TMTstop-A_1_1redlinestimulus6.png,10,,,,,,,,,,0,0,0,0,0,8,8,8,,,,,,,1,1,22.127111800014973,None,['2'],1,[-0.04558020015247166],22.127111800014973,None,,001,2022_Feb_02_1221,TMTAstop-A,2021.2.3,148.29160660595073,
TMTstop-A_1_1.xlsx,0:26,10,['1'],TMTstop-A_1_1linestimulus7.png,TMTstop-A_1_1greenlinestimulus7.png,TMTstop-A_1_1redlinestimulus7.png,10,,,,,,,,,,0,0,0,0,0,9,9,9,,,,,,,2,1,22.203682099934667,None,"['3', '1']",1,"[-0.03533510002307594, 0.08909309981390834]",22.203682099934667,None,,001,2022_Feb_02_1221,TMTAstop-A,2021.2.3,148.29160660595073,
TMTstop-A_1_1.xlsx,0:26,11,['2'],TMTstop-A_1_1linestimulus8.png,TMTstop-A_1_1greenlinestimulus8.png,TMTstop-A_1_1redlinestimulus8.png,10,,,,,,,,,,0,0,0,0,0,10,10,10,,,,,,,1,1,22.37097749998793,None,['2'],1,[-0.018148000119253993],22.37097749998793,None,,001,2022_Feb_02_1221,TMTAstop-A,2021.2.3,148.29160660595073,
TMTstop-A_1_1.xlsx,0:26,12,['3'],TMTstop-A_1_1linestimulus9.png,TMTstop-A_1_1greenlinestimulus9.png,TMTstop-A_1_1redlinestimulus9.png,10,,,,,,,,,,0,0,0,0,0,11,11,11,,,,,,,1,1,22.448258499847725,None,['3'],1,[0.008018699940294027],22.448258499847725,None,,001,2022_Feb_02_1221,TMTAstop-A,2021.2.3,148.29160660595073,
TMTstop-A_1_1.xlsx,0:26,13,['2'],TMTstop-A_1_1linestimulus10.png,TMTstop-A_1_1greenlinestimulus10.png,TMTstop-A_1_1redlinestimulus10.png,1,,,,,,,,,,0,0,0,0,0,12,12,12,,,,,,,2,1,22.537648499943316,None,"['1', '2']",1,"[0.06907409988343716, 0.13029609993100166]",22.537648499943316,None,,001,2022_Feb_02_1221,TMTAstop-A,2021.2.3,148.29160660595073,
TMTstop-A_1_1.xlsx,0:26,14,['3'],TMTstop-A_1_1linestimulus11.png,TMTstop-A_1_1greenlinestimulus11.png,TMTstop-A_1_1redlinestimulus11.png,None,,,,,,,,,,0,0,0,0,0,13,13,13,,,,,,,1,1,22.773268999997526,None,['3'],1,[0.01670299982652068],22.773268999997526,None,,001,2022_Feb_02_1221,TMTAstop-A,2021.2.3,148.29160660595073,
TMTstop-A_1_1.xlsx,0:26,15,['1'],TMTstop-A_1_1linestimulus12.png,TMTstop-A_1_1greenlinestimulus12.png,TMTstop-A_1_1redlinestimulus12.png,None,,,,,,,,,,0,0,0,0,0,14,14,14,,,,,,,1,1,22.87851949990727,None,['1'],1,[0.049087499966844916],22.87851949990727,None,,001,2022_Feb_02_1221,TMTAstop-A,2021.2.3,148.29160660595073,
TMTstop-A_1_1.xlsx,0:26,16,['3'],TMTstop-A_1_1linestimulus13.png,TMTstop-A_1_1greenlinestimulus13.png,TMTstop-A_1_1redlinestimulus13.png,None,,,,,,,,,,0,0,0,0,0,15,15,15,,,,,,,2,1,23.009096499998122,None,"['2', '3']",1,"[-0.02072619996033609, 0.09144730004481971]",23.009096499998122,None,,001,2022_Feb_02_1221,TMTAstop-A,2021.2.3,148.29160660595073,
TMTstop-A_1_1.xlsx,0:26,17,['2'],TMTstop-A_1_1linestimulus14.png,TMTstop-A_1_1greenlinestimulus14.png,TMTstop-A_1_1redlinestimulus14.png,None,,,,,,,,,,0,0,0,0,0,16,16,16,,,,,,,2,1,23.21748679992743,None,"['1', '2']",1,"[0.023379999911412597, 0.08743799990043044]",23.21748679992743,None,,001,2022_Feb_02_1221,TMTAstop-A,2021.2.3,148.29160660595073,
TMTstop-A_1_1.xlsx,0:26,18,['3'],TMTstop-A_1_1linestimulus15.png,TMTstop-A_1_1greenlinestimulus15.png,TMTstop-A_1_1redlinestimulus15.png,None,,,,,,,,,,0,0,0,0,0,17,17,17,,,,,,,1,1,23.40813730005175,None,['3'],1,[0.013294300064444542],23.40813730005175,None,,001,2022_Feb_02_1221,TMTAstop-A,2021.2.3,148.29160660595073,
TMTstop-A_1_1.xlsx,0:26,19,['1'],TMTstop-A_1_1linestimulus16.png,TMTstop-A_1_1greenlinestimulus16.png,TMTstop-A_1_1redlinestimulus16.png,None,,,,,,,,,,0,0,0,0,0,18,18,18,,,,,,,1,1,23.50955990003422,None,['1'],1,[0.04960209992714226],23.50955990003422,None,,001,2022_Feb_02_1221,TMTAstop-A,2021.2.3,148.29160660595073,
TMTstop-A_1_1.xlsx,0:26,20,['3'],TMTstop-A_1_1linestimulus17.png,TMTstop-A_1_1greenlinestimulus17.png,TMTstop-A_1_1redlinestimulus17.png,None,,,,,,,,,,0,0,0,0,0,19,19,19,,,,,,,2,1,23.656154199969023,None,"['2', '3']",1,"[-0.030345299979671836, 0.06870760000310838]",23.656154199969023,None,,001,2022_Feb_02_1221,TMTAstop-A,2021.2.3,148.29160660595073,
TMTstop-A_1_1.xlsx,0:26,21,['1'],TMTstop-A_1_1linestimulus18.png,TMTstop-A_1_1greenlinestimulus18.png,TMTstop-A_1_1redlinestimulus18.png,None,,,,,,,,,,0,0,0,0,0,20,20,20,,,,,,,1,1,23.844491499941796,None,['1'],1,[0.030879500089213252],23.844491499941796,None,,001,2022_Feb_02_1221,TMTAstop-A,2021.2.3,148.29160660595073,
TMTstop-A_1_1.xlsx,0:26,22,['3'],TMTstop-A_1_1linestimulus19.png,TMTstop-A_1_1greenlinestimulus19.png,TMTstop-A_1_1redlinestimulus19.png,None,,,,,,,,,,0,0,0,0,0,21,21,21,,,,,,,2,1,23.975647799903527,None,"['2', '3']",1,"[0.010393299860879779, 0.09608499985188246]",23.975647799903527,None,,001,2022_Feb_02_1221,TMTAstop-A,2021.2.3,148.29160660595073,
TMTstop-A_1_1.xlsx,0:26,23,['1'],TMTstop-A_1_1linestimulus20.png,TMTstop-A_1_1greenlinestimulus20.png,TMTstop-A_1_1redlinestimulus20.png,None,,,,,,,,,,0,0,0,0,0,22,22,22,,,,,,,1,1,24.155105199897662,None,['1'],1,[0.06997140008024871],24.155105199897662,None,,001,2022_Feb_02_1221,TMTAstop-A,2021.2.3,148.29160660595073,
TMTstop-A_1_1.xlsx,0:26,24,['2'],TMTstop-A_1_1linestimulus21.png,TMTstop-A_1_1greenlinestimulus21.png,TMTstop-A_1_1redlinestimulus21.png,None,,,,,,,,,,0,0,0,0,0,23,23,23,,,,,,,1,1,24.30798239982687,None,['2'],1,[-0.03399219992570579],24.30798239982687,None,,001,2022_Feb_02_1221,TMTAstop-A,2021.2.3,148.29160660595073,
TMTstop-A_1_1.xlsx,0:26,25,['3'],TMTstop-A_1_1linestimulus22.png,TMTstop-A_1_1greenlinestimulus22.png,TMTstop-A_1_1redlinestimulus22.png,None,,,,,,,,,,0,0,0,0,0,24,24,24,,,,,,,1,1,24.385527899954468,None,['3'],1,[0.013095000060275197],24.385527899954468,None,,001,2022_Feb_02_1221,TMTAstop-A,2021.2.3,148.29160660595073,
TMTstop-A_1_1.xlsx,0:26,None,None,TMTstop-A_1_1linestimulus23.png,TMTstop-A_1_1greenlinestimulus23.png,TMTstop-A_1_1redlinestimulus23.png,None,,,,,,,,,,0,0,0,0,0,25,25,25,,,,,,,4,1,24.47621769993566,None,"['1', '2', '3', '1']",0,"[0.05610590009018779, 0.12197749991901219, 0.24242940009571612, 0.36090110009536147]",24.47621769993566,None,,001,2022_Feb_02_1221,TMTAstop-A,2021.2.3,148.29160660595073,
TMTstop-A_1_2.xlsx,26:52,1,['3'],TMTstop-A_1_2.png,TMTstop-A_1_2.png,TMTstop-A_1_2.png,10,3,,,,,,,,,0,1,1,1,0,0,0,0,,,,,,,3,1,28.571137699997053,None,"['1', '2', '3']",1,"[1.4168254998512566, 1.5267113998997957, 1.6102589999791235]",28.571137699997053,None,,001,2022_Feb_02_1221,TMTAstop-A,2021.2.3,148.29160660595073,
TMTstop-A_1_2.xlsx,26:52,2,['2'],TMTstop-A_1_2.png,TMTstop-A_1_2firstgreen.png,TMTstop-A_1_2firstred.png,10,2,,,,,,,,,0,1,1,1,0,1,1,1,,,,,,,1,1,30.273440100019798,None,['2'],1,[0.11256689997389913],30.273440100019798,None,,001,2022_Feb_02_1221,TMTAstop-A,2021.2.3,148.29160660595073,
TMTstop-A_1_2.xlsx,26:52,3,['3'],TMTstop-A_1_2linestimulus0.png,TMTstop-A_1_2greenlinestimulus0.png,TMTstop-A_1_2redlinestimulus0.png,10,3,,,,,,,,,0,1,1,1,0,2,2,2,,,,,,,1,1,30.461050499929115,None,['3'],1,[0.02552319993264973],30.461050499929115,None,,001,2022_Feb_02_1221,TMTAstop-A,2021.2.3,148.29160660595073,
TMTstop-A_1_2.xlsx,26:52,4,['1'],TMTstop-A_1_2linestimulus1.png,TMTstop-A_1_2greenlinestimulus1.png,TMTstop-A_1_2redlinestimulus1.png,10,1,,,,,,,,,0,1,1,1,0,3,3,3,,,,,,,1,1,30.558318000053987,None,['1'],1,[0.05860049999319017],30.558318000053987,None,,001,2022_Feb_02_1221,TMTAstop-A,2021.2.3,148.29160660595073,
TMTstop-A_1_2.xlsx,26:52,5,['2'],TMTstop-A_1_2linestimulus2.png,TMTstop-A_1_2greenlinestimulus2.png,TMTstop-A_1_2redlinestimulus2.png,10,2,,,,,,,,,0,1,1,1,0,4,4,4,,,,,,,1,1,30.69678430003114,None,['2'],1,[-0.03184799989685416],30.69678430003114,None,,001,2022_Feb_02_1221,TMTAstop-A,2021.2.3,148.29160660595073,
TMTstop-A_1_2.xlsx,26:52,6,['3'],TMTstop-A_1_2linestimulus3.png,TMTstop-A_1_2greenlinestimulus3.png,TMTstop-A_1_2redlinestimulus3.png,10,3,,,,,,,,,0,1,1,1,0,5,5,5,,,,,,,1,1,30.767476700013503,None,['3'],1,[-0.0005942999850958586],30.767476700013503,None,,001,2022_Feb_02_1221,TMTAstop-A,2021.2.3,148.29160660595073,
TMTstop-A_1_2.xlsx,26:52,7,['2'],TMTstop-A_1_2linestimulus4.png,TMTstop-A_1_2greenlinestimulus4.png,TMTstop-A_1_2redlinestimulus4.png,10,2,,,,,,,,,0,1,1,1,0,6,6,6,,,,,,,2,1,30.84337649983354,None,"['1', '2']",1,"[0.04416400007903576, 0.09427749994210899]",30.84337649983354,None,,001,2022_Feb_02_1221,TMTAstop-A,2021.2.3,148.29160660595073,
TMTstop-A_1_2.xlsx,26:52,8,['1'],TMTstop-A_1_2linestimulus5.png,TMTstop-A_1_2greenlinestimulus5.png,TMTstop-A_1_2redlinestimulus5.png,10,1,,,,,,,,,0,1,1,1,0,7,7,7,,,,,,,2,1,31.009294799994677,None,"['3', '1']",1,"[0.033379700034856796, 0.1596768000163138]",31.009294799994677,None,,001,2022_Feb_02_1221,TMTAstop-A,2021.2.3,148.29160660595073,
TMTstop-A_1_2.xlsx,26:52,9,['2'],TMTstop-A_1_2linestimulus6.png,TMTstop-A_1_2greenlinestimulus6.png,TMTstop-A_1_2redlinestimulus6.png,10,2,,,,,,,,,0,1,1,1,0,8,8,8,,,,,,,1,1,31.238724899943918,None,['2'],1,[-0.02469270001165569],31.238724899943918,None,,001,2022_Feb_02_1221,TMTAstop-A,2021.2.3,148.29160660595073,
TMTstop-A_1_2.xlsx,26:52,10,['3'],TMTstop-A_1_2linestimulus7.png,TMTstop-A_1_2greenlinestimulus7.png,TMTstop-A_1_2redlinestimulus7.png,10,3,,,,,,,,,0,1,1,1,0,9,9,9,,,,,,,1,1,31.35203789989464,None,['3'],1,[-0.019934199983254075],31.35203789989464,None,,001,2022_Feb_02_1221,TMTAstop-A,2021.2.3,148.29160660595073,
TMTstop-A_1_2.xlsx,26:52,11,['1'],TMTstop-A_1_2linestimulus8.png,TMTstop-A_1_2greenlinestimulus8.png,TMTstop-A_1_2redlinestimulus8.png,10,1,,,,,,,,,0,1,1,1,0,10,10,10,,,,,,,1,1,31.418818099889904,None,['1'],1,[0.04249639995396137],31.418818099889904,None,,001,2022_Feb_02_1221,TMTAstop-A,2021.2.3,148.29160660595073,
TMTstop-A_1_2.xlsx,26:52,12,['2'],TMTstop-A_1_2linestimulus9.png,TMTstop-A_1_2greenlinestimulus9.png,TMTstop-A_1_2redlinestimulus9.png,10,2,,,,,,,,,0,1,1,1,0,11,11,11,,,,,,,1,1,31.53680059988983,None,['2'],1,[-0.00992670003324747],31.53680059988983,None,,001,2022_Feb_02_1221,TMTAstop-A,2021.2.3,148.29160660595073,
TMTstop-A_1_2.xlsx,26:52,13,['3'],TMTstop-A_1_2linestimulus10.png,TMTstop-A_1_2greenlinestimulus10.png,TMTstop-A_1_2redlinestimulus10.png,1,3,,,,,,,,,0,1,1,1,0,12,12,12,,,,,,,1,1,31.606254199985415,None,['3'],1,[0.018108100164681673],31.606254199985415,None,,001,2022_Feb_02_1221,TMTAstop-A,2021.2.3,148.29160660595073,
TMTstop-A_1_2.xlsx,26:52,14,['1'],TMTstop-A_1_2linestimulus11.png,TMTstop-A_1_2greenlinestimulus11.png,TMTstop-A_1_2redlinestimulus11.png,None,1,,,,,,,,,0,1,1,1,0,13,13,13,,,,,,,1,1,31.69732389994897,None,['1'],1,[0.07703340006992221],31.69732389994897,None,,001,2022_Feb_02_1221,TMTAstop-A,2021.2.3,148.29160660595073,
TMTstop-A_1_2.xlsx,26:52,15,['3'],TMTstop-A_1_2linestimulus12.png,TMTstop-A_1_2greenlinestimulus12.png,TMTstop-A_1_2redlinestimulus12.png,None,3,,,,,,,,,0,1,1,1,0,14,14,14,,,,,,,2,1,31.84938049991615,None,"['2', '3']",1,"[-0.0061512000393122435, 0.10413470002822578]",31.84938049991615,None,,001,2022_Feb_02_1221,TMTAstop-A,2021.2.3,148.29160660595073,
TMTstop-A_1_2.xlsx,26:52,16,['1'],TMTstop-A_1_2linestimulus13.png,TMTstop-A_1_2greenlinestimulus13.png,TMTstop-A_1_2redlinestimulus13.png,None,1,,,,,,,,,0,1,1,1,0,15,15,15,,,,,,,1,1,32.04399269982241,None,['1'],1,[0.08298099995590746],32.04399269982241,None,,001,2022_Feb_02_1221,TMTAstop-A,2021.2.3,148.29160660595073,
TMTstop-A_1_2.xlsx,26:52,17,['2'],TMTstop-A_1_2linestimulus14.png,TMTstop-A_1_2greenlinestimulus14.png,TMTstop-A_1_2redlinestimulus14.png,None,2,,,,,,,,,0,1,1,1,0,16,16,16,,,,,,,1,1,32.19782179989852,None,['2'],1,[-0.034692600136622787],32.19782179989852,None,,001,2022_Feb_02_1221,TMTAstop-A,2021.2.3,148.29160660595073,
TMTstop-A_1_2.xlsx,26:52,18,['1'],TMTstop-A_1_2linestimulus15.png,TMTstop-A_1_2greenlinestimulus15.png,TMTstop-A_1_2redlinestimulus15.png,None,1,,,,,,,,,0,1,1,1,0,17,17,17,,,,,,,3,1,32.268967599840835,None,"['3', '2', '1']",1,"[0.034248500131070614, 0.3250539000146091, 0.3924774001352489]",32.268967599840835,None,,001,2022_Feb_02_1221,TMTAstop-A,2021.2.3,148.29160660595073,
TMTstop-A_1_2.xlsx,26:52,19,['3'],TMTstop-A_1_2linestimulus16.png,TMTstop-A_1_2greenlinestimulus16.png,TMTstop-A_1_2redlinestimulus16.png,None,3,,,,,,,,,0,1,1,1,0,18,18,18,,,,,,,1,1,32.76614509988576,None,['3'],1,[0.09132500016130507],32.76614509988576,None,,001,2022_Feb_02_1221,TMTAstop-A,2021.2.3,148.29160660595073,
TMTstop-A_1_2.xlsx,26:52,20,['1'],TMTstop-A_1_2linestimulus17.png,TMTstop-A_1_2greenlinestimulus17.png,TMTstop-A_1_2redlinestimulus17.png,None,1,,,,,,,,,0,1,1,1,0,19,19,19,,,,,,,1,1,32.925695499870926,None,['1'],1,[0.07005750015377998],32.925695499870926,None,,001,2022_Feb_02_1221,TMTAstop-A,2021.2.3,148.29160660595073,
TMTstop-A_1_2.xlsx,26:52,21,['2'],TMTstop-A_1_2linestimulus18.png,TMTstop-A_1_2greenlinestimulus18.png,TMTstop-A_1_2redlinestimulus18.png,None,2,,,,,,,,,0,1,1,1,0,20,20,20,,,,,,,1,1,33.06464500003494,None,['2'],1,[0.020831699948757887],33.06464500003494,None,,001,2022_Feb_02_1221,TMTAstop-A,2021.2.3,148.29160660595073,
TMTstop-A_1_2.xlsx,26:52,22,['1'],TMTstop-A_1_2linestimulus19.png,TMTstop-A_1_2greenlinestimulus19.png,TMTstop-A_1_2redlinestimulus19.png,None,1,,,,,,,,,0,1,1,1,0,21,21,21,,,,,,,2,1,33.15489179990254,None,"['3', '1']",1,"[0.04686119989491999, 0.18566620000638068]",33.15489179990254,None,,001,2022_Feb_02_1221,TMTAstop-A,2021.2.3,148.29160660595073,
TMTstop-A_1_2.xlsx,26:52,23,['2'],TMTstop-A_1_2linestimulus20.png,TMTstop-A_1_2greenlinestimulus20.png,TMTstop-A_1_2redlinestimulus20.png,None,2,,,,,,,,,0,1,1,1,0,22,22,22,,,,,,,1,1,33.44647610001266,None,['2'],1,[-0.03932789992541075],33.44647610001266,None,,001,2022_Feb_02_1221,TMTAstop-A,2021.2.3,148.29160660595073,
TMTstop-A_1_2.xlsx,26:52,24,['1'],TMTstop-A_1_2linestimulus21.png,TMTstop-A_1_2greenlinestimulus21.png,TMTstop-A_1_2redlinestimulus21.png,None,1,,,,,,,,,0,1,1,1,0,23,23,23,,,,,,,2,1,33.5227779999841,None,"['3', '1']",1,"[-0.006000899942591786, 0.13520969985984266]",33.5227779999841,None,,001,2022_Feb_02_1221,TMTAstop-A,2021.2.3,148.29160660595073,
TMTstop-A_1_2.xlsx,26:52,25,['2'],TMTstop-A_1_2linestimulus22.png,TMTstop-A_1_2greenlinestimulus22.png,TMTstop-A_1_2redlinestimulus22.png,None,2,,,,,,,,,0,1,1,1,0,24,24,24,,,,,,,1,1,33.76577309984714,None,['2'],1,[-0.029799400130286813],33.76577309984714,None,,001,2022_Feb_02_1221,TMTAstop-A,2021.2.3,148.29160660595073,
TMTstop-A_1_2.xlsx,26:52,None,None,TMTstop-A_1_2linestimulus23.png,TMTstop-A_1_2greenlinestimulus23.png,TMTstop-A_1_2redlinestimulus23.png,None,None,,,,,,,,,0,1,1,1,0,25,25,25,,,,,,,0,1,33.842539499979466,None,None,1,,33.842539499979466,None,,001,2022_Feb_02_1221,TMTAstop-A,2021.2.3,148.29160660595073,
,,,,,,,,,,,,,,,,,,,,,,,,,,,,,,,0,1,,,,,,,,,,,,,,
