NumberLetter,corrAns,StimFile,Correct_StimFile,False_StimFile,DurationTrial,Condition_rows,Correct,Block,restartpractice.thisRepN,restartpractice.thisTrialN,restartpractice.thisN,restartpractice.thisIndex,trials_practice.thisRepN,trials_practice.thisTrialN,trials_practice.thisN,trials_practice.thisIndex,Condition_trials.thisRepN,Condition_trials.thisTrialN,Condition_trials.thisN,Condition_trials.thisIndex,trials.thisRepN,trials.thisTrialN,trials.thisN,trials.thisIndex,Instruct.started,Instruct.stopped,image_2.started,image_2.stopped,key_resp_6.keys,key_resp_6.rt,key_resp_6.started,key_resp_6.stopped,polygon.started,polygon.stopped,Stim_practice.started,Stim_practice.stopped,key_resp_practice.keys,key_resp_practice.rt,key_resp_practice.started,key_resp_practice.stopped,text_5.started,text_5.stopped,key_resp_5.keys,key_resp_5.rt,key_resp_5.started,key_resp_5.stopped,Stim.started,Stim.stopped,key_resp_2.keys,key_resp_2.corr,key_resp_2.rt,key_resp_2.started,key_resp_2.stopped,participant,session,date,expName,psychopyVersion,frameRate,
,,,,,,,,,,,,,,,,,,,,,,,,,6.917114899959415,None,7.4790063998661935,None,1,0.4593682000413537,7.4790063998661935,None,,,,,,,,,,,,,,,,,,,,,,,001,2022_Jan_12_1715,TMTAstop-A,2021.2.3,142.5504561098374,
1,['1'],TMTstop-A_1_practice.png,TMTstop-A_1_practice.png,TMTstop-A_1_practice.png,10,,,,0,0,0,0,0,0,0,0,,,,,,,,,,,,,,,,,7.952683700015768,None,11.001195800025016,None,1,1.3261751998215914,11.001195800025016,None,,,,,,,,,,,,,,,001,2022_Jan_12_1715,TMTAstop-A,2021.2.3,142.5504561098374,
2,['2'],TMTstop-A_1_practice.png,TMTstop-A_1_practicefirstgreen.png,TMTstop-A_1_practicefirstred.png,10,,,,0,0,0,0,0,1,1,1,,,,,,,,,,,,,,,,,,,12.410835499875247,None,2,0.0644036999437958,12.410835499875247,None,,,,,,,,,,,,,,,001,2022_Jan_12_1715,TMTAstop-A,2021.2.3,142.5504561098374,
3,['3'],TMTstop-A_1_practicelinestimulus0.png,TMTstop-A_1_practicegreenlinestimulus0.png,TMTstop-A_1_practiceredlinestimulus0.png,10,,,,0,0,0,0,0,2,2,2,,,,,,,,,,,,,,,,,,,12.557340199826285,None,3,0.018674399936571717,12.557340199826285,None,,,,,,,,,,,,,,,001,2022_Jan_12_1715,TMTAstop-A,2021.2.3,142.5504561098374,
4,['1'],TMTstop-A_1_practicelinestimulus1.png,TMTstop-A_1_practicegreenlinestimulus1.png,TMTstop-A_1_practiceredlinestimulus1.png,10,,,,0,0,0,0,0,3,3,3,,,,,,,,,,,,,,,,,,,12.654492100002244,None,1,0.09089340013451874,12.654492100002244,None,,,,,,,,,,,,,,,001,2022_Jan_12_1715,TMTAstop-A,2021.2.3,142.5504561098374,
5,['2'],TMTstop-A_1_practicelinestimulus2.png,TMTstop-A_1_practicegreenlinestimulus2.png,TMTstop-A_1_practiceredlinestimulus2.png,10,,,,0,0,0,0,0,4,4,4,,,,,,,,,,,,,,,,,,,12.82056130003184,None,2,0.3320980998687446,12.82056130003184,None,,,,,,,,,,,,,,,001,2022_Jan_12_1715,TMTAstop-A,2021.2.3,142.5504561098374,
6,['3'],TMTstop-A_1_practicelinestimulus3.png,TMTstop-A_1_practicegreenlinestimulus3.png,TMTstop-A_1_practiceredlinestimulus3.png,10,,,,0,0,0,0,0,5,5,5,,,,,,,,,,,,,,,,,,,13.258279399946332,None,3,0.018819699995219707,13.258279399946332,None,,,,,,,,,,,,,,,001,2022_Jan_12_1715,TMTAstop-A,2021.2.3,142.5504561098374,
7,['1'],TMTstop-A_1_practicelinestimulus4.png,TMTstop-A_1_practicegreenlinestimulus4.png,TMTstop-A_1_practiceredlinestimulus4.png,10,,,,0,0,0,0,0,6,6,6,,,,,,,,,,,,,,,,,,,13.355656899977475,None,1,0.05967060010880232,13.355656899977475,None,,,,,,,,,,,,,,,001,2022_Jan_12_1715,TMTAstop-A,2021.2.3,142.5504561098374,
8,['3'],TMTstop-A_1_practicelinestimulus5.png,TMTstop-A_1_practicegreenlinestimulus5.png,TMTstop-A_1_practiceredlinestimulus5.png,10,,,,0,0,0,0,0,7,7,7,,,,,,,,,,,,,,,,,,,13.487530899932608,None,3,0.14408719982020557,13.487530899932608,None,,,,,,,,,,,,,,,001,2022_Jan_12_1715,TMTAstop-A,2021.2.3,142.5504561098374,
9,['2'],TMTstop-A_1_practicelinestimulus6.png,TMTstop-A_1_practicegreenlinestimulus6.png,TMTstop-A_1_practiceredlinestimulus6.png,10,,,,0,0,0,0,0,8,8,8,,,,,,,,,,,,,,,,,,,13.737609799951315,None,2,0.14851859980262816,13.737609799951315,None,,,,,,,,,,,,,,,001,2022_Jan_12_1715,TMTAstop-A,2021.2.3,142.5504561098374,
10,['3'],TMTstop-A_1_practicelinestimulus7.png,TMTstop-A_1_practicegreenlinestimulus7.png,TMTstop-A_1_practiceredlinestimulus7.png,10,,,,0,0,0,0,0,9,9,9,,,,,,,,,,,,,,,,,,,13.980413899989799,None,3,0.010815400164574385,13.980413899989799,None,,,,,,,,,,,,,,,001,2022_Jan_12_1715,TMTAstop-A,2021.2.3,142.5504561098374,
11,['1'],TMTstop-A_1_practicelinestimulus8.png,TMTstop-A_1_practicegreenlinestimulus8.png,TMTstop-A_1_practiceredlinestimulus8.png,10,,,,0,0,0,0,0,10,10,10,,,,,,,,,,,,,,,,,,,14.063828999875113,None,1,0.0960701999720186,14.063828999875113,None,,,,,,,,,,,,,,,001,2022_Jan_12_1715,TMTAstop-A,2021.2.3,142.5504561098374,
12,['2'],TMTstop-A_1_practicelinestimulus9.png,TMTstop-A_1_practicegreenlinestimulus9.png,TMTstop-A_1_practiceredlinestimulus9.png,10,,,,0,0,0,0,0,11,11,11,,,,,,,,,,,,,,,,,,,14.230484599946067,None,2,0.03319109999574721,14.230484599946067,None,,,,,,,,,,,,,,,001,2022_Jan_12_1715,TMTAstop-A,2021.2.3,142.5504561098374,
None,None,TMTstop-A_1_practicelinestimulus10.png,TMTstop-A_1_practicegreenlinestimulus10.png,TMTstop-A_1_practiceredlinestimulus10.png,None,,,,0,0,0,0,0,12,12,12,,,,,,,,,,,,,,,,,,,14.334670400014147,None,None,,14.334670400014147,None,,,,,,,,,,,,,,,001,2022_Jan_12_1715,TMTAstop-A,2021.2.3,142.5504561098374,
,,,,,,,,,0,0,0,0,,,,,,,,,,,,,,,,,,,,,,,,,,,,,15.409379999851808,None,2,0.6565307998098433,15.409379999851808,None,,,,,,,,,001,2022_Jan_12_1715,TMTAstop-A,2021.2.3,142.5504561098374,
1,['2'],TMTstop-A_1_1.png,TMTstop-A_1_1.png,TMTstop-A_1_1.png,,0:26,2,1,,,,,,,,,0,0,0,0,0,0,0,0,,,,,,,,,16.130802299827337,None,,,,,,,,,,,,,19.14679679996334,None,"['1', '2']",1,"[0.6179081001318991, 0.7961926001589745]",19.14679679996334,None,,001,2022_Jan_12_1715,TMTAstop-A,2021.2.3,142.5504561098374,
2,['1'],TMTstop-A_1_1.png,TMTstop-A_1_1firstgreen.png,TMTstop-A_1_1firstred.png,,0:26,1,1,,,,,,,,,0,0,0,0,0,1,1,1,,,,,,,,,,,,,,,,,,,,,,,20.03566910000518,None,"['3', '1']",1,"[0.04314770014025271, 0.2990925000049174]",20.03566910000518,None,,001,2022_Jan_12_1715,TMTAstop-A,2021.2.3,142.5504561098374,
3,['2'],TMTstop-A_1_1linestimulus0.png,TMTstop-A_1_1greenlinestimulus0.png,TMTstop-A_1_1redlinestimulus0.png,,0:26,2,1,,,,,,,,,0,0,0,0,0,2,2,2,,,,,,,,,,,,,,,,,,,,,,,20.43860309990123,None,['2'],1,[0.001617700094357133],20.43860309990123,None,,001,2022_Jan_12_1715,TMTAstop-A,2021.2.3,142.5504561098374,
4,['3'],TMTstop-A_1_1linestimulus1.png,TMTstop-A_1_1greenlinestimulus1.png,TMTstop-A_1_1redlinestimulus1.png,,0:26,3,1,,,,,,,,,0,0,0,0,0,3,3,3,,,,,,,,,,,,,,,,,,,,,,,20.521930600050837,None,['3'],1,[0.020083699841052294],20.521930600050837,None,,001,2022_Jan_12_1715,TMTAstop-A,2021.2.3,142.5504561098374,
5,['2'],TMTstop-A_1_1linestimulus2.png,TMTstop-A_1_1greenlinestimulus2.png,TMTstop-A_1_1redlinestimulus2.png,,0:26,2,1,,,,,,,,,0,0,0,0,0,4,4,4,,,,,,,,,,,,,,,,,,,,,,,20.619368999963626,None,"['1', '2']",1,"[0.14224290009588003, 0.2148221000097692]",20.619368999963626,None,,001,2022_Jan_12_1715,TMTAstop-A,2021.2.3,142.5504561098374,
6,['3'],TMTstop-A_1_1linestimulus3.png,TMTstop-A_1_1greenlinestimulus3.png,TMTstop-A_1_1redlinestimulus3.png,,0:26,3,1,,,,,,,,,0,0,0,0,0,5,5,5,,,,,,,,,,,,,,,,,,,,,,,20.924740300048143,None,['3'],1,[0.04367889999412],20.924740300048143,None,,001,2022_Jan_12_1715,TMTAstop-A,2021.2.3,142.5504561098374,
7,['2'],TMTstop-A_1_1linestimulus4.png,TMTstop-A_1_1greenlinestimulus4.png,TMTstop-A_1_1redlinestimulus4.png,,0:26,2,1,,,,,,,,,0,0,0,0,0,6,6,6,,,,,,,,,,,,,,,,,,,,,,,21.049828300019726,None,"['1', '2']",1,"[0.3286456000059843, 0.4309305001515895]",21.049828300019726,None,,001,2022_Jan_12_1715,TMTAstop-A,2021.2.3,142.5504561098374,
8,['1'],TMTstop-A_1_1linestimulus5.png,TMTstop-A_1_1greenlinestimulus5.png,TMTstop-A_1_1redlinestimulus5.png,,0:26,1,1,,,,,,,,,0,0,0,0,0,7,7,7,,,,,,,,,,,,,,,,,,,,,,,21.57754379999824,None,"['3', '1']",1,"[-0.006397299934178591, 0.1669132001698017]",21.57754379999824,None,,001,2022_Jan_12_1715,TMTAstop-A,2021.2.3,142.5504561098374,
9,['2'],TMTstop-A_1_1linestimulus6.png,TMTstop-A_1_1greenlinestimulus6.png,TMTstop-A_1_1redlinestimulus6.png,,0:26,2,1,,,,,,,,,0,0,0,0,0,8,8,8,,,,,,,,,,,,,,,,,,,,,,,21.82061819988303,None,['2'],1,[-0.017773800063878298],21.82061819988303,None,,001,2022_Jan_12_1715,TMTAstop-A,2021.2.3,142.5504561098374,
10,['1'],TMTstop-A_1_1linestimulus7.png,TMTstop-A_1_1greenlinestimulus7.png,TMTstop-A_1_1redlinestimulus7.png,,0:26,1,1,,,,,,,,,0,0,0,0,0,9,9,9,,,,,,,,,,,,,,,,,,,,,,,21.903507699957117,None,"['3', '1']",1,"[0.014842099975794554, 0.3968911000993103]",21.903507699957117,None,,001,2022_Jan_12_1715,TMTAstop-A,2021.2.3,142.5504561098374,
11,['2'],TMTstop-A_1_1linestimulus8.png,TMTstop-A_1_1greenlinestimulus8.png,TMTstop-A_1_1redlinestimulus8.png,,0:26,2,1,,,,,,,,,0,0,0,0,0,10,10,10,,,,,,,,,,,,,,,,,,,,,,,22.383519199909642,None,['2'],1,[0.030732099898159504],22.383519199909642,None,,001,2022_Jan_12_1715,TMTAstop-A,2021.2.3,142.5504561098374,
12,['3'],TMTstop-A_1_1linestimulus9.png,TMTstop-A_1_1greenlinestimulus9.png,TMTstop-A_1_1redlinestimulus9.png,,0:26,3,1,,,,,,,,,0,0,0,0,0,11,11,11,,,,,,,,,,,,,,,,,,,,,,,22.501378299901262,None,['3'],1,[0.028620700119063258],22.501378299901262,None,,001,2022_Jan_12_1715,TMTAstop-A,2021.2.3,142.5504561098374,
13,['2'],TMTstop-A_1_1linestimulus10.png,TMTstop-A_1_1greenlinestimulus10.png,TMTstop-A_1_1redlinestimulus10.png,,0:26,2,1,,,,,,,,,0,0,0,0,0,12,12,12,,,,,,,,,,,,,,,,,,,,,,,22.62078949995339,None,"['1', '2']",1,"[0.10188219998963177, 0.2074053999967873]",22.62078949995339,None,,001,2022_Jan_12_1715,TMTAstop-A,2021.2.3,142.5504561098374,
14,['3'],TMTstop-A_1_1linestimulus11.png,TMTstop-A_1_1greenlinestimulus11.png,TMTstop-A_1_1redlinestimulus11.png,,0:26,3,1,,,,,,,,,0,0,0,0,0,13,13,13,,,,,,,,,,,,,,,,,,,,,,,22.953331399941817,None,['3'],1,[-0.04893530020490289],22.953331399941817,None,,001,2022_Jan_12_1715,TMTAstop-A,2021.2.3,142.5504561098374,
15,['1'],TMTstop-A_1_1linestimulus12.png,TMTstop-A_1_1greenlinestimulus12.png,TMTstop-A_1_1redlinestimulus12.png,,0:26,1,1,,,,,,,,,0,0,0,0,0,14,14,14,,,,,,,,,,,,,,,,,,,,,,,23.03685489995405,None,['1'],1,[0.031906899996101856],23.03685489995405,None,,001,2022_Jan_12_1715,TMTAstop-A,2021.2.3,142.5504561098374,
16,['3'],TMTstop-A_1_1linestimulus13.png,TMTstop-A_1_1greenlinestimulus13.png,TMTstop-A_1_1redlinestimulus13.png,,0:26,3,1,,,,,,,,,0,0,0,0,0,15,15,15,,,,,,,,,,,,,,,,,,,,,,,23.160999899962917,None,"['2', '3']",1,"[-0.02721610013395548, 0.08834009990096092]",23.160999899962917,None,,001,2022_Jan_12_1715,TMTAstop-A,2021.2.3,142.5504561098374,
17,['2'],TMTstop-A_1_1linestimulus14.png,TMTstop-A_1_1greenlinestimulus14.png,TMTstop-A_1_1redlinestimulus14.png,,0:26,2,1,,,,,,,,,0,0,0,0,0,16,16,16,,,,,,,,,,,,,,,,,,,,,,,23.362926200032234,None,"['1', '2']",1,"[0.024031699867919087, 0.08750259992666543]",23.362926200032234,None,,001,2022_Jan_12_1715,TMTAstop-A,2021.2.3,142.5504561098374,
18,['3'],TMTstop-A_1_1linestimulus15.png,TMTstop-A_1_1greenlinestimulus15.png,TMTstop-A_1_1redlinestimulus15.png,,0:26,3,1,,,,,,,,,0,0,0,0,0,17,17,17,,,,,,,,,,,,,,,,,,,,,,,23.571399600012228,None,['3'],1,[-0.0010793001856654882],23.571399600012228,None,,001,2022_Jan_12_1715,TMTAstop-A,2021.2.3,142.5504561098374,
19,['1'],TMTstop-A_1_1linestimulus16.png,TMTstop-A_1_1greenlinestimulus16.png,TMTstop-A_1_1redlinestimulus16.png,,0:26,1,1,,,,,,,,,0,0,0,0,0,18,18,18,,,,,,,,,,,,,,,,,,,,,,,23.654210599837825,None,['1'],1,[0.04611999983899295],23.654210599837825,None,,001,2022_Jan_12_1715,TMTAstop-A,2021.2.3,142.5504561098374,
20,['3'],TMTstop-A_1_1linestimulus17.png,TMTstop-A_1_1greenlinestimulus17.png,TMTstop-A_1_1redlinestimulus17.png,,0:26,3,1,,,,,,,,,0,0,0,0,0,19,19,19,,,,,,,,,,,,,,,,,,,,,,,23.792817699955776,None,"['2', '3']",1,"[-0.025238800095394254, 0.09486950002610683]",23.792817699955776,None,,001,2022_Jan_12_1715,TMTAstop-A,2021.2.3,142.5504561098374,
21,['1'],TMTstop-A_1_1linestimulus18.png,TMTstop-A_1_1greenlinestimulus18.png,TMTstop-A_1_1redlinestimulus18.png,,0:26,1,1,,,,,,,,,0,0,0,0,0,20,20,20,,,,,,,,,,,,,,,,,,,,,,,24.00290219997987,None,['1'],1,[0.006120200036093593],24.00290219997987,None,,001,2022_Jan_12_1715,TMTAstop-A,2021.2.3,142.5504561098374,
22,['3'],TMTstop-A_1_1linestimulus19.png,TMTstop-A_1_1greenlinestimulus19.png,TMTstop-A_1_1redlinestimulus19.png,,0:26,3,1,,,,,,,,,0,0,0,0,0,21,21,21,,,,,,,,,,,,,,,,,,,,,,,24.091357399942353,None,"['2', '3']",1,"[-0.017789100063964725, 0.10305900010280311]",24.091357399942353,None,,001,2022_Jan_12_1715,TMTAstop-A,2021.2.3,142.5504561098374,
23,['1'],TMTstop-A_1_1linestimulus20.png,TMTstop-A_1_1greenlinestimulus20.png,TMTstop-A_1_1redlinestimulus20.png,,0:26,1,1,,,,,,,,,0,0,0,0,0,22,22,22,,,,,,,,,,,,,,,,,,,,,,,24.29309539985843,None,['1'],1,[0.021181999938562512],24.29309539985843,None,,001,2022_Jan_12_1715,TMTAstop-A,2021.2.3,142.5504561098374,
24,['2'],TMTstop-A_1_1linestimulus21.png,TMTstop-A_1_1greenlinestimulus21.png,TMTstop-A_1_1redlinestimulus21.png,,0:26,2,1,,,,,,,,,0,0,0,0,0,23,23,23,,,,,,,,,,,,,,,,,,,,,,,24.397188500035554,None,['2'],1,[0.4736947000492364],24.397188500035554,None,,001,2022_Jan_12_1715,TMTAstop-A,2021.2.3,142.5504561098374,
25,['3'],TMTstop-A_1_1linestimulus22.png,TMTstop-A_1_1greenlinestimulus22.png,TMTstop-A_1_1redlinestimulus22.png,,0:26,3,1,,,,,,,,,0,0,0,0,0,24,24,24,,,,,,,,,,,,,,,,,,,,,,,24.953814199892804,None,['3'],1,[0.3646146000828594],24.953814199892804,None,,001,2022_Jan_12_1715,TMTAstop-A,2021.2.3,142.5504561098374,
None,None,TMTstop-A_1_1linestimulus23.png,TMTstop-A_1_1greenlinestimulus23.png,TMTstop-A_1_1redlinestimulus23.png,,0:26,None,1,,,,,,,,,0,0,0,0,0,25,25,25,,,,,,,,,,,,,,,,,,,,,,,25.396944999927655,None,None,1,,25.396944999927655,None,,001,2022_Jan_12_1715,TMTAstop-A,2021.2.3,142.5504561098374,
1,['3'],TMTstop-A_1_2.png,TMTstop-A_1_2.png,TMTstop-A_1_2.png,,26:52,3,2,,,,,,,,,0,1,1,1,0,0,0,0,,,,,,,,,,,,,,,,,,,,,,,26.57743850001134,None,"['1', '2', '3']",1,"[0.6720827000681311, 0.7841256000101566, 0.8628736000973731]",26.57743850001134,None,,001,2022_Jan_12_1715,TMTAstop-A,2021.2.3,142.5504561098374,
2,['2'],TMTstop-A_1_2.png,TMTstop-A_1_2firstgreen.png,TMTstop-A_1_2firstred.png,,26:52,2,2,,,,,,,,,0,1,1,1,0,1,1,1,,,,,,,,,,,,,,,,,,,,,,,27.515984799945727,None,"['1', '2']",1,"[0.1901883000973612, 0.2713059999514371]",27.515984799945727,None,,001,2022_Jan_12_1715,TMTAstop-A,2021.2.3,142.5504561098374,
3,['3'],TMTstop-A_1_2linestimulus0.png,TMTstop-A_1_2greenlinestimulus0.png,TMTstop-A_1_2redlinestimulus0.png,,26:52,3,2,,,,,,,,,0,1,1,1,0,2,2,2,,,,,,,,,,,,,,,,,,,,,,,27.91209469991736,None,['3'],1,[0.0049328000750392675],27.91209469991736,None,,001,2022_Jan_12_1715,TMTAstop-A,2021.2.3,142.5504561098374,
4,['1'],TMTstop-A_1_2linestimulus1.png,TMTstop-A_1_2greenlinestimulus1.png,TMTstop-A_1_2redlinestimulus1.png,,26:52,1,2,,,,,,,,,0,1,1,1,0,3,3,3,,,,,,,,,,,,,,,,,,,,,,,28.01498969993554,None,['1'],1,[0.07481319992803037],28.01498969993554,None,,001,2022_Jan_12_1715,TMTAstop-A,2021.2.3,142.5504561098374,
5,['2'],TMTstop-A_1_2linestimulus2.png,TMTstop-A_1_2greenlinestimulus2.png,TMTstop-A_1_2redlinestimulus2.png,,26:52,2,2,,,,,,,,,0,1,1,1,0,4,4,4,,,,,,,,,,,,,,,,,,,,,,,28.175314999883994,None,"['1', '2']",1,"[0.2751944998744875, 0.45963609986938536]",28.175314999883994,None,,001,2022_Jan_12_1715,TMTAstop-A,2021.2.3,142.5504561098374,
6,['3'],TMTstop-A_1_2linestimulus3.png,TMTstop-A_1_2greenlinestimulus3.png,TMTstop-A_1_2redlinestimulus3.png,,26:52,3,2,,,,,,,,,0,1,1,1,0,5,5,5,,,,,,,,,,,,,,,,,,,,,,,28.75802189996466,None,['3'],1,[-0.028563400031998754],28.75802189996466,None,,001,2022_Jan_12_1715,TMTAstop-A,2021.2.3,142.5504561098374,
7,['2'],TMTstop-A_1_2linestimulus4.png,TMTstop-A_1_2greenlinestimulus4.png,TMTstop-A_1_2redlinestimulus4.png,,26:52,2,2,,,,,,,,,0,1,1,1,0,6,6,6,,,,,,,,,,,,,,,,,,,,,,,28.834563199896365,None,"['1', '2']",1,"[0.025147800100967288, 0.1098923000972718]",28.834563199896365,None,,001,2022_Jan_12_1715,TMTAstop-A,2021.2.3,142.5504561098374,
8,['1'],TMTstop-A_1_2linestimulus5.png,TMTstop-A_1_2greenlinestimulus5.png,TMTstop-A_1_2redlinestimulus5.png,,26:52,1,2,,,,,,,,,0,1,1,1,0,7,7,7,,,,,,,,,,,,,,,,,,,,,,,29.01487990003079,None,"['3', '1']",1,"[0.02682109992019832, 0.15257970010861754]",29.01487990003079,None,,001,2022_Jan_12_1715,TMTAstop-A,2021.2.3,142.5504561098374,
9,['2'],TMTstop-A_1_2linestimulus6.png,TMTstop-A_1_2greenlinestimulus6.png,TMTstop-A_1_2redlinestimulus6.png,,26:52,2,2,,,,,,,,,0,1,1,1,0,8,8,8,,,,,,,,,,,,,,,,,,,,,,,29.27184919989668,None,['2'],1,[-0.0403701001778245],29.27184919989668,None,,001,2022_Jan_12_1715,TMTAstop-A,2021.2.3,142.5504561098374,
10,['3'],TMTstop-A_1_2linestimulus7.png,TMTstop-A_1_2greenlinestimulus7.png,TMTstop-A_1_2redlinestimulus7.png,,26:52,3,2,,,,,,,,,0,1,1,1,0,9,9,9,,,,,,,,,,,,,,,,,,,,,,,29.34128459985368,None,['3'],1,[0.02035750006325543],29.34128459985368,None,,001,2022_Jan_12_1715,TMTAstop-A,2021.2.3,142.5504561098374,
11,['1'],TMTstop-A_1_2linestimulus8.png,TMTstop-A_1_2greenlinestimulus8.png,TMTstop-A_1_2redlinestimulus8.png,,26:52,1,2,,,,,,,,,0,1,1,1,0,10,10,10,,,,,,,,,,,,,,,,,,,,,,,29.438555399887264,None,['1'],1,[0.07386020012199879],29.438555399887264,None,,001,2022_Jan_12_1715,TMTAstop-A,2021.2.3,142.5504561098374,
12,['2'],TMTstop-A_1_2linestimulus9.png,TMTstop-A_1_2greenlinestimulus9.png,TMTstop-A_1_2redlinestimulus9.png,,26:52,2,2,,,,,,,,,0,1,1,1,0,11,11,11,,,,,,,,,,,,,,,,,,,,,,,29.59132370003499,None,['2'],1,[-0.024778100196272135],29.59132370003499,None,,001,2022_Jan_12_1715,TMTAstop-A,2021.2.3,142.5504561098374,
13,['3'],TMTstop-A_1_2linestimulus10.png,TMTstop-A_1_2greenlinestimulus10.png,TMTstop-A_1_2redlinestimulus10.png,,26:52,3,2,,,,,,,,,0,1,1,1,0,12,12,12,,,,,,,,,,,,,,,,,,,,,,,29.667734999908134,None,['3'],1,[0.01752679981291294],29.667734999908134,None,,001,2022_Jan_12_1715,TMTAstop-A,2021.2.3,142.5504561098374,
14,['1'],TMTstop-A_1_2linestimulus11.png,TMTstop-A_1_2greenlinestimulus11.png,TMTstop-A_1_2redlinestimulus11.png,,26:52,1,2,,,,,,,,,0,1,1,1,0,13,13,13,,,,,,,,,,,,,,,,,,,,,,,29.765254499856383,None,['1'],1,[0.6340922000817955],29.765254499856383,None,,001,2022_Jan_12_1715,TMTAstop-A,2021.2.3,142.5504561098374,
15,['3'],TMTstop-A_1_2linestimulus12.png,TMTstop-A_1_2greenlinestimulus12.png,TMTstop-A_1_2redlinestimulus12.png,,26:52,3,2,,,,,,,,,0,1,1,1,0,14,14,14,,,,,,,,,,,,,,,,,,,,,,,30.47315129986964,None,['3'],1,[0.6771623999811709],30.47315129986964,None,,001,2022_Jan_12_1715,TMTAstop-A,2021.2.3,142.5504561098374,
16,['1'],TMTstop-A_1_2linestimulus13.png,TMTstop-A_1_2greenlinestimulus13.png,TMTstop-A_1_2redlinestimulus13.png,,26:52,1,2,,,,,,,,,0,1,1,1,0,15,15,15,,,,,,,,,,,,,,,,,,,,,,,31.216183400014415,None,['1'],1,[0.10197570011951029],31.216183400014415,None,,001,2022_Jan_12_1715,TMTAstop-A,2021.2.3,142.5504561098374,
17,['2'],TMTstop-A_1_2linestimulus14.png,TMTstop-A_1_2greenlinestimulus14.png,TMTstop-A_1_2redlinestimulus14.png,,26:52,2,2,,,,,,,,,0,1,1,1,0,16,16,16,,,,,,,,,,,,,,,,,,,,,,,31.40368329989724,None,['2'],1,[0.000946299871429801],31.40368329989724,None,,001,2022_Jan_12_1715,TMTAstop-A,2021.2.3,142.5504561098374,
18,['1'],TMTstop-A_1_2linestimulus15.png,TMTstop-A_1_2greenlinestimulus15.png,TMTstop-A_1_2redlinestimulus15.png,,26:52,1,2,,,,,,,,,0,1,1,1,0,17,17,17,,,,,,,,,,,,,,,,,,,,,,,31.480236700037494,None,"['3', '1']",1,"[0.03454569983296096, 0.4010302999522537]",31.480236700037494,None,,001,2022_Jan_12_1715,TMTAstop-A,2021.2.3,142.5504561098374,
19,['3'],TMTstop-A_1_2linestimulus16.png,TMTstop-A_1_2greenlinestimulus16.png,TMTstop-A_1_2redlinestimulus16.png,,26:52,3,2,,,,,,,,,0,1,1,1,0,18,18,18,,,,,,,,,,,,,,,,,,,,,,,31.959235299844295,None,"['2', '3']",1,"[0.0272365000564605, 0.11702209990471601]",31.959235299844295,None,,001,2022_Jan_12_1715,TMTAstop-A,2021.2.3,142.5504561098374,
20,['1'],TMTstop-A_1_2linestimulus17.png,TMTstop-A_1_2greenlinestimulus17.png,TMTstop-A_1_2redlinestimulus17.png,,26:52,1,2,,,,,,,,,0,1,1,1,0,19,19,19,,,,,,,,,,,,,,,,,,,,,,,32.181625599972904,None,['1'],1,[0.37961349985562265],32.181625599972904,None,,001,2022_Jan_12_1715,TMTAstop-A,2021.2.3,142.5504561098374,
21,['2'],TMTstop-A_1_2linestimulus18.png,TMTstop-A_1_2greenlinestimulus18.png,TMTstop-A_1_2redlinestimulus18.png,,26:52,2,2,,,,,,,,,0,1,1,1,0,20,20,20,,,,,,,,,,,,,,,,,,,,,,,32.639852799940854,None,['2'],1,[0.011138400062918663],32.639852799940854,None,,001,2022_Jan_12_1715,TMTAstop-A,2021.2.3,142.5504561098374,
22,['1'],TMTstop-A_1_2linestimulus19.png,TMTstop-A_1_2greenlinestimulus19.png,TMTstop-A_1_2redlinestimulus19.png,,26:52,1,2,,,,,,,,,0,1,1,1,0,21,21,21,,,,,,,,,,,,,,,,,,,,,,,32.723412699997425,None,"['3', '1']",1,"[0.04094600002281368, 0.5721199000254273]",32.723412699997425,None,,001,2022_Jan_12_1715,TMTAstop-A,2021.2.3,142.5504561098374,
23,['2'],TMTstop-A_1_2linestimulus20.png,TMTstop-A_1_2greenlinestimulus20.png,TMTstop-A_1_2redlinestimulus20.png,,26:52,2,2,,,,,,,,,0,1,1,1,0,22,22,22,,,,,,,,,,,,,,,,,,,,,,,33.375900799874216,None,['2'],1,[0.016301600029692054],33.375900799874216,None,,001,2022_Jan_12_1715,TMTAstop-A,2021.2.3,142.5504561098374,
24,['1'],TMTstop-A_1_2linestimulus21.png,TMTstop-A_1_2greenlinestimulus21.png,TMTstop-A_1_2redlinestimulus21.png,,26:52,1,2,,,,,,,,,0,1,1,1,0,23,23,23,,,,,,,,,,,,,,,,,,,,,,,33.480143500026315,None,['1'],1,[0.44304789998568594],33.480143500026315,None,,001,2022_Jan_12_1715,TMTAstop-A,2021.2.3,142.5504561098374,
25,['2'],TMTstop-A_1_2linestimulus22.png,TMTstop-A_1_2greenlinestimulus22.png,TMTstop-A_1_2redlinestimulus22.png,,26:52,2,2,,,,,,,,,0,1,1,1,0,24,24,24,,,,,,,,,,,,,,,,,,,,,,,33.99391179997474,None,['2'],1,[0.021388200111687183],33.99391179997474,None,,001,2022_Jan_12_1715,TMTAstop-A,2021.2.3,142.5504561098374,
None,None,TMTstop-A_1_2linestimulus23.png,TMTstop-A_1_2greenlinestimulus23.png,TMTstop-A_1_2redlinestimulus23.png,,26:52,None,2,,,,,,,,,0,1,1,1,0,25,25,25,,,,,,,,,,,,,,,,,,,,,,,34.09121139999479,None,None,1,,34.09121139999479,None,,001,2022_Jan_12_1715,TMTAstop-A,2021.2.3,142.5504561098374,
1,['2'],TMTstop-A_1_3.png,TMTstop-A_1_3.png,TMTstop-A_1_3.png,,52:78,2,3,,,,,,,,,0,2,2,2,0,0,0,0,,,,,,,,,,,,,,,,,,,,,,,35.23008739994839,None,['2'],1,[0.5648380999919027],35.23008739994839,None,,001,2022_Jan_12_1715,TMTAstop-A,2021.2.3,142.5504561098374,
2,['1'],TMTstop-A_1_3.png,TMTstop-A_1_3firstgreen.png,TMTstop-A_1_3firstred.png,,52:78,1,3,,,,,,,,,0,2,2,2,0,1,1,1,,,,,,,,,,,,,,,,,,,,,,,35.868797400034964,None,"['3', '1']",1,"[0.11880769999697804, 0.20066219987347722]",35.868797400034964,None,,001,2022_Jan_12_1715,TMTAstop-A,2021.2.3,142.5504561098374,
3,['3'],TMTstop-A_1_3linestimulus0.png,TMTstop-A_1_3greenlinestimulus0.png,TMTstop-A_1_3redlinestimulus0.png,,52:78,3,3,,,,,,,,,0,2,2,2,0,2,2,2,,,,,,,,,,,,,,,,,,,,,,,36.132859899895266,None,"['2', '3']",1,"[0.06017909990623593, 0.1828915998339653]",36.132859899895266,None,,001,2022_Jan_12_1715,TMTAstop-A,2021.2.3,142.5504561098374,
4,['2'],TMTstop-A_1_3linestimulus1.png,TMTstop-A_1_3greenlinestimulus1.png,TMTstop-A_1_3redlinestimulus1.png,,52:78,2,3,,,,,,,,,0,2,2,2,0,3,3,3,,,,,,,,,,,,,,,,,,,,,,,36.42441469989717,None,"['1', '2']",1,"[0.0657395999878645, 0.11762769985944033]",36.42441469989717,None,,001,2022_Jan_12_1715,TMTAstop-A,2021.2.3,142.5504561098374,
5,['3'],TMTstop-A_1_3linestimulus2.png,TMTstop-A_1_3greenlinestimulus2.png,TMTstop-A_1_3redlinestimulus2.png,,52:78,3,3,,,,,,,,,0,2,2,2,0,4,4,4,,,,,,,,,,,,,,,,,,,,,,,36.62731879996136,None,['3'],1,[0.03230700013227761],36.62731879996136,None,,001,2022_Jan_12_1715,TMTAstop-A,2021.2.3,142.5504561098374,
6,['2'],TMTstop-A_1_3linestimulus3.png,TMTstop-A_1_3greenlinestimulus3.png,TMTstop-A_1_3redlinestimulus3.png,,52:78,2,3,,,,,,,,,0,2,2,2,0,5,5,5,,,,,,,,,,,,,,,,,,,,,,,36.75223149987869,None,"['1', '2']",1,"[0.06158290011808276, 0.10317330015823245]",36.75223149987869,None,,001,2022_Jan_12_1715,TMTAstop-A,2021.2.3,142.5504561098374,
7,['1'],TMTstop-A_1_3linestimulus4.png,TMTstop-A_1_3greenlinestimulus4.png,TMTstop-A_1_3redlinestimulus4.png,,52:78,1,3,,,,,,,,,0,2,2,2,0,6,6,6,,,,,,,,,,,,,,,,,,,,,,,36.952787899877876,None,"['3', '1']",1,"[0.0324172000400722, 0.17470240010879934]",36.952787899877876,None,,001,2022_Jan_12_1715,TMTAstop-A,2021.2.3,142.5504561098374,
8,['2'],TMTstop-A_1_3linestimulus5.png,TMTstop-A_1_3greenlinestimulus5.png,TMTstop-A_1_3redlinestimulus5.png,,52:78,2,3,,,,,,,,,0,2,2,2,0,7,7,7,,,,,,,,,,,,,,,,,,,,,,,37.22305219992995,None,['2'],1,[-0.03429660014808178],37.22305219992995,None,,001,2022_Jan_12_1715,TMTAstop-A,2021.2.3,142.5504561098374,
9,['3'],TMTstop-A_1_3linestimulus6.png,TMTstop-A_1_3greenlinestimulus6.png,TMTstop-A_1_3redlinestimulus6.png,,52:78,3,3,,,,,,,,,0,2,2,2,0,8,8,8,,,,,,,,,,,,,,,,,,,,,,,37.2924460999202,None,['3'],1,[0.021656200056895614],37.2924460999202,None,,001,2022_Jan_12_1715,TMTAstop-A,2021.2.3,142.5504561098374,
10,['2'],TMTstop-A_1_3linestimulus7.png,TMTstop-A_1_3greenlinestimulus7.png,TMTstop-A_1_3redlinestimulus7.png,,52:78,2,3,,,,,,,,,0,2,2,2,0,9,9,9,,,,,,,,,,,,,,,,,,,,,,,37.389956099912524,None,"['1', '2']",1,"[0.08684380003251135, 0.14361119992099702]",37.389956099912524,None,,001,2022_Jan_12_1715,TMTAstop-A,2021.2.3,142.5504561098374,
11,['3'],TMTstop-A_1_3linestimulus8.png,TMTstop-A_1_3greenlinestimulus8.png,TMTstop-A_1_3redlinestimulus8.png,,52:78,3,3,,,,,,,,,0,2,2,2,0,10,10,10,,,,,,,,,,,,,,,,,,,,,,,37.6324803000316,None,['3'],1,[0.019598199985921383],37.6324803000316,None,,001,2022_Jan_12_1715,TMTAstop-A,2021.2.3,142.5504561098374,
12,['2'],TMTstop-A_1_3linestimulus9.png,TMTstop-A_1_3greenlinestimulus9.png,TMTstop-A_1_3redlinestimulus9.png,,52:78,2,3,,,,,,,,,0,2,2,2,0,11,11,11,,,,,,,,,,,,,,,,,,,,,,,37.7303219998721,None,"['1', '2']",1,"[0.0776615000795573, 0.12633110000751913]",37.7303219998721,None,,001,2022_Jan_12_1715,TMTAstop-A,2021.2.3,142.5504561098374,
13,['1'],TMTstop-A_1_3linestimulus10.png,TMTstop-A_1_3greenlinestimulus10.png,TMTstop-A_1_3redlinestimulus10.png,,52:78,1,3,,,,,,,,,0,2,2,2,0,12,12,12,,,,,,,,,,,,,,,,,,,,,,,37.966079300036654,None,"['3', '1']",1,"[0.018920900067314506, 0.16496570012532175]",37.966079300036654,None,,001,2022_Jan_12_1715,TMTAstop-A,2021.2.3,142.5504561098374,
14,['2'],TMTstop-A_1_3linestimulus11.png,TMTstop-A_1_3greenlinestimulus11.png,TMTstop-A_1_3redlinestimulus11.png,,52:78,2,3,,,,,,,,,0,2,2,2,0,13,13,13,,,,,,,,,,,,,,,,,,,,,,,38.21612759982236,None,['2'],1,[-0.01913220016285777],38.21612759982236,None,,001,2022_Jan_12_1715,TMTAstop-A,2021.2.3,142.5504561098374,
15,['1'],TMTstop-A_1_3linestimulus12.png,TMTstop-A_1_3greenlinestimulus12.png,TMTstop-A_1_3redlinestimulus12.png,,52:78,1,3,,,,,,,,,0,2,2,2,0,14,14,14,,,,,,,,,,,,,,,,,,,,,,,38.292385699925944,None,"['3', '1']",1,"[0.04131279978901148, 0.20044499984942377]",38.292385699925944,None,,001,2022_Jan_12_1715,TMTAstop-A,2021.2.3,142.5504561098374,
16,['2'],TMTstop-A_1_3linestimulus13.png,TMTstop-A_1_3greenlinestimulus13.png,TMTstop-A_1_3redlinestimulus13.png,,52:78,2,3,,,,,,,,,0,2,2,2,0,15,15,15,,,,,,,,,,,,,,,,,,,,,,,38.5771893998608,None,['2'],1,[-0.028422200120985508],38.5771893998608,None,,001,2022_Jan_12_1715,TMTAstop-A,2021.2.3,142.5504561098374,
17,['3'],TMTstop-A_1_3linestimulus14.png,TMTstop-A_1_3greenlinestimulus14.png,TMTstop-A_1_3redlinestimulus14.png,,52:78,3,3,,,,,,,,,0,2,2,2,0,16,16,16,,,,,,,,,,,,,,,,,,,,,,,38.65384199982509,None,['3'],1,[0.03294659988023341],38.65384199982509,None,,001,2022_Jan_12_1715,TMTAstop-A,2021.2.3,142.5504561098374,
18,['2'],TMTstop-A_1_3linestimulus15.png,TMTstop-A_1_3greenlinestimulus15.png,TMTstop-A_1_3redlinestimulus15.png,,52:78,2,3,,,,,,,,,0,2,2,2,0,17,17,17,,,,,,,,,,,,,,,,,,,,,,,38.77307110000402,None,"['1', '2']",1,"[0.07340850005857646, 0.11233019991777837]",38.77307110000402,None,,001,2022_Jan_12_1715,TMTAstop-A,2021.2.3,142.5504561098374,
19,['1'],TMTstop-A_1_3linestimulus16.png,TMTstop-A_1_3greenlinestimulus16.png,TMTstop-A_1_3redlinestimulus16.png,,52:78,1,3,,,,,,,,,0,2,2,2,0,18,18,18,,,,,,,,,,,,,,,,,,,,,,,38.973482799949124,None,"['3', '1']",1,"[0.040667599998414516, 0.1984061999246478]",38.973482799949124,None,,001,2022_Jan_12_1715,TMTAstop-A,2021.2.3,142.5504561098374,
20,['2'],TMTstop-A_1_3linestimulus17.png,TMTstop-A_1_3greenlinestimulus17.png,TMTstop-A_1_3redlinestimulus17.png,,52:78,2,3,,,,,,,,,0,2,2,2,0,19,19,19,,,,,,,,,,,,,,,,,,,,,,,39.25788249983452,None,['2'],1,[-0.026956999907270074],39.25788249983452,None,,001,2022_Jan_12_1715,TMTAstop-A,2021.2.3,142.5504561098374,
21,['3'],TMTstop-A_1_3linestimulus18.png,TMTstop-A_1_3greenlinestimulus18.png,TMTstop-A_1_3redlinestimulus18.png,,52:78,3,3,,,,,,,,,0,2,2,2,0,20,20,20,,,,,,,,,,,,,,,,,,,,,,,39.327063999837264,None,"['1', '2', '3']",1,"[0.19932319992221892, 0.2504992000758648, 0.36883049993775785]",39.327063999837264,None,,001,2022_Jan_12_1715,TMTAstop-A,2021.2.3,142.5504561098374,
22,['1'],TMTstop-A_1_3linestimulus19.png,TMTstop-A_1_3greenlinestimulus19.png,TMTstop-A_1_3redlinestimulus19.png,,52:78,1,3,,,,,,,,,0,2,2,2,0,21,21,21,,,,,,,,,,,,,,,,,,,,,,,39.78587509994395,None,['1'],1,[0.11219869996421039],39.78587509994395,None,,001,2022_Jan_12_1715,TMTAstop-A,2021.2.3,142.5504561098374,
23,['3'],TMTstop-A_1_3linestimulus20.png,TMTstop-A_1_3greenlinestimulus20.png,TMTstop-A_1_3redlinestimulus20.png,,52:78,3,3,,,,,,,,,0,2,2,2,0,22,22,22,,,,,,,,,,,,,,,,,,,,,,,39.98019120004028,None,"['2', '2', '3']",1,"[-0.042244199896231294, 0.5510897999629378, 0.9376986999996006]",39.98019120004028,None,,001,2022_Jan_12_1715,TMTAstop-A,2021.2.3,142.5504561098374,
24,['1'],TMTstop-A_1_3linestimulus21.png,TMTstop-A_1_3greenlinestimulus21.png,TMTstop-A_1_3redlinestimulus21.png,,52:78,1,3,,,,,,,,,0,2,2,2,0,23,23,23,,,,,,,,,,,,,,,,,,,,,,,41.05612459988333,None,"['3', '1']",1,"[0.5896924999542534, 0.8614171999506652]",41.05612459988333,None,,001,2022_Jan_12_1715,TMTAstop-A,2021.2.3,142.5504561098374,
25,['3'],TMTstop-A_1_3linestimulus22.png,TMTstop-A_1_3greenlinestimulus22.png,TMTstop-A_1_3redlinestimulus22.png,,52:78,3,3,,,,,,,,,0,2,2,2,0,24,24,24,,,,,,,,,,,,,,,,,,,,,,,42.021387699991465,None,"['2', '1', '3']",1,"[-0.06890349998138845, 0.5896817999891937, 0.6694628000259399]",42.021387699991465,None,,001,2022_Jan_12_1715,TMTAstop-A,2021.2.3,142.5504561098374,
None,None,TMTstop-A_1_3linestimulus23.png,TMTstop-A_1_3greenlinestimulus23.png,TMTstop-A_1_3redlinestimulus23.png,,52:78,None,3,,,,,,,,,0,2,2,2,0,25,25,25,,,,,,,,,,,,,,,,,,,,,,,42.814156000036746,None,None,1,,42.814156000036746,None,,001,2022_Jan_12_1715,TMTAstop-A,2021.2.3,142.5504561098374,
