NumberLetter,corrAns,Correct,StimFile,Correct_StimFile,False_StimFile,Version,Paper,TrialNumber_Version,Round,Block,TrialNumber_total,n,Stim.started_mean,Stim.started_raw,Stim.started_std,Stim.stopped_raw,key_resp_2.corr_mean,key_resp_2.corr_raw,key_resp_2.corr_std,key_resp_2.keys_raw,key_resp_2.rt_raw,key_resp_2.started_mean,key_resp_2.started_raw,key_resp_2.started_std,key_resp_2.stopped_raw,order
1,['2'],2.0,Images/TMTstop-control_1_13.png,Images/TMTstop-control_1_13.png,Images/TMTstop-control_1_13.png,TMT_Control,C13,301.0,7.0,7.0,301.0,1.0,497.09490966796875,497.09490966796875,0.0,,1.0,1.0,0.0,1,2,1.9310605999780819,2.046941999986302,497.09490966796875,497.09490966796875,0.0,,0.0
2,['1'],1.0,Images/TMTstop-control_1_13.png,Images/TMTstop-control_1_13firstgreen.png,Images/TMTstop-control_1_13firstred.png,TMT_Control,C13,302.0,None,7.0,302.0,1.0,499.2078552246094,499.2078552246094,0.0,,1.0,1.0,0.0,3,1,0.020870600012131035,0.20649780001258478,499.2078552246094,499.2078552246094,0.0,,1.0
3,['2'],2.0,Images/TMTstop-control_1_13linestimulus0.png,Images/TMTstop-control_1_13greenlinestimulus0.png,Images/TMTstop-control_1_13redlinestimulus0.png,TMT_Control,C13,303.0,None,7.0,303.0,1.0,499.5119934082031,499.5119934082031,0.0,,1.0,1.0,0.0,2,-0.03701239998918027,499.5119934082031,499.5119934082031,0.0,,2.0
4,['1'],1.0,Images/TMTstop-control_1_13linestimulus1.png,Images/TMTstop-control_1_13greenlinestimulus1.png,Images/TMTstop-control_1_13redlinestimulus1.png,TMT_Control,C13,304.0,None,7.0,304.0,1.0,499.56243896484375,499.56243896484375,0.0,,1.0,1.0,0.0,3,1,2,3,1,0.03521939995698631,0.20738019997952506,0.23993679997511208,0.389965399983339,0.5146481999545358,499.56243896484375,499.56243896484375,0.0,,3.0
5,['2'],2.0,Images/TMTstop-control_1_13linestimulus2.png,Images/TMTstop-control_1_13greenlinestimulus2.png,Images/TMTstop-control_1_13redlinestimulus2.png,TMT_Control,C13,305.0,None,7.0,305.0,1.0,500.1293029785156,500.1293029785156,0.0,,1.0,1.0,0.0,2,-0.02492519997758791,500.1293029785156,500.1293029785156,0.0,,4.0
6,['3'],3.0,Images/TMTstop-control_1_13linestimulus3.png,Images/TMTstop-control_1_13greenlinestimulus3.png,Images/TMTstop-control_1_13redlinestimulus3.png,TMT_Control,C13,306.0,None,7.0,306.0,1.0,500.185546875,500.185546875,0.0,,1.0,1.0,0.0,3,0.021317000035196543,500.185546875,500.185546875,0.0,,5.0
7,['2'],2.0,Images/TMTstop-control_1_13linestimulus4.png,Images/TMTstop-control_1_13greenlinestimulus4.png,Images/TMTstop-control_1_13redlinestimulus4.png,TMT_Control,C13,307.0,None,7.0,307.0,1.0,500.2684020996094,500.2684020996094,0.0,,1.0,1.0,0.0,1,2,0.09256640000967309,0.16552989999763668,500.2684020996094,500.2684020996094,0.0,,6.0
8,['1'],1.0,Images/TMTstop-control_1_13linestimulus4.png,Images/TMTstop-control_1_13greenlinestimulus5.png,Images/TMTstop-control_1_13redlinestimulus5.png,TMT_Control,C13,308.0,None,7.0,308.0,1.0,500.5285949707031,500.5285949707031,0.0,,1.0,1.0,0.0,3,1,-0.03250060003483668,0.1302486999775283,500.5285949707031,500.5285949707031,0.0,,7.0
9,['3'],3.0,Images/TMTstop-control_1_13linestimulus6.png,Images/TMTstop-control_1_13greenlinestimulus6.png,Images/TMTstop-control_1_13redlinestimulus6.png,TMT_Control,C13,309.0,None,7.0,309.0,1.0,500.728759765625,500.728759765625,0.0,,1.0,1.0,0.0,2,3,0.03308860003016889,0.11992810002993792,500.728759765625,500.728759765625,0.0,,8.0
10,['1'],1.0,Images/TMTstop-control_1_13linestimulus7.png,Images/TMTstop-control_1_13greenlinestimulus7.png,Images/TMTstop-control_1_13redlinestimulus7.png,TMT_Control,C13,310.0,None,7.0,310.0,1.0,500.91644287109375,500.91644287109375,0.0,,1.0,1.0,0.0,1,0.299111999978777,500.91644287109375,500.91644287109375,0.0,,9.0
11,['2'],2.0,Images/TMTstop-control_1_13linestimulus8.png,Images/TMTstop-control_1_13greenlinestimulus8.png,Images/TMTstop-control_1_13redlinestimulus8.png,TMT_Control,C13,311.0,None,7.0,311.0,1.0,501.27838134765625,501.27838134765625,0.0,,1.0,1.0,0.0,2,-0.030326100008096546,501.27838134765625,501.27838134765625,0.0,,10.0
12,['3'],3.0,Images/TMTstop-control_1_13linestimulus9.png,Images/TMTstop-control_1_13greenlinestimulus9.png,Images/TMTstop-control_1_13redlinestimulus9.png,TMT_Control,C13,312.0,None,7.0,312.0,1.0,501.3280944824219,501.3280944824219,0.0,,1.0,1.0,0.0,3,0.049178100016433746,501.3280944824219,501.3280944824219,0.0,,11.0
13,['2'],2.0,Images/TMTstop-control_1_13linestimulus10.png,Images/TMTstop-control_1_13greenlinestimulus10.png,Images/TMTstop-control_1_13redlinestimulus10.png,TMT_Control,C13,313.0,None,7.0,313.0,1.0,501.4278869628906,501.4278869628906,0.0,,1.0,1.0,0.0,1,2,0.1300121999811381,0.1779934000223875,501.4278869628906,501.4278869628906,0.0,,12.0
14,['1'],1.0,Images/TMTstop-control_1_13linestimulus11.png,Images/TMTstop-control_1_13greenlinestimulus11.png,Images/TMTstop-control_1_13redlinestimulus11.png,TMT_Control,C13,314.0,None,7.0,314.0,1.0,501.7012939453125,501.7012939453125,0.0,,1.0,1.0,0.0,3,1,-0.0022747000330127776,0.14857199997641146,501.7012939453125,501.7012939453125,0.0,,13.0
15,['2'],2.0,Images/TMTstop-control_1_13linestimulus12.png,Images/TMTstop-control_1_13greenlinestimulus12.png,Images/TMTstop-control_1_13redlinestimulus12.png,TMT_Control,C13,315.0,None,7.0,315.0,1.0,501.9151916503906,501.9151916503906,0.0,,1.0,1.0,0.0,2,-0.015683599980548024,501.9151916503906,501.9151916503906,0.0,,14.0
16,['1'],1.0,Images/TMTstop-control_1_13linestimulus13.png,Images/TMTstop-control_1_13greenlinestimulus13.png,Images/TMTstop-control_1_13redlinestimulus13.png,TMT_Control,C13,316.0,None,7.0,316.0,1.0,501.9652404785156,501.9652404785156,0.0,,1.0,1.0,0.0,3,1,2,3,1,0.019207899982575327,0.1725072999834083,0.1986633000196889,0.31017970002721995,0.45663640002021566,501.9652404785156,501.9652404785156,0.0,,15.0
17,['2'],2.0,Images/TMTstop-control_1_13linestimulus14.png,Images/TMTstop-control_1_13greenlinestimulus14.png,Images/TMTstop-control_1_13redlinestimulus14.png,TMT_Control,C13,317.0,None,7.0,317.0,1.0,502.515869140625,502.515869140625,0.0,,1.0,1.0,0.0,2,-0.04750119999516755,502.515869140625,502.515869140625,0.0,,16.0
18,['1'],1.0,Images/TMTstop-control_1_13linestimulus15.png,Images/TMTstop-control_1_13greenlinestimulus15.png,Images/TMTstop-control_1_13redlinestimulus15.png,TMT_Control,C13,318.0,None,7.0,318.0,1.0,502.5683898925781,502.5683898925781,0.0,,1.0,1.0,0.0,3,1,-0.005783799977507442,0.24741549999453127,502.5683898925781,502.5683898925781,0.0,,17.0
19,['3'],3.0,Images/TMTstop-control_1_13linestimulus16.png,Images/TMTstop-control_1_13greenlinestimulus16.png,Images/TMTstop-control_1_13redlinestimulus16.png,TMT_Control,C13,319.0,None,7.0,319.0,1.0,502.87939453125,502.87939453125,0.0,,1.0,1.0,0.0,2,3,-0.04547469998942688,0.09827290003886446,502.87939453125,502.87939453125,0.0,,18.0
20,['2'],2.0,Images/TMTstop-control_1_13linestimulus17.png,Images/TMTstop-control_1_13greenlinestimulus17.png,Images/TMTstop-control_1_13redlinestimulus17.png,TMT_Control,C13,320.0,None,7.0,320.0,1.0,503.03399658203125,503.03399658203125,0.0,,1.0,1.0,0.0,1,2,0.1490468999836594,0.1909307999885641,503.03399658203125,503.03399658203125,0.0,,19.0
21,['1'],1.0,Images/TMTstop-control_1_13linestimulus18.png,Images/TMTstop-control_1_13greenlinestimulus18.png,Images/TMTstop-control_1_13redlinestimulus18.png,TMT_Control,C13,321.0,None,7.0,321.0,1.0,503.2839050292969,503.2839050292969,0.0,,1.0,1.0,0.0,3,1,0.0801111999899149,0.4887657000217587,503.2839050292969,503.2839050292969,0.0,,20.0
22,['2'],2.0,Images/TMTstop-control_1_13linestimulus19.png,Images/TMTstop-control_1_13greenlinestimulus19.png,Images/TMTstop-control_1_13redlinestimulus19.png,TMT_Control,C13,322.0,None,7.0,322.0,1.0,503.825927734375,503.825927734375,0.0,,1.0,1.0,0.0,2,-0.0070254000020213425,503.825927734375,503.825927734375,0.0,,21.0
23,['3'],3.0,Images/TMTstop-control_1_13linestimulus20.png,Images/TMTstop-control_1_13greenlinestimulus20.png,Images/TMTstop-control_1_13redlinestimulus20.png,TMT_Control,C13,323.0,None,7.0,323.0,1.0,503.8765563964844,503.8765563964844,0.0,,1.0,1.0,0.0,3,0.08314219996100292,503.8765563964844,503.8765563964844,0.0,,22.0
24,['1'],1.0,Images/TMTstop-control_1_13linestimulus21.png,Images/TMTstop-control_1_13greenlinestimulus21.png,Images/TMTstop-control_1_13redlinestimulus21.png,TMT_Control,C13,324.0,None,7.0,324.0,1.0,504.01007080078125,504.01007080078125,0.0,,1.0,1.0,0.0,1,0.11046940000960603,504.01007080078125,504.01007080078125,0.0,,23.0
25,['3'],3.0,Images/TMTstop-control_1_13linestimulus22.png,Images/TMTstop-control_1_13greenlinestimulus22.png,Images/TMTstop-control_1_13redlinestimulus22.png,TMT_Control,C13,325.0,None,7.0,325.0,1.0,504.1844482421875,504.1844482421875,0.0,,1.0,1.0,0.0,2,3,-0.01265150000108406,0.07247579999966547,504.1844482421875,504.1844482421875,0.0,,24.0
None,None,None,Images/TMTstop-control_1_13linestimulus23.png,Images/TMTstop-control_1_13greenlinestimulus23.png,Images/TMTstop-control_1_13redlinestimulus23.png,TMT_Control,C13,Feedback_last,None,7.0,Feedback_last,1.0,504.3473205566406,504.3473205566406,0.0,,0.0,0.0,0.0,1,2,3,0.0725032000336796,0.12796840001828969,0.21676270000170916,504.3473205566406,504.3473205566406,0.0,,25.0

extraInfo
participant,
session,001
date,2022_Dec_20_1655
expName,TMT_fmri
psychopyVersion,2021.2.3
frameRate,59.88583364190807
﻿NumberLetter,corrAns,Correct,StimFile,Correct_StimFile,False_StimFile,Version,Paper,TrialNumber_Version,Round,Block,TrialNumber_total,n,Stim.started_mean,Stim.started_raw,Stim.started_std,Stim.stopped_raw,key_resp_2.corr_mean,key_resp_2.corr_raw,key_resp_2.corr_std,key_resp_2.keys_raw,key_resp_2.rt_raw,key_resp_2.started_mean,key_resp_2.started_raw,key_resp_2.started_std,key_resp_2.stopped_raw,order
1,['2'],2.0,Images/TMTstop-control_1_14.png,Images/TMTstop-control_1_14.png,Images/TMTstop-control_1_14.png,TMT_Control,C14,326.0,None,7.0,326.0,1.0,508.7759704589844,508.7759704589844,0.0,,1.0,1.0,0.0,1,2,0.6172454000334255,0.7110437999945134,508.7759704589844,508.7759704589844,0.0,,0.0
2,['3'],3.0,Images/TMTstop-control_1_14.png,Images/TMTstop-control_1_14firstgreen.png,Images/TMTstop-control_1_14firstred.png,TMT_Control,C14,327.0,None,7.0,327.0,1.0,509.5694885253906,509.5694885253906,0.0,,1.0,1.0,0.0,3,-0.030470099998638034,509.5694885253906,509.5694885253906,0.0,,1.0
3,['2'],2.0,Images/TMTstop-control_1_14linestimulus0.png,Images/TMTstop-control_1_14greenlinestimulus0.png,Images/TMTstop-control_1_14redlinestimulus0.png,TMT_Control,C14,328.0,None,7.0,328.0,1.0,509.6240234375,509.6240234375,0.0,,1.0,1.0,0.0,1,2,0.1365493999910541,0.16091999999480322,509.6240234375,509.6240234375,0.0,,2.0
4,['1'],1.0,Images/TMTstop-control_1_14linestimulus1.png,Images/TMTstop-control_1_14greenlinestimulus1.png,Images/TMTstop-control_1_14redlinestimulus1.png,TMT_Control,C14,329.0,None,7.0,329.0,1.0,509.8641662597656,509.8641662597656,0.0,,1.0,1.0,0.0,3,1,0.07736360002309084,0.2005944999982603,509.8641662597656,509.8641662597656,0.0,,3.0
5,['3'],3.0,Images/TMTstop-control_1_14linestimulus2.png,Images/TMTstop-control_1_14greenlinestimulus2.png,Images/TMTstop-control_1_14redlinestimulus2.png,TMT_Control,C14,330.0,None,7.0,330.0,1.0,510.1589660644531,510.1589660644531,0.0,,1.0,1.0,0.0,2,3,-0.03771879995474592,0.03502120001940057,510.1589660644531,510.1589660644531,0.0,,4.0
6,['1'],1.0,Images/TMTstop-control_1_14linestimulus3.png,Images/TMTstop-control_1_14greenlinestimulus3.png,Images/TMTstop-control_1_14redlinestimulus3.png,TMT_Control,C14,331.0,None,7.0,331.0,1.0,510.259033203125,510.259033203125,0.0,,1.0,1.0,0.0,1,0.07611339999129996,510.259033203125,510.259033203125,0.0,,5.0
7,['2'],2.0,Images/TMTstop-control_1_14linestimulus4.png,Images/TMTstop-control_1_14greenlinestimulus4.png,Images/TMTstop-control_1_14redlinestimulus4.png,TMT_Control,C14,332.0,None,7.0,332.0,1.0,510.3925476074219,510.3925476074219,0.0,,1.0,1.0,0.0,2,-0.01726200000848621,510.3925476074219,510.3925476074219,0.0,,6.0
8,['1'],1.0,Images/TMTstop-control_1_14linestimulus4.png,Images/TMTstop-control_1_14greenlinestimulus5.png,Images/TMTstop-control_1_14redlinestimulus5.png,TMT_Control,C14,333.0,None,7.0,333.0,1.0,510.4470520019531,510.4470520019531,0.0,,1.0,1.0,0.0,3,1,2,3,1,0.01594370004022494,0.15496860002167523,0.18223740003304556,0.2929557000170462,0.4369476000429131,510.4470520019531,510.4470520019531,0.0,,7.0
9,['3'],3.0,Images/TMTstop-control_1_14linestimulus6.png,Images/TMTstop-control_1_14greenlinestimulus6.png,Images/TMTstop-control_1_14redlinestimulus6.png,TMT_Control,C14,334.0,None,7.0,334.0,1.0,510.9374084472656,510.9374084472656,0.0,,1.0,1.0,0.0,2,3,-0.03665640001418069,0.11461779999081045,510.9374084472656,510.9374084472656,0.0,,8.0
10,['1'],1.0,Images/TMTstop-control_1_14linestimulus7.png,Images/TMTstop-control_1_14greenlinestimulus7.png,Images/TMTstop-control_1_14redlinestimulus7.png,TMT_Control,C14,335.0,None,7.0,335.0,1.0,511.1386413574219,511.1386413574219,0.0,,1.0,1.0,0.0,1,0.0664526000036858,511.1386413574219,511.1386413574219,0.0,,9.0
11,['2'],2.0,Images/TMTstop-control_1_14linestimulus8.png,Images/TMTstop-control_1_14greenlinestimulus8.png,Images/TMTstop-control_1_14redlinestimulus8.png,TMT_Control,C14,336.0,None,7.0,336.0,1.0,511.272216796875,511.272216796875,0.0,,1.0,1.0,0.0,2,-0.01825790002476424,511.272216796875,511.272216796875,0.0,,10.0
12,['3'],3.0,Images/TMTstop-control_1_14linestimulus9.png,Images/TMTstop-control_1_14greenlinestimulus9.png,Images/TMTstop-control_1_14redlinestimulus9.png,TMT_Control,C14,337.0,None,7.0,337.0,1.0,511.3223571777344,511.3223571777344,0.0,,1.0,1.0,0.0,3,0.027607500029262155,511.3223571777344,511.3223571777344,0.0,,11.0
13,['2'],2.0,Images/TMTstop-control_1_14linestimulus10.png,Images/TMTstop-control_1_14greenlinestimulus10.png,Images/TMTstop-control_1_14redlinestimulus10.png,TMT_Control,C14,338.0,None,7.0,338.0,1.0,511.4221496582031,511.4221496582031,0.0,,1.0,1.0,0.0,1,2,0.1548841999610886,0.2397060999646783,511.4221496582031,511.4221496582031,0.0,,12.0
14,['3'],3.0,Images/TMTstop-control_1_14linestimulus11.png,Images/TMTstop-control_1_14greenlinestimulus11.png,Images/TMTstop-control_1_14redlinestimulus11.png,TMT_Control,C14,339.0,None,7.0,339.0,1.0,511.73321533203125,511.73321533203125,0.0,,1.0,1.0,0.0,3,0.0138130999985151,511.73321533203125,511.73321533203125,0.0,,13.0
15,['1'],1.0,Images/TMTstop-control_1_14linestimulus12.png,Images/TMTstop-control_1_14greenlinestimulus12.png,Images/TMTstop-control_1_14redlinestimulus12.png,TMT_Control,C14,340.0,None,7.0,340.0,1.0,511.8219909667969,511.8219909667969,0.0,,1.0,1.0,0.0,1,0.10115130001213402,511.8219909667969,511.8219909667969,0.0,,14.0
16,['2'],2.0,Images/TMTstop-control_1_14linestimulus13.png,Images/TMTstop-control_1_14greenlinestimulus13.png,Images/TMTstop-control_1_14redlinestimulus13.png,TMT_Control,C14,341.0,None,7.0,341.0,1.0,511.9725646972656,511.9725646972656,0.0,,1.0,1.0,0.0,2,0.00034200004301965237,511.9725646972656,511.9725646972656,0.0,,15.0
17,['3'],3.0,Images/TMTstop-control_1_14linestimulus14.png,Images/TMTstop-control_1_14greenlinestimulus14.png,Images/TMTstop-control_1_14redlinestimulus14.png,TMT_Control,C14,342.0,None,7.0,342.0,1.0,512.0223999023438,512.0223999023438,0.0,,1.0,1.0,0.0,3,0.025214699970092624,512.0223999023438,512.0223999023438,0.0,,16.0
18,['2'],2.0,Images/TMTstop-control_1_14linestimulus15.png,Images/TMTstop-control_1_14greenlinestimulus15.png,Images/TMTstop-control_1_14redlinestimulus15.png,TMT_Control,C14,343.0,None,7.0,343.0,1.0,512.1055908203125,512.1055908203125,0.0,,1.0,1.0,0.0,1,2,0.0964733999571763,0.11998459999449551,512.1055908203125,512.1055908203125,0.0,,17.0
19,['1'],1.0,Images/TMTstop-control_1_14linestimulus16.png,Images/TMTstop-control_1_14greenlinestimulus16.png,Images/TMTstop-control_1_14redlinestimulus16.png,TMT_Control,C14,344.0,None,7.0,344.0,1.0,512.3060913085938,512.3060913085938,0.0,,1.0,1.0,0.0,3,1,0.02447479998227209,0.18656090000877157,512.3060913085938,512.3060913085938,0.0,,18.0
20,['2'],2.0,Images/TMTstop-control_1_14linestimulus17.png,Images/TMTstop-control_1_14greenlinestimulus17.png,Images/TMTstop-control_1_14redlinestimulus17.png,TMT_Control,C14,345.0,None,7.0,345.0,1.0,512.5433959960938,512.5433959960938,0.0,,1.0,1.0,0.0,2,-0.01937059999909252,512.5433959960938,512.5433959960938,0.0,,19.0
21,['3'],3.0,Images/TMTstop-control_1_14linestimulus18.png,Images/TMTstop-control_1_14greenlinestimulus18.png,Images/TMTstop-control_1_14redlinestimulus18.png,TMT_Control,C14,346.0,None,7.0,346.0,1.0,512.5936889648438,512.5936889648438,0.0,,1.0,1.0,0.0,3,0.028988200007006526,512.5936889648438,512.5936889648438,0.0,,20.0
22,['2'],2.0,Images/TMTstop-control_1_14linestimulus19.png,Images/TMTstop-control_1_14greenlinestimulus19.png,Images/TMTstop-control_1_14redlinestimulus19.png,TMT_Control,C14,347.0,None,7.0,347.0,1.0,512.6937866210938,512.6937866210938,0.0,,1.0,1.0,0.0,1,2,0.08672479999950156,0.1309707000036724,512.6937866210938,512.6937866210938,0.0,,21.0
23,['1'],1.0,Images/TMTstop-control_1_14linestimulus20.png,Images/TMTstop-control_1_14greenlinestimulus20.png,Images/TMTstop-control_1_14redlinestimulus20.png,TMT_Control,C14,348.0,None,7.0,348.0,1.0,512.8941040039062,512.8941040039062,0.0,,1.0,1.0,0.0,3,1,0.03472250001505017,0.182952800008934,512.8941040039062,512.8941040039062,0.0,,22.0
24,['2'],2.0,Images/TMTstop-control_1_14linestimulus21.png,Images/TMTstop-control_1_14greenlinestimulus21.png,Images/TMTstop-control_1_14redlinestimulus21.png,TMT_Control,C14,349.0,None,7.0,349.0,1.0,513.1405639648438,513.1405639648438,0.0,,1.0,1.0,0.0,2,-0.006383400002960116,513.1405639648438,513.1405639648438,0.0,,23.0
25,['3'],3.0,Images/TMTstop-control_1_14linestimulus22.png,Images/TMTstop-control_1_14greenlinestimulus22.png,Images/TMTstop-control_1_14redlinestimulus22.png,TMT_Control,C14,350.0,None,7.0,350.0,1.0,513.1907348632812,513.1907348632812,0.0,,1.0,1.0,0.0,3,0.012299299996811897,513.1907348632812,513.1907348632812,0.0,,24.0
None,None,None,Images/TMTstop-control_1_14linestimulus23.png,Images/TMTstop-control_1_14greenlinestimulus23.png,Images/TMTstop-control_1_14redlinestimulus23.png,TMT_Control,C14,Feedback_last,None,7.0,Feedback_last,1.0,513.2642822265625,513.2642822265625,0.0,,1.0,1.0,0.0,,'--',513.2642822265625,513.2642822265625,0.0,,25.0

extraInfo
participant,
session,001
date,2022_Dec_20_1655
expName,TMT_fmri
psychopyVersion,2021.2.3
frameRate,59.88583364190807
﻿NumberLetter,corrAns,Correct,StimFile,Correct_StimFile,False_StimFile,Version,Paper,TrialNumber_Version,Round,Block,TrialNumber_total,n,Stim.started_mean,Stim.started_raw,Stim.started_std,Stim.stopped_raw,key_resp_2.corr_mean,key_resp_2.corr_raw,key_resp_2.corr_std,key_resp_2.keys_raw,key_resp_2.rt_raw,key_resp_2.started_mean,key_resp_2.started_raw,key_resp_2.started_std,key_resp_2.stopped_raw,order
1,['3'],3.0,Images/TMTstop-control_1_15.png,Images/TMTstop-control_1_15.png,Images/TMTstop-control_1_15.png,TMT_Control,C15,351.0,None,7.0,351.0,1.0,517.5856323242188,517.5856323242188,0.0,,1.0,1.0,0.0,1,2,3,0.33023269998375326,0.4044020000146702,0.4719475000165403,517.5856323242188,517.5856323242188,0.0,,0.0
2,['2'],2.0,Images/TMTstop-control_1_15.png,Images/TMTstop-control_1_15firstgreen.png,Images/TMTstop-control_1_15firstred.png,TMT_Control,C15,352.0,None,7.0,352.0,1.0,518.1334838867188,518.1334838867188,0.0,,1.0,1.0,0.0,1,2,0.10193400003481656,0.13940260000526905,518.1334838867188,518.1334838867188,0.0,,1.0
3,['3'],3.0,Images/TMTstop-control_1_15linestimulus0.png,Images/TMTstop-control_1_15greenlinestimulus0.png,Images/TMTstop-control_1_15redlinestimulus0.png,TMT_Control,C15,353.0,None,7.0,353.0,1.0,518.3500366210938,518.3500366210938,0.0,,1.0,1.0,0.0,3,-0.00013860000763088465,518.3500366210938,518.3500366210938,0.0,,2.0
4,['1'],1.0,Images/TMTstop-control_1_15linestimulus1.png,Images/TMTstop-control_1_15greenlinestimulus1.png,Images/TMTstop-control_1_15redlinestimulus1.png,TMT_Control,C15,354.0,None,7.0,354.0,1.0,518.4073486328125,518.4073486328125,0.0,,1.0,1.0,0.0,1,0.08970230002887547,518.4073486328125,518.4073486328125,0.0,,3.0
5,['3'],3.0,Images/TMTstop-control_1_15linestimulus2.png,Images/TMTstop-control_1_15greenlinestimulus2.png,Images/TMTstop-control_1_15redlinestimulus2.png,TMT_Control,C15,355.0,None,7.0,355.0,1.0,518.5574951171875,518.5574951171875,0.0,,1.0,1.0,0.0,2,3,0.013547000009566545,0.08078020001994446,518.5574951171875,518.5574951171875,0.0,,4.0
6,['1'],1.0,Images/TMTstop-control_1_15linestimulus3.png,Images/TMTstop-control_1_15greenlinestimulus3.png,Images/TMTstop-control_1_15redlinestimulus3.png,TMT_Control,C15,356.0,None,7.0,356.0,1.0,518.7291259765625,518.7291259765625,0.0,,1.0,1.0,0.0,1,0.0624377999920398,518.7291259765625,518.7291259765625,0.0,,5.0
7,['3'],3.0,Images/TMTstop-control_1_15linestimulus4.png,Images/TMTstop-control_1_15greenlinestimulus4.png,Images/TMTstop-control_1_15redlinestimulus4.png,TMT_Control,C15,357.0,None,7.0,357.0,1.0,518.845947265625,518.845947265625,0.0,,1.0,1.0,0.0,2,3,0.013112700020428747,0.10606670001288876,518.845947265625,518.845947265625,0.0,,6.0
8,['2'],2.0,Images/TMTstop-control_1_15linestimulus4.png,Images/TMTstop-control_1_15greenlinestimulus5.png,Images/TMTstop-control_1_15redlinestimulus5.png,TMT_Control,C15,358.0,None,7.0,358.0,1.0,519.0362548828125,519.0362548828125,0.0,,1.0,1.0,0.0,1,2,0.09074660000624135,0.15974599996116012,519.0362548828125,519.0362548828125,0.0,,7.0
9,['1'],1.0,Images/TMTstop-control_1_15linestimulus6.png,Images/TMTstop-control_1_15greenlinestimulus6.png,Images/TMTstop-control_1_15redlinestimulus6.png,TMT_Control,C15,359.0,None,7.0,359.0,1.0,519.2938232421875,519.2938232421875,0.0,,1.0,1.0,0.0,3,1,2,3,1,-0.020617400004994124,0.15221690002363175,0.19919489999301732,0.27946350001730025,0.43501200003083795,519.2938232421875,519.2938232421875,0.0,,8.0
10,['2'],2.0,Images/TMTstop-control_1_15linestimulus7.png,Images/TMTstop-control_1_15greenlinestimulus7.png,Images/TMTstop-control_1_15redlinestimulus7.png,TMT_Control,C15,360.0,None,7.0,360.0,1.0,519.7963256835938,519.7963256835938,0.0,,1.0,1.0,0.0,2,-0.004739800002425909,519.7963256835938,519.7963256835938,0.0,,9.0
11,['1'],1.0,Images/TMTstop-control_1_15linestimulus8.png,Images/TMTstop-control_1_15greenlinestimulus8.png,Images/TMTstop-control_1_15redlinestimulus8.png,TMT_Control,C15,361.0,None,7.0,361.0,1.0,519.84765625,519.84765625,0.0,,1.0,1.0,0.0,3,1,0.0126528000109829,0.17353969998657703,519.84765625,519.84765625,0.0,,10.0
12,['3'],3.0,Images/TMTstop-control_1_15linestimulus9.png,Images/TMTstop-control_1_15greenlinestimulus9.png,Images/TMTstop-control_1_15redlinestimulus9.png,TMT_Control,C15,362.0,None,7.0,362.0,1.0,520.1026000976562,520.1026000976562,0.0,,1.0,1.0,0.0,2,3,-0.03721939999377355,0.06638539995765314,520.1026000976562,520.1026000976562,0.0,,11.0
13,['1'],1.0,Images/TMTstop-control_1_15linestimulus10.png,Images/TMTstop-control_1_15greenlinestimulus10.png,Images/TMTstop-control_1_15redlinestimulus10.png,TMT_Control,C15,363.0,None,7.0,363.0,1.0,520.2581787109375,520.2581787109375,0.0,,1.0,1.0,0.0,1,0.10656340001150966,520.2581787109375,520.2581787109375,0.0,,12.0
14,['3'],3.0,Images/TMTstop-control_1_15linestimulus11.png,Images/TMTstop-control_1_15greenlinestimulus11.png,Images/TMTstop-control_1_15redlinestimulus11.png,TMT_Control,C15,364.0,None,7.0,364.0,1.0,520.4254760742188,520.4254760742188,0.0,,1.0,1.0,0.0,2,3,-0.03348669997649267,0.1220896000158973,520.4254760742188,520.4254760742188,0.0,,13.0
15,['2'],2.0,Images/TMTstop-control_1_15linestimulus12.png,Images/TMTstop-control_1_15greenlinestimulus12.png,Images/TMTstop-control_1_15redlinestimulus12.png,TMT_Control,C15,365.0,None,7.0,365.0,1.0,520.6197509765625,520.6197509765625,0.0,,1.0,1.0,0.0,1,2,0.31743359996471554,0.33544110000366345,520.6197509765625,520.6197509765625,0.0,,14.0
16,['3'],3.0,Images/TMTstop-control_1_15linestimulus13.png,Images/TMTstop-control_1_15greenlinestimulus13.png,Images/TMTstop-control_1_15redlinestimulus13.png,TMT_Control,C15,366.0,None,7.0,366.0,1.0,521.0426635742188,521.0426635742188,0.0,,1.0,1.0,0.0,3,0.059423299971967936,521.0426635742188,521.0426635742188,0.0,,15.0
17,['1'],1.0,Images/TMTstop-control_1_15linestimulus14.png,Images/TMTstop-control_1_15greenlinestimulus14.png,Images/TMTstop-control_1_15redlinestimulus14.png,TMT_Control,C15,367.0,None,7.0,367.0,1.0,521.1597900390625,521.1597900390625,0.0,,1.0,1.0,0.0,1,0.1200789999566041,521.1597900390625,521.1597900390625,0.0,,16.0
18,['2'],2.0,Images/TMTstop-control_1_15linestimulus15.png,Images/TMTstop-control_1_15greenlinestimulus15.png,Images/TMTstop-control_1_15redlinestimulus15.png,TMT_Control,C15,368.0,None,7.0,368.0,1.0,521.3512573242188,521.3512573242188,0.0,,1.0,1.0,0.0,2,-0.011730500031262636,521.3512573242188,521.3512573242188,0.0,,17.0
19,['1'],1.0,Images/TMTstop-control_1_15linestimulus16.png,Images/TMTstop-control_1_15greenlinestimulus16.png,Images/TMTstop-control_1_15redlinestimulus16.png,TMT_Control,C15,369.0,None,7.0,369.0,1.0,521.40087890625,521.40087890625,0.0,,1.0,1.0,0.0,3,1,0.043264899984933436,0.18692280002869666,521.40087890625,521.40087890625,0.0,,18.0
20,['3'],3.0,Images/TMTstop-control_1_15linestimulus17.png,Images/TMTstop-control_1_15greenlinestimulus17.png,Images/TMTstop-control_1_15redlinestimulus17.png,TMT_Control,C15,370.0,None,7.0,370.0,1.0,521.6469116210938,521.6469116210938,0.0,,1.0,1.0,0.0,2,3,0.012059799977578223,0.0913118000025861,521.6469116210938,521.6469116210938,0.0,,19.0
21,['2'],2.0,Images/TMTstop-control_1_15linestimulus18.png,Images/TMTstop-control_1_15greenlinestimulus18.png,Images/TMTstop-control_1_15redlinestimulus18.png,TMT_Control,C15,371.0,None,7.0,371.0,1.0,521.8260498046875,521.8260498046875,0.0,,1.0,1.0,0.0,1,2,0.08620060002431273,0.11607610003557056,521.8260498046875,521.8260498046875,0.0,,20.0
22,['1'],1.0,Images/TMTstop-control_1_15linestimulus19.png,Images/TMTstop-control_1_15greenlinestimulus19.png,Images/TMTstop-control_1_15redlinestimulus19.png,TMT_Control,C15,372.0,None,7.0,372.0,1.0,522.0263061523438,522.0263061523438,0.0,,1.0,1.0,0.0,3,1,0.040042600012384355,0.2033648999640718,522.0263061523438,522.0263061523438,0.0,,21.0
23,['3'],3.0,Images/TMTstop-control_1_15linestimulus20.png,Images/TMTstop-control_1_15greenlinestimulus20.png,Images/TMTstop-control_1_15redlinestimulus20.png,TMT_Control,C15,373.0,None,7.0,373.0,1.0,522.2899169921875,522.2899169921875,0.0,,1.0,1.0,0.0,2,3,0.006134600029326975,0.10117610002635047,522.2899169921875,522.2899169921875,0.0,,22.0
24,['2'],2.0,Images/TMTstop-control_1_15linestimulus21.png,Images/TMTstop-control_1_15greenlinestimulus21.png,Images/TMTstop-control_1_15redlinestimulus21.png,TMT_Control,C15,374.0,None,7.0,374.0,1.0,522.4470825195312,522.4470825195312,0.0,,1.0,1.0,0.0,1,2,0.0979382999939844,0.17508640000596642,522.4470825195312,522.4470825195312,0.0,,23.0
25,['1'],1.0,Images/TMTstop-control_1_15linestimulus22.png,Images/TMTstop-control_1_15greenlinestimulus22.png,Images/TMTstop-control_1_15redlinestimulus22.png,TMT_Control,C15,375.0,None,7.0,375.0,1.0,522.7037353515625,522.7037353515625,0.0,,1.0,1.0,0.0,3,1,0.018482599989511073,0.21345310000469908,522.7037353515625,522.7037353515625,0.0,,24.0
None,None,None,Images/TMTstop-control_1_15linestimulus23.png,Images/TMTstop-control_1_15greenlinestimulus23.png,Images/TMTstop-control_1_15redlinestimulus23.png,TMT_Control,C15,Feedback_last,None,7.0,Feedback_last,1.0,523.0096435546875,523.0096435546875,0.0,,1.0,1.0,0.0,,'--',523.0096435546875,523.0096435546875,0.0,,25.0

extraInfo
participant,
session,001
date,2022_Dec_20_1655
expName,TMT_fmri
psychopyVersion,2021.2.3
frameRate,59.88583364190807
﻿NumberLetter,corrAns,Correct,StimFile,Correct_StimFile,False_StimFile,Version,Paper,TrialNumber_Version,Round,Block,TrialNumber_total,n,Stim.started_mean,Stim.started_raw,Stim.started_std,Stim.stopped_raw,key_resp_2.corr_mean,key_resp_2.corr_raw,key_resp_2.corr_std,key_resp_2.keys_raw,key_resp_2.rt_raw,key_resp_2.started_mean,key_resp_2.started_raw,key_resp_2.started_std,key_resp_2.stopped_raw,order
1,['1'],1.0,Images/TMTstop-control_1_16.png,Images/TMTstop-control_1_16.png,Images/TMTstop-control_1_16.png,TMT_Control,C16,376.0,None,7.0,376.0,1.0,527.3588256835938,527.3588256835938,0.0,,1.0,1.0,0.0,1,2,3,1,0.47013430000515655,0.47986060002585873,0.6004300999920815,0.7903455999912694,527.3588256835938,527.3588256835938,0.0,,0.0
2,['2'],2.0,Images/TMTstop-control_1_16.png,Images/TMTstop-control_1_16firstgreen.png,Images/TMTstop-control_1_16firstred.png,TMT_Control,C16,377.0,None,7.0,377.0,1.0,528.2223510742188,528.2223510742188,0.0,,1.0,1.0,0.0,2,-0.03301950002787635,528.2223510742188,528.2223510742188,0.0,,1.0
3,['1'],1.0,Images/TMTstop-control_1_16linestimulus0.png,Images/TMTstop-control_1_16greenlinestimulus0.png,Images/TMTstop-control_1_16redlinestimulus0.png,TMT_Control,C16,378.0,None,7.0,378.0,1.0,528.279052734375,528.279052734375,0.0,,1.0,1.0,0.0,3,1,0.01851679995888844,0.1808337999973446,528.279052734375,528.279052734375,0.0,,2.0
4,['3'],3.0,Images/TMTstop-control_1_16linestimulus1.png,Images/TMTstop-control_1_16greenlinestimulus1.png,Images/TMTstop-control_1_16redlinestimulus1.png,TMT_Control,C16,379.0,None,7.0,379.0,1.0,528.5293579101562,528.5293579101562,0.0,,1.0,1.0,0.0,2,3,-0.002598899998702109,0.0687303000013344,528.5293579101562,528.5293579101562,0.0,,3.0
5,['1'],1.0,Images/TMTstop-control_1_16linestimulus2.png,Images/TMTstop-control_1_16greenlinestimulus2.png,Images/TMTstop-control_1_16redlinestimulus2.png,TMT_Control,C16,380.0,None,7.0,380.0,1.0,528.6790161132812,528.6790161132812,0.0,,1.0,1.0,0.0,1,0.0760403000167571,528.6790161132812,528.6790161132812,0.0,,4.0
6,['3'],3.0,Images/TMTstop-control_1_16linestimulus3.png,Images/TMTstop-control_1_16greenlinestimulus3.png,Images/TMTstop-control_1_16redlinestimulus3.png,TMT_Control,C16,381.0,None,7.0,381.0,1.0,528.8325805664062,528.8325805664062,0.0,,1.0,1.0,0.0,2,3,-0.04589589999523014,0.06639629998244345,528.8325805664062,528.8325805664062,0.0,,5.0
7,['1'],1.0,Images/TMTstop-control_1_16linestimulus4.png,Images/TMTstop-control_1_16greenlinestimulus4.png,Images/TMTstop-control_1_16redlinestimulus4.png,TMT_Control,C16,382.0,None,7.0,382.0,1.0,528.9892578125,528.9892578125,0.0,,1.0,1.0,0.0,1,0.06183719995897263,528.9892578125,528.9892578125,0.0,,6.0
8,['2'],2.0,Images/TMTstop-control_1_16linestimulus4.png,Images/TMTstop-control_1_16greenlinestimulus5.png,Images/TMTstop-control_1_16redlinestimulus5.png,TMT_Control,C16,383.0,None,7.0,383.0,1.0,529.1061401367188,529.1061401367188,0.0,,1.0,1.0,0.0,2,-0.03499890002422035,529.1061401367188,529.1061401367188,0.0,,7.0
9,['1'],1.0,Images/TMTstop-control_1_16linestimulus6.png,Images/TMTstop-control_1_16greenlinestimulus6.png,Images/TMTstop-control_1_16redlinestimulus6.png,TMT_Control,C16,384.0,None,7.0,384.0,1.0,529.161376953125,529.161376953125,0.0,,1.0,1.0,0.0,3,1,0.031433199997991323,0.18379280000226572,529.161376953125,529.161376953125,0.0,,8.0
10,['3'],3.0,Images/TMTstop-control_1_16linestimulus7.png,Images/TMTstop-control_1_16greenlinestimulus7.png,Images/TMTstop-control_1_16redlinestimulus7.png,TMT_Control,C16,385.0,None,7.0,385.0,1.0,529.4188232421875,529.4188232421875,0.0,,1.0,1.0,0.0,2,3,-0.045736299944110215,0.09333660005358979,529.4188232421875,529.4188232421875,0.0,,9.0
11,['1'],1.0,Images/TMTstop-control_1_16linestimulus8.png,Images/TMTstop-control_1_16greenlinestimulus8.png,Images/TMTstop-control_1_16redlinestimulus8.png,TMT_Control,C16,386.0,None,7.0,386.0,1.0,529.5694580078125,529.5694580078125,0.0,,1.0,1.0,0.0,1,0.13569209998240694,529.5694580078125,529.5694580078125,0.0,,10.0
12,['2'],2.0,Images/TMTstop-control_1_16linestimulus9.png,Images/TMTstop-control_1_16greenlinestimulus9.png,Images/TMTstop-control_1_16redlinestimulus9.png,TMT_Control,C16,387.0,None,7.0,387.0,1.0,529.7562255859375,529.7562255859375,0.0,,1.0,1.0,0.0,2,-0.0322368000051938,529.7562255859375,529.7562255859375,0.0,,11.0
13,['1'],1.0,Images/TMTstop-control_1_16linestimulus10.png,Images/TMTstop-control_1_16greenlinestimulus10.png,Images/TMTstop-control_1_16redlinestimulus10.png,TMT_Control,C16,388.0,None,7.0,388.0,1.0,529.806884765625,529.806884765625,0.0,,1.0,1.0,0.0,3,1,0.08329839998623356,0.24732349999248981,529.806884765625,529.806884765625,0.0,,12.0
14,['3'],3.0,Images/TMTstop-control_1_16linestimulus11.png,Images/TMTstop-control_1_16greenlinestimulus11.png,Images/TMTstop-control_1_16redlinestimulus11.png,TMT_Control,C16,389.0,None,7.0,389.0,1.0,530.1140747070312,530.1140747070312,0.0,,1.0,1.0,0.0,2,3,-0.041463300003670156,0.11057379998965189,530.1140747070312,530.1140747070312,0.0,,13.0
15,['2'],2.0,Images/TMTstop-control_1_16linestimulus12.png,Images/TMTstop-control_1_16greenlinestimulus12.png,Images/TMTstop-control_1_16redlinestimulus12.png,TMT_Control,C16,390.0,None,7.0,390.0,1.0,530.318359375,530.318359375,0.0,,1.0,1.0,0.0,1,2,0.07462340005440637,0.16192630003206432,530.318359375,530.318359375,0.0,,14.0
16,['3'],3.0,Images/TMTstop-control_1_16linestimulus13.png,Images/TMTstop-control_1_16greenlinestimulus13.png,Images/TMTstop-control_1_16redlinestimulus13.png,TMT_Control,C16,391.0,None,7.0,391.0,1.0,530.5528564453125,530.5528564453125,0.0,,1.0,1.0,0.0,3,0.043859100027475506,530.5528564453125,530.5528564453125,0.0,,15.0
17,['1'],1.0,Images/TMTstop-control_1_16linestimulus14.png,Images/TMTstop-control_1_16greenlinestimulus14.png,Images/TMTstop-control_1_16redlinestimulus14.png,TMT_Control,C16,392.0,None,7.0,392.0,1.0,530.6529541015625,530.6529541015625,0.0,,1.0,1.0,0.0,2,3,2,1,0.17516769998474047,0.4058761000051163,0.4273395999916829,0.4870303000207059,530.6529541015625,530.6529541015625,0.0,,16.0
18,['3'],3.0,Images/TMTstop-control_1_16linestimulus15.png,Images/TMTstop-control_1_16greenlinestimulus15.png,Images/TMTstop-control_1_16redlinestimulus15.png,TMT_Control,C16,393.0,None,7.0,393.0,1.0,531.205810546875,531.205810546875,0.0,,1.0,1.0,0.0,3,0.1135325999930501,531.205810546875,531.205810546875,0.0,,17.0
19,['2'],2.0,Images/TMTstop-control_1_16linestimulus16.png,Images/TMTstop-control_1_16greenlinestimulus16.png,Images/TMTstop-control_1_16redlinestimulus16.png,TMT_Control,C16,394.0,None,7.0,394.0,1.0,531.3726196289062,531.3726196289062,0.0,,1.0,1.0,0.0,1,2,0.0983606000081636,0.2035514999879524,531.3726196289062,531.3726196289062,0.0,,18.0
20,['1'],1.0,Images/TMTstop-control_1_16linestimulus17.png,Images/TMTstop-control_1_16greenlinestimulus17.png,Images/TMTstop-control_1_16redlinestimulus17.png,TMT_Control,C16,395.0,None,7.0,395.0,1.0,531.6854248046875,531.6854248046875,0.0,,1.0,1.0,0.0,3,1,-0.03519690001849085,0.11852859996724874,531.6854248046875,531.6854248046875,0.0,,19.0
21,['2'],2.0,Images/TMTstop-control_1_16linestimulus18.png,Images/TMTstop-control_1_16greenlinestimulus18.png,Images/TMTstop-control_1_16redlinestimulus18.png,TMT_Control,C16,396.0,None,7.0,396.0,1.0,531.8856201171875,531.8856201171875,0.0,,1.0,1.0,0.0,2,0.00039379997178912163,531.8856201171875,531.8856201171875,0.0,,20.0
22,['1'],1.0,Images/TMTstop-control_1_16linestimulus19.png,Images/TMTstop-control_1_16greenlinestimulus19.png,Images/TMTstop-control_1_16redlinestimulus19.png,TMT_Control,C16,397.0,None,7.0,397.0,1.0,531.9351806640625,531.9351806640625,0.0,,1.0,1.0,0.0,3,1,0.03770039998926222,0.18542539997724816,531.9351806640625,531.9351806640625,0.0,,21.0
23,['3'],3.0,Images/TMTstop-control_1_16linestimulus20.png,Images/TMTstop-control_1_16greenlinestimulus20.png,Images/TMTstop-control_1_16redlinestimulus20.png,TMT_Control,C16,398.0,None,7.0,398.0,1.0,532.1929321289062,532.1929321289062,0.0,,1.0,1.0,0.0,2,3,0.0098911999957636,0.10830299998633564,532.1929321289062,532.1929321289062,0.0,,22.0
24,['2'],2.0,Images/TMTstop-control_1_16linestimulus21.png,Images/TMTstop-control_1_16greenlinestimulus21.png,Images/TMTstop-control_1_16redlinestimulus21.png,TMT_Control,C16,399.0,None,7.0,399.0,1.0,532.3648681640625,532.3648681640625,0.0,,1.0,1.0,0.0,1,2,0.09714000002713874,0.17741460003890097,532.3648681640625,532.3648681640625,0.0,,23.0
25,['1'],1.0,Images/TMTstop-control_1_16linestimulus22.png,Images/TMTstop-control_1_16greenlinestimulus22.png,Images/TMTstop-control_1_16redlinestimulus22.png,TMT_Control,C16,400.0,None,7.0,400.0,1.0,532.6201782226562,532.6201782226562,0.0,,1.0,1.0,0.0,3,1,0.020298499963246286,0.17129959998419508,532.6201782226562,532.6201782226562,0.0,,24.0
None,None,None,Images/TMTstop-control_1_16linestimulus23.png,Images/TMTstop-control_1_16greenlinestimulus23.png,Images/TMTstop-control_1_16redlinestimulus23.png,TMT_Control,C16,Feedback_last,None,7.0,Feedback_last,1.0,532.8743896484375,532.8743896484375,0.0,,0.0,0.0,0.0,2,3,-0.030173499952070415,0.07698740001069382,532.8743896484375,532.8743896484375,0.0,,25.0

extraInfo
participant,
session,001
date,2022_Dec_20_1655
expName,TMT_fmri
psychopyVersion,2021.2.3
frameRate,59.88583364190807
