Block_paper,Condition_rows,NumberLetter,corrAns,Correct,StimFile,Correct_StimFile,False_StimFile,Version,Paper,TrialNumber_Version,Round,Block,Blocks_Control1.thisRepN,Blocks_Control1.thisTrialN,Blocks_Control1.thisN,Blocks_Control1.thisIndex,trials_Control1.thisRepN,trials_Control1.thisTrialN,trials_Control1.thisN,trials_Control1.thisIndex,Blocks_TMTA1.thisRepN,Blocks_TMTA1.thisTrialN,Blocks_TMTA1.thisN,Blocks_TMTA1.thisIndex,trials_TMTA1.thisRepN,trials_TMTA1.thisTrialN,trials_TMTA1.thisN,trials_TMTA1.thisIndex,Blocks_Control2.thisRepN,Blocks_Control2.thisTrialN,Blocks_Control2.thisN,Blocks_Control2.thisIndex,trials_Control2.thisRepN,trials_Control2.thisTrialN,trials_Control2.thisN,trials_Control2.thisIndex,Blocks_TMTB1.thisRepN,Blocks_TMTB1.thisTrialN,Blocks_TMTB1.thisN,Blocks_TMTB1.thisIndex,trials_TMTB1.thisRepN,trials_TMTB1.thisTrialN,trials_TMTB1.thisN,trials_TMTB1.thisIndex,Blocks_Control3.thisRepN,Blocks_Control3.thisTrialN,Blocks_Control3.thisN,Blocks_Control3.thisIndex,trials_Control3.thisRepN,trials_Control3.thisTrialN,trials_Control3.thisN,trials_Control3.thisIndex,Blocks_TMTA2.thisRepN,Blocks_TMTA2.thisTrialN,Blocks_TMTA2.thisN,Blocks_TMTA2.thisIndex,trials_TMTA2.thisRepN,trials_TMTA2.thisTrialN,trials_TMTA2.thisN,trials_TMTA2.thisIndex,Blocks_Control4.thisRepN,Blocks_Control4.thisTrialN,Blocks_Control4.thisN,Blocks_Control4.thisIndex,trials_Control4.thisRepN,trials_Control4.thisTrialN,trials_Control4.thisN,trials_Control4.thisIndex,Blocks_TMTB2.thisRepN,Blocks_TMTB2.thisTrialN,Blocks_TMTB2.thisN,Blocks_TMTB2.thisIndex,trials_TMTB2.thisRepN,trials_TMTB2.thisTrialN,trials_TMTB2.thisN,trials_TMTB2.thisIndex,key_resp_7.keys,key_resp_7.rt,key_resp_7.started,key_resp_7.stopped,polygon_2.started,polygon_2.stopped,Attempts,First_attempt,ResponseClock,Stim.started,Stim.stopped,key_resp_2.keys,key_resp_2.corr,key_resp_2.rt,key_resp_2.started,key_resp_2.stopped,Info2.started,Info2.stopped,text_2.started,text_2.stopped,participant,session,date,expName,psychopyVersion,frameRate,
,,,,,,,,,,,,,,,,,,,,,,,,,,,,,,,,,,,,,,,,,,,,,,,,,,,,,,,,,,,,,,,,,,,,,,,,,,,,,s,7.34627539999201,11.902920100008487,None,,,,,,,,,,,,,,,,,,001,2022_Nov_18_0015,TMT_fmri,2021.2.3,59.9428025783916,
C1,0:26,1,['2'],2,TMTstop-control_1_1.png,TMTstop-control_1_1.png,TMTstop-control_1_1.png,TMT_Control,C1,1,1,1,0,0,0,0,0,0,0,0,,,,,,,,,,,,,,,,,,,,,,,,,,,,,,,,,,,,,,,,,,,,,,,,,,,,,,,,,,,,,11.902920100008487,None,3,0,11.842386000003899,36.09387209999841,None,"['3', '1', '2']",1,"[8.420741499998257, 8.473749799988582, 8.486809800000628]",36.09387209999841,None,,,,,,001,2022_Nov_18_0015,TMT_fmri,2021.2.3,59.9428025783916,
C1,0:26,2,['1'],1,TMTstop-control_1_1.png,TMTstop-control_1_1firstgreen.png,TMTstop-control_1_1firstred.png,TMT_Control,C1,2,None,1,0,0,0,0,0,1,1,1,,,,,,,,,,,,,,,,,,,,,,,,,,,,,,,,,,,,,,,,,,,,,,,,,,,,,,,,,,,,,,,2,0,12.10940090000804,44.6573275999981,None,"['2', '1']",1,"[0.11129390000132844, 0.19906680000713095]",44.6573275999981,None,,,,,,001,2022_Nov_18_0015,TMT_fmri,2021.2.3,59.9428025783916,
C1,0:26,3,['3'],3,TMTstop-control_1_1linestimulus0.png,TMTstop-control_1_1greenlinestimulus0.png,TMTstop-control_1_1redlinestimulus0.png,TMT_Control,C1,3,None,1,0,0,0,0,0,2,2,2,,,,,,,,,,,,,,,,,,,,,,,,,,,,,,,,,,,,,,,,,,,,,,,,,,,,,,,,,,,,,,,1,1,12.217322900003637,44.93140580000181,None,['3'],1,[0.051879300008295104],44.93140580000181,None,,,,,,001,2022_Nov_18_0015,TMT_fmri,2021.2.3,59.9428025783916,
C1,0:26,4,['1'],1,TMTstop-control_1_1linestimulus1.png,TMTstop-control_1_1greenlinestimulus1.png,TMTstop-control_1_1redlinestimulus1.png,TMT_Control,C1,4,None,1,0,0,0,0,0,3,3,3,,,,,,,,,,,,,,,,,,,,,,,,,,,,,,,,,,,,,,,,,,,,,,,,,,,,,,,,,,,,,,,2,0,12.379281900008209,45.04008620000968,None,"['2', '1']",1,"[-0.007603299993206747, 0.0685280000034254]",45.04008620000968,None,,,,,,001,2022_Nov_18_0015,TMT_fmri,2021.2.3,59.9428025783916,
C1,0:26,5,['3'],3,TMTstop-control_1_1linestimulus2.png,TMTstop-control_1_1greenlinestimulus2.png,TMTstop-control_1_1redlinestimulus2.png,TMT_Control,C1,5,None,1,0,0,0,0,0,4,4,4,,,,,,,,,,,,,,,,,,,,,,,,,,,,,,,,,,,,,,,,,,,,,,,,,,,,,,,,,,,,,,,1,1,12.496411400003126,45.195051900009275,None,['3'],1,[0.05835819999629166],45.195051900009275,None,,,,,,001,2022_Nov_18_0015,TMT_fmri,2021.2.3,59.9428025783916,
C1,0:26,6,['1'],1,TMTstop-control_1_1linestimulus3.png,TMTstop-control_1_1greenlinestimulus3.png,TMTstop-control_1_1redlinestimulus3.png,TMT_Control,C1,6,None,1,0,0,0,0,0,5,5,5,,,,,,,,,,,,,,,,,,,,,,,,,,,,,,,,,,,,,,,,,,,,,,,,,,,,,,,,,,,,,,,2,0,16.40692229999695,45.31175790000998,None,"['2', '1']",1,"[-0.020965000003343448, 3.85174630000256]",45.31175790000998,None,,,,,,001,2022_Nov_18_0015,TMT_fmri,2021.2.3,59.9428025783916,
C1,0:26,7,['2'],2,TMTstop-control_1_1linestimulus4.png,TMTstop-control_1_1greenlinestimulus4.png,TMTstop-control_1_1redlinestimulus4.png,TMT_Control,C1,7,None,1,0,0,0,0,0,6,6,6,,,,,,,,,,,,,,,,,,,,,,,,,,,,,,,,,,,,,,,,,,,,,,,,,,,,,,,,,,,,,,,3,0,17.892890500006615,49.222310400000424,None,"['1', '3', '2']",1,"[1.1762862000032328, 1.35800670000026, 1.3943355000083102]",49.222310400000424,None,,,,,,001,2022_Nov_18_0015,TMT_fmri,2021.2.3,59.9428025783916,
C1,0:26,8,['1'],1,TMTstop-control_1_1linestimulus4.png,TMTstop-control_1_1greenlinestimulus5.png,TMTstop-control_1_1redlinestimulus5.png,TMT_Control,C1,8,None,1,0,0,0,0,0,7,7,7,,,,,,,,,,,,,,,,,,,,,,,,,,,,,,,,,,,,,,,,,,,,,,,,,,,,,,,,,,,,,,,1,1,17.94287150001037,50.70815980000771,None,['1'],1,[-0.0029107000009389594],50.70815980000771,None,,,,,,001,2022_Nov_18_0015,TMT_fmri,2021.2.3,59.9428025783916,
C1,0:26,9,['3'],3,TMTstop-control_1_1linestimulus6.png,TMTstop-control_1_1greenlinestimulus6.png,TMTstop-control_1_1redlinestimulus6.png,TMT_Control,C1,9,None,1,0,0,0,0,0,8,8,8,,,,,,,,,,,,,,,,,,,,,,,,,,,,,,,,,,,,,,,,,,,,,,,,,,,,,,,,,,,,,,,1,1,18.109885400001076,50.75844940000388,None,['3'],1,[0.10199899999133777],50.75844940000388,None,,,,,,001,2022_Nov_18_0015,TMT_fmri,2021.2.3,59.9428025783916,
C1,0:26,10,['2'],2,TMTstop-control_1_1linestimulus7.png,TMTstop-control_1_1greenlinestimulus7.png,TMTstop-control_1_1redlinestimulus7.png,TMT_Control,C1,10,None,1,0,0,0,0,0,9,9,9,,,,,,,,,,,,,,,,,,,,,,,,,,,,,,,,,,,,,,,,,,,,,,,,,,,,,,,,,,,,,,,1,1,18.159878000005847,50.92504200000258,None,['2'],1,[-0.03982459999679122],50.92504200000258,None,,,,,,001,2022_Nov_18_0015,TMT_fmri,2021.2.3,59.9428025783916,
C1,0:26,11,['1'],1,TMTstop-control_1_1linestimulus8.png,TMTstop-control_1_1greenlinestimulus8.png,TMTstop-control_1_1redlinestimulus8.png,TMT_Control,C1,11,None,1,0,0,0,0,0,10,10,10,,,,,,,,,,,,,,,,,,,,,,,,,,,,,,,,,,,,,,,,,,,,,,,,,,,,,,,,,,,,,,,1,1,18.243029799996293,50.97537420000299,None,['1'],1,[0.010256199995637871],50.97537420000299,None,,,,,,001,2022_Nov_18_0015,TMT_fmri,2021.2.3,59.9428025783916,
C1,0:26,12,['2'],2,TMTstop-control_1_1linestimulus9.png,TMTstop-control_1_1greenlinestimulus9.png,TMTstop-control_1_1redlinestimulus9.png,TMT_Control,C1,12,None,1,0,0,0,0,0,11,11,11,,,,,,,,,,,,,,,,,,,,,,,,,,,,,,,,,,,,,,,,,,,,,,,,,,,,,,,,,,,,,,,2,0,18.426804300004733,51.058711200006655,None,"['3', '2']",1,"[0.06902159999299329, 0.10972019999462646]",51.058711200006655,None,,,,,,001,2022_Nov_18_0015,TMT_fmri,2021.2.3,59.9428025783916,
C1,0:26,13,['3'],3,TMTstop-control_1_1linestimulus10.png,TMTstop-control_1_1greenlinestimulus10.png,TMTstop-control_1_1redlinestimulus10.png,TMT_Control,C1,13,None,1,0,0,0,0,0,12,12,12,,,,,,,,,,,,,,,,,,,,,,,,,,,,,,,,,,,,,,,,,,,,,,,,,,,,,,,,,,,,,,,5,0,18.95783630000369,51.24243379999825,None,"['1', '3', '2', '1', '3']",1,"[0.009091700005228631, 0.15057019999949262, 0.18183900001167785, 0.2669031000114046, 0.4313399000093341]",51.24243379999825,None,,,,,,001,2022_Nov_18_0015,TMT_fmri,2021.2.3,59.9428025783916,
C1,0:26,14,['2'],2,TMTstop-control_1_1linestimulus11.png,TMTstop-control_1_1greenlinestimulus11.png,TMTstop-control_1_1redlinestimulus11.png,TMT_Control,C1,14,None,1,0,0,0,0,0,13,13,13,,,,,,,,,,,,,,,,,,,,,,,,,,,,,,,,,,,,,,,,,,,,,,,,,,,,,,,,,,,,,,,1,1,19.032804700007546,51.79850479999732,None,['2'],1,[-0.07069079999928363],51.79850479999732,None,,,,,,001,2022_Nov_18_0015,TMT_fmri,2021.2.3,59.9428025783916,
C1,0:26,15,['3'],3,TMTstop-control_1_1linestimulus12.png,TMTstop-control_1_1greenlinestimulus12.png,TMTstop-control_1_1redlinestimulus12.png,TMT_Control,C1,15,None,1,0,0,0,0,0,14,14,14,,,,,,,,,,,,,,,,,,,,,,,,,,,,,,,,,,,,,,,,,,,,,,,,,,,,,,,,,,,,,,,2,0,19.2577472999983,51.853324099996826,None,"['1', '3']",1,"[-0.04499209999630693, 0.1452807000023313]",51.853324099996826,None,,,,,,001,2022_Nov_18_0015,TMT_fmri,2021.2.3,59.9428025783916,
C1,0:26,16,['2'],2,TMTstop-control_1_1linestimulus13.png,TMTstop-control_1_1greenlinestimulus13.png,TMTstop-control_1_1redlinestimulus13.png,TMT_Control,C1,16,None,1,0,0,0,0,0,15,15,15,,,,,,,,,,,,,,,,,,,,,,,,,,,,,,,,,,,,,,,,,,,,,,,,,,,,,,,,,,,,,,,1,1,19.311883400005172,52.077679000009084,None,['2'],1,[-0.049164000010932796],52.077679000009084,None,,,,,,001,2022_Nov_18_0015,TMT_fmri,2021.2.3,59.9428025783916,
C1,0:26,17,['3'],3,TMTstop-control_1_1linestimulus14.png,TMTstop-control_1_1greenlinestimulus14.png,TMTstop-control_1_1redlinestimulus14.png,TMT_Control,C1,17,None,1,0,0,0,0,0,16,16,16,,,,,,,,,,,,,,,,,,,,,,,,,,,,,,,,,,,,,,,,,,,,,,,,,,,,,,,,,,,,,,,5,0,19.90180410000903,52.13170330000867,None,"['1', '3', '2', '1', '3']",1,"[-0.010246899997582659, 0.2187110999948345, 0.244564900000114, 0.33868909999728203, 0.5334582000068622]",52.13170330000867,None,,,,,,001,2022_Nov_18_0015,TMT_fmri,2021.2.3,59.9428025783916,
C1,0:26,18,['2'],2,TMTstop-control_1_1linestimulus15.png,TMTstop-control_1_1greenlinestimulus15.png,TMTstop-control_1_1redlinestimulus15.png,TMT_Control,C1,18,None,1,0,0,0,0,0,17,17,17,,,,,,,,,,,,,,,,,,,,,,,,,,,,,,,,,,,,,,,,,,,,,,,,,,,,,,,,,,,,,,,1,1,19.954881900004693,52.71980269999767,None,['2'],1,[-0.03041819999634754],52.71980269999767,None,,,,,,001,2022_Nov_18_0015,TMT_fmri,2021.2.3,59.9428025783916,
C1,0:26,19,['1'],1,TMTstop-control_1_1linestimulus16.png,TMTstop-control_1_1greenlinestimulus16.png,TMTstop-control_1_1redlinestimulus16.png,TMT_Control,C1,19,None,1,0,0,0,0,0,18,18,18,,,,,,,,,,,,,,,,,,,,,,,,,,,,,,,,,,,,,,,,,,,,,,,,,,,,,,,,,,,,,,,1,1,20.040537399996538,52.77214410000306,None,['1'],1,[0.013094699999783188],52.77214410000306,None,,,,,,001,2022_Nov_18_0015,TMT_fmri,2021.2.3,59.9428025783916,
C1,0:26,20,['3'],3,TMTstop-control_1_1linestimulus17.png,TMTstop-control_1_1greenlinestimulus17.png,TMTstop-control_1_1redlinestimulus17.png,TMT_Control,C1,20,None,1,0,0,0,0,0,19,19,19,,,,,,,,,,,,,,,,,,,,,,,,,,,,,,,,,,,,,,,,,,,,,,,,,,,,,,,,,,,,,,,1,1,20.174587400004384,52.85533580000629,None,['3'],1,[0.08183049999934155],52.85533580000629,None,,,,,,001,2022_Nov_18_0015,TMT_fmri,2021.2.3,59.9428025783916,
C1,0:26,21,['1'],1,TMTstop-control_1_1linestimulus18.png,TMTstop-control_1_1greenlinestimulus18.png,TMTstop-control_1_1redlinestimulus18.png,TMT_Control,C1,21,None,1,0,0,0,0,0,20,20,20,,,,,,,,,,,,,,,,,,,,,,,,,,,,,,,,,,,,,,,,,,,,,,,,,,,,,,,,,,,,,,,2,0,20.324189599996316,52.98950860000332,None,"['2', '1']",1,"[-0.027924000009079464, 0.09602159999485593]",52.98950860000332,None,,,,,,001,2022_Nov_18_0015,TMT_fmri,2021.2.3,59.9428025783916,
C1,0:26,22,['2'],2,TMTstop-control_1_1linestimulus19.png,TMTstop-control_1_1greenlinestimulus19.png,TMTstop-control_1_1redlinestimulus19.png,TMT_Control,C1,22,None,1,0,0,0,0,0,21,21,21,,,,,,,,,,,,,,,,,,,,,,,,,,,,,,,,,,,,,,,,,,,,,,,,,,,,,,,,,,,,,,,2,0,20.540157499999623,53.13973799999803,None,"['3', '2']",1,"[0.10375300000305288, 0.13268409999727737]",53.13973799999803,None,,,,,,001,2022_Nov_18_0015,TMT_fmri,2021.2.3,59.9428025783916,
C1,0:26,23,['3'],3,TMTstop-control_1_1linestimulus20.png,TMTstop-control_1_1greenlinestimulus20.png,TMTstop-control_1_1redlinestimulus20.png,TMT_Control,C1,23,None,1,0,0,0,0,0,22,22,22,,,,,,,,,,,,,,,,,,,,,,,,,,,,,,,,,,,,,,,,,,,,,,,,,,,,,,,,,,,,,,,2,0,20.779150400005165,53.35669090000738,None,"['1', '3']",1,"[0.02130780000879895, 0.15505210000264924]",53.35669090000738,None,,,,,,001,2022_Nov_18_0015,TMT_fmri,2021.2.3,59.9428025783916,
C1,0:26,24,['2'],2,TMTstop-control_1_1linestimulus21.png,TMTstop-control_1_1greenlinestimulus21.png,TMTstop-control_1_1redlinestimulus21.png,TMT_Control,C1,24,None,1,0,0,0,0,0,23,23,23,,,,,,,,,,,,,,,,,,,,,,,,,,,,,,,,,,,,,,,,,,,,,,,,,,,,,,,,,,,,,,,1,1,20.829180300002918,53.594146900009946,None,['2'],1,[-0.010448000000906177],53.594146900009946,None,,,,,,001,2022_Nov_18_0015,TMT_fmri,2021.2.3,59.9428025783916,
C1,0:26,25,['1'],1,TMTstop-control_1_1linestimulus22.png,TMTstop-control_1_1greenlinestimulus22.png,TMTstop-control_1_1redlinestimulus22.png,TMT_Control,C1,25,None,1,0,0,0,0,0,24,24,24,,,,,,,,,,,,,,,,,,,,,,,,,,,,,,,,,,,,,,,,,,,,,,,,,,,,,,,,,,,,,,,1,1,20.895151200005785,53.64416409999831,None,['1'],1,[0.007346500002313405],53.64416409999831,None,,,,,,001,2022_Nov_18_0015,TMT_fmri,2021.2.3,59.9428025783916,
C1,0:26,None,None,None,TMTstop-control_1_1linestimulus23.png,TMTstop-control_1_1greenlinestimulus23.png,TMTstop-control_1_1redlinestimulus23.png,TMT_Control,C1,Feedback_last,None,1,0,0,0,0,0,25,25,25,,,,,,,,,,,,,,,,,,,,,,,,,,,,,,,,,,,,,,,,,,,,,,,,,,,,,,,,,,,,,,,2,0,,53.71772729999793,None,"['3', '2']",0,"[0.09825999999884516, 0.12909760000184178]",53.71772729999793,None,,,,,,001,2022_Nov_18_0015,TMT_fmri,2021.2.3,59.9428025783916,
C2,26:52,1,['2'],2,TMTstop-control_1_2.png,TMTstop-control_1_2.png,TMTstop-control_1_2.png,TMT_Control,C2,26,None,1,0,1,1,1,0,0,0,0,,,,,,,,,,,,,,,,,,,,,,,,,,,,,,,,,,,,,,,,,,,,,,,,,,,,,,,,,,,,,,,3,0,26.152713100003893,57.98808460000146,None,"['1', '3', '2']",1,"[0.6764129999937722, 0.8444683999987319, 0.9075575000024401]",57.98808460000146,None,,,,,,001,2022_Nov_18_0015,TMT_fmri,2021.2.3,59.9428025783916,
C2,26:52,2,['3'],3,TMTstop-control_1_2.png,TMTstop-control_1_2firstgreen.png,TMTstop-control_1_2firstred.png,TMT_Control,C2,27,None,1,0,1,1,1,0,1,1,1,,,,,,,,,,,,,,,,,,,,,,,,,,,,,,,,,,,,,,,,,,,,,,,,,,,,,,,,,,,,,,,5,0,26.666373200001544,58.97385130000475,None,"['1', '3', '2', '1', '3']",1,"[0.0006796000088797882, 0.1790002000052482, 0.2075539000070421, 0.28966009999567177, 0.44705380000232253]",58.97385130000475,None,,,,,,001,2022_Nov_18_0015,TMT_fmri,2021.2.3,59.9428025783916,
C2,26:52,3,['2'],2,TMTstop-control_1_2linestimulus0.png,TMTstop-control_1_2greenlinestimulus0.png,TMTstop-control_1_2redlinestimulus0.png,TMT_Control,C2,28,None,1,0,1,1,1,0,2,2,2,,,,,,,,,,,,,,,,,,,,,,,,,,,,,,,,,,,,,,,,,,,,,,,,,,,,,,,,,,,,,,,1,1,26.753364800009876,59.4846702000068,None,['2'],1,[0.0057649000082165],59.4846702000068,None,,,,,,001,2022_Nov_18_0015,TMT_fmri,2021.2.3,59.9428025783916,
C2,26:52,4,['3'],3,TMTstop-control_1_2linestimulus1.png,TMTstop-control_1_2greenlinestimulus1.png,TMTstop-control_1_2redlinestimulus1.png,TMT_Control,C2,29,None,1,0,1,1,1,0,3,3,3,,,,,,,,,,,,,,,,,,,,,,,,,,,,,,,,,,,,,,,,,,,,,,,,,,,,,,,,,,,,,,,1,1,,59.56809260000591,None,['1'],0,[-0.022628099992289208],59.56809260000591,None,,,,,,001,2022_Nov_18_0015,TMT_fmri,2021.2.3,59.9428025783916,
A1,208:234,1,['1'],1,TMTstop-A_1_1.png,TMTstop-A_1_1.png,TMTstop-A_1_1.png,TMT_A,A1,1,1,2,,,,,,,,,0,0,0,0,0,0,0,0,,,,,,,,,,,,,,,,,,,,,,,,,,,,,,,,,,,,,,,,,,,,,,,,,,,,,,,3,0,61.249548100007814,86.4952986999997,None,"['3', '2', '1']",1,"[7.35927939999965, 7.384393300002557, 7.50353339999856]",86.4952986999997,None,,,,,,001,2022_Nov_18_0015,TMT_fmri,2021.2.3,59.9428025783916,
A1,208:234,2,['3'],3,TMTstop-A_1_1.png,TMTstop-A_1_1firstgreen.png,TMTstop-A_1_1firstred.png,TMT_A,A1,2,None,2,,,,,,,,,0,0,0,0,0,1,1,1,,,,,,,,,,,,,,,,,,,,,,,,,,,,,,,,,,,,,,,,,,,,,,,,,,,,,,,1,1,61.406570400009514,94.07204179999826,None,['3'],1,[0.09504030000243802],94.07204179999826,None,,,,,,001,2022_Nov_18_0015,TMT_fmri,2021.2.3,59.9428025783916,
A1,208:234,3,['1'],1,TMTstop-A_1_1linestimulus0.png,TMTstop-A_1_1greenlinestimulus0.png,TMTstop-A_1_1redlinestimulus0.png,TMT_A,A1,3,None,2,,,,,,,,,0,0,0,0,0,2,2,2,,,,,,,,,,,,,,,,,,,,,,,,,,,,,,,,,,,,,,,,,,,,,,,,,,,,,,,2,0,61.57365540000319,94.22211919999972,None,"['2', '1']",1,"[0.004346100002294406, 0.0841979000106221]",94.22211919999972,None,,,,,,001,2022_Nov_18_0015,TMT_fmri,2021.2.3,59.9428025783916,
A1,208:234,4,['3'],3,TMTstop-A_1_1linestimulus1.png,TMTstop-A_1_1greenlinestimulus1.png,TMTstop-A_1_1redlinestimulus1.png,TMT_A,A1,4,None,2,,,,,,,,,0,0,0,0,0,3,3,3,,,,,,,,,,,,,,,,,,,,,,,,,,,,,,,,,,,,,,,,,,,,,,,,,,,,,,,1,1,61.71366249999846,94.39525250000588,None,['3'],1,[0.06971890000568237],94.39525250000588,None,,,,,,001,2022_Nov_18_0015,TMT_fmri,2021.2.3,59.9428025783916,
A1,208:234,5,['1'],1,TMTstop-A_1_1linestimulus2.png,TMTstop-A_1_1greenlinestimulus2.png,TMTstop-A_1_1redlinestimulus2.png,TMT_A,A1,5,None,2,,,,,,,,,0,0,0,0,0,4,4,4,,,,,,,,,,,,,,,,,,,,,,,,,,,,,,,,,,,,,,,,,,,,,,,,,,,,,,,2,0,61.87467060000927,94.52851070000906,None,"['2', '1']",1,"[-0.01846799999475479, 0.07505650000530295]",94.52851070000906,None,,,,,,001,2022_Nov_18_0015,TMT_fmri,2021.2.3,59.9428025783916,
A1,208:234,6,['3'],3,TMTstop-A_1_1linestimulus3.png,TMTstop-A_1_1greenlinestimulus3.png,TMTstop-A_1_1redlinestimulus3.png,TMT_A,A1,6,None,2,,,,,,,,,0,0,0,0,0,5,5,5,,,,,,,,,,,,,,,,,,,,,,,,,,,,,,,,,,,,,,,,,,,,,,,,,,,,,,,1,1,62.00754410000809,94.6896870000055,None,['3'],1,[0.07482589999563061],94.6896870000055,None,,,,,,001,2022_Nov_18_0015,TMT_fmri,2021.2.3,59.9428025783916,
A1,208:234,7,['1'],1,TMTstop-A_1_1linestimulus4.png,TMTstop-A_1_1greenlinestimulus4.png,TMTstop-A_1_1redlinestimulus4.png,TMT_A,A1,7,None,2,,,,,,,,,0,0,0,0,0,6,6,6,,,,,,,,,,,,,,,,,,,,,,,,,,,,,,,,,,,,,,,,,,,,,,,,,,,,,,,2,0,62.16871589999937,94.82333660000586,None,"['2', '1']",1,"[-0.0057560999994166195, 0.07701029999589082]",94.82333660000586,None,,,,,,001,2022_Nov_18_0015,TMT_fmri,2021.2.3,59.9428025783916,
A1,208:234,8,['2'],2,TMTstop-A_1_1linestimulus5.png,TMTstop-A_1_1greenlinestimulus5.png,TMTstop-A_1_1redlinestimulus5.png,TMT_A,A1,8,None,2,,,,,,,,,0,0,0,0,0,7,7,7,,,,,,,,,,,,,,,,,,,,,,,,,,,,,,,,,,,,,,,,,,,,,,,,,,,,,,,2,0,62.40565400000196,94.98336800000106,None,"['3', '2']",1,"[0.08316290000220761, 0.13617969999904744]",94.98336800000106,None,,,,,,001,2022_Nov_18_0015,TMT_fmri,2021.2.3,59.9428025783916,
A1,208:234,9,['3'],3,TMTstop-A_1_1linestimulus6.png,TMTstop-A_1_1greenlinestimulus6.png,TMTstop-A_1_1redlinestimulus6.png,TMT_A,A1,9,None,2,,,,,,,,,0,0,0,0,0,8,8,8,,,,,,,,,,,,,,,,,,,,,,,,,,,,,,,,,,,,,,,,,,,,,,,,,,,,,,,2,0,62.66152920000604,95.22698770000716,None,"['1', '3']",1,"[-0.01340570001048036, 0.15635579999070615]",95.22698770000716,None,,,,,,001,2022_Nov_18_0015,TMT_fmri,2021.2.3,59.9428025783916,
A1,208:234,10,['1'],1,TMTstop-A_1_1linestimulus7.png,TMTstop-A_1_1greenlinestimulus7.png,TMTstop-A_1_1redlinestimulus7.png,TMT_A,A1,10,None,2,,,,,,,,,0,0,0,0,0,9,9,9,,,,,,,,,,,,,,,,,,,,,,,,,,,,,,,,,,,,,,,,,,,,,,,,,,,,,,,2,0,62.76365649999934,95.47872369999823,None,"['2', '1']",1,"[-0.039370600003167056, 0.014835100009804592]",95.47872369999823,None,,,,,,001,2022_Nov_18_0015,TMT_fmri,2021.2.3,59.9428025783916,
A1,208:234,11,['3'],3,TMTstop-A_1_1linestimulus8.png,TMTstop-A_1_1greenlinestimulus8.png,TMTstop-A_1_1redlinestimulus8.png,TMT_A,A1,11,None,2,,,,,,,,,0,0,0,0,0,10,10,10,,,,,,,,,,,,,,,,,,,,,,,,,,,,,,,,,,,,,,,,,,,,,,,,,,,,,,,1,1,64.18253160000313,95.57953230000567,None,['3'],1,[1.3536078999895835],95.57953230000567,None,,,,,,001,2022_Nov_18_0015,TMT_fmri,2021.2.3,59.9428025783916,
A1,208:234,12,['2'],2,TMTstop-A_1_1linestimulus9.png,TMTstop-A_1_1greenlinestimulus9.png,TMTstop-A_1_1redlinestimulus9.png,TMT_A,A1,12,None,2,,,,,,,,,0,0,0,0,0,11,11,11,,,,,,,,,,,,,,,,,,,,,,,,,,,,,,,,,,,,,,,,,,,,,,,,,,,,,,,1,1,64.2415333000099,97.00663869999698,None,['2'],1,[-0.03566059999866411],97.00663869999698,None,,,,,,001,2022_Nov_18_0015,TMT_fmri,2021.2.3,59.9428025783916,
A1,208:234,13,['1'],1,TMTstop-A_1_1linestimulus10.png,TMTstop-A_1_1greenlinestimulus10.png,TMTstop-A_1_1redlinestimulus10.png,TMT_A,A1,13,None,2,,,,,,,,,0,0,0,0,0,12,12,12,,,,,,,,,,,,,,,,,,,,,,,,,,,,,,,,,,,,,,,,,,,,,,,,,,,,,,,1,1,64.30754520000482,97.07302789999812,None,['1'],1,[-0.008729399996809661],97.07302789999812,None,,,,,,001,2022_Nov_18_0015,TMT_fmri,2021.2.3,59.9428025783916,
A1,208:234,14,['2'],2,TMTstop-A_1_1linestimulus11.png,TMTstop-A_1_1greenlinestimulus11.png,TMTstop-A_1_1redlinestimulus11.png,TMT_A,A1,14,None,2,,,,,,,,,0,0,0,0,0,13,13,13,,,,,,,,,,,,,,,,,,,,,,,,,,,,,,,,,,,,,,,,,,,,,,,,,,,,,,,2,0,64.54857480000646,97.12950850000198,None,"['3', '2']",1,"[0.10889060000772588, 0.14314610000292305]",97.12950850000198,None,,,,,,001,2022_Nov_18_0015,TMT_fmri,2021.2.3,59.9428025783916,
A1,208:234,15,['1'],1,TMTstop-A_1_1linestimulus12.png,TMTstop-A_1_1greenlinestimulus12.png,TMTstop-A_1_1redlinestimulus12.png,TMT_A,A1,15,None,2,,,,,,,,,0,0,0,0,0,14,14,14,,,,,,,,,,,,,,,,,,,,,,,,,,,,,,,,,,,,,,,,,,,,,,,,,,,,,,,1,1,64.59754810000595,97.36334720000741,None,['1'],1,[-0.00400919999810867],97.36334720000741,None,,,,,,001,2022_Nov_18_0015,TMT_fmri,2021.2.3,59.9428025783916,
A1,208:234,16,['2'],2,TMTstop-A_1_1linestimulus13.png,TMTstop-A_1_1greenlinestimulus13.png,TMTstop-A_1_1redlinestimulus13.png,TMT_A,A1,16,None,2,,,,,,,,,0,0,0,0,0,15,15,15,,,,,,,,,,,,,,,,,,,,,,,,,,,,,,,,,,,,,,,,,,,,,,,,,,,,,,,2,0,64.80667550000362,97.41322570000193,None,"['3', '2']",1,"[0.09230679999745917, 0.1408413000026485]",97.41322570000193,None,,,,,,001,2022_Nov_18_0015,TMT_fmri,2021.2.3,59.9428025783916,
A1,208:234,17,['1'],1,TMTstop-A_1_1linestimulus14.png,TMTstop-A_1_1greenlinestimulus14.png,TMTstop-A_1_1redlinestimulus14.png,TMT_A,A1,17,None,2,,,,,,,,,0,0,0,0,0,16,16,16,,,,,,,,,,,,,,,,,,,,,,,,,,,,,,,,,,,,,,,,,,,,,,,,,,,,,,,1,1,64.88969609999913,97.62120910000522,None,['1'],1,[0.010386399997514673],97.62120910000522,None,,,,,,001,2022_Nov_18_0015,TMT_fmri,2021.2.3,59.9428025783916,
A1,208:234,18,['3'],3,TMTstop-A_1_1linestimulus15.png,TMTstop-A_1_1greenlinestimulus15.png,TMTstop-A_1_1redlinestimulus15.png,TMT_A,A1,18,None,2,,,,,,,,,0,0,0,0,0,17,17,17,,,,,,,,,,,,,,,,,,,,,,,,,,,,,,,,,,,,,,,,,,,,,,,,,,,,,,,1,1,65.02341210001032,97.70515730000625,None,['3'],1,[0.07261620000645053],97.70515730000625,None,,,,,,001,2022_Nov_18_0015,TMT_fmri,2021.2.3,59.9428025783916,
A1,208:234,19,['2'],2,TMTstop-A_1_1linestimulus16.png,TMTstop-A_1_1greenlinestimulus16.png,TMTstop-A_1_1redlinestimulus16.png,TMT_A,A1,19,None,2,,,,,,,,,0,0,0,0,0,18,18,18,,,,,,,,,,,,,,,,,,,,,,,,,,,,,,,,,,,,,,,,,,,,,,,,,,,,,,,1,1,65.07304380000278,97.83823980001034,None,['2'],1,[-0.013817200000630692],97.83823980001034,None,,,,,,001,2022_Nov_18_0015,TMT_fmri,2021.2.3,59.9428025783916,
A1,208:234,20,['3'],3,TMTstop-A_1_1linestimulus17.png,TMTstop-A_1_1greenlinestimulus17.png,TMTstop-A_1_1redlinestimulus17.png,TMT_A,A1,20,None,2,,,,,,,,,0,0,0,0,0,19,19,19,,,,,,,,,,,,,,,,,,,,,,,,,,,,,,,,,,,,,,,,,,,,,,,,,,,,,,,2,0,65.3071445000096,97.8883724000043,None,"['1', '3']",1,"[0.012920100009068847, 0.15427539999654982]",97.8883724000043,None,,,,,,001,2022_Nov_18_0015,TMT_fmri,2021.2.3,59.9428025783916,
A1,208:234,21,['1'],1,TMTstop-A_1_1linestimulus18.png,TMTstop-A_1_1greenlinestimulus18.png,TMTstop-A_1_1redlinestimulus18.png,TMT_A,A1,21,None,2,,,,,,,,,0,0,0,0,0,20,20,20,,,,,,,,,,,,,,,,,,,,,,,,,,,,,,,,,,,,,,,,,,,,,,,,,,,,,,,2,0,65.40717099999893,98.12213790000533,None,"['2', '1']",1,"[-0.029635400002007373, 0.04745909999473952]",98.12213790000533,None,,,,,,001,2022_Nov_18_0015,TMT_fmri,2021.2.3,59.9428025783916,
A1,208:234,22,['3'],3,TMTstop-A_1_1linestimulus19.png,TMTstop-A_1_1greenlinestimulus19.png,TMTstop-A_1_1redlinestimulus19.png,TMT_A,A1,22,None,2,,,,,,,,,0,0,0,0,0,21,21,21,,,,,,,,,,,,,,,,,,,,,,,,,,,,,,,,,,,,,,,,,,,,,,,,,,,,,,,1,1,65.57338490000984,98.22226239999873,None,['3'],1,[0.10404340000241064],98.22226239999873,None,,,,,,001,2022_Nov_18_0015,TMT_fmri,2021.2.3,59.9428025783916,
A1,208:234,23,['1'],1,TMTstop-A_1_1linestimulus20.png,TMTstop-A_1_1greenlinestimulus20.png,TMTstop-A_1_1redlinestimulus20.png,TMT_A,A1,23,None,2,,,,,,,,,0,0,0,0,0,22,22,22,,,,,,,,,,,,,,,,,,,,,,,,,,,,,,,,,,,,,,,,,,,,,,,,,,,,,,,2,0,65.72916240000632,98.38919170000008,None,"['2', '1']",1,"[-0.017393699992680922, 0.05798430000140797]",98.38919170000008,None,,,,,,001,2022_Nov_18_0015,TMT_fmri,2021.2.3,59.9428025783916,
A1,208:234,24,['3'],3,TMTstop-A_1_1linestimulus21.png,TMTstop-A_1_1greenlinestimulus21.png,TMTstop-A_1_1redlinestimulus21.png,TMT_A,A1,24,None,2,,,,,,,,,0,0,0,0,0,23,23,23,,,,,,,,,,,,,,,,,,,,,,,,,,,,,,,,,,,,,,,,,,,,,,,,,,,,,,,1,1,65.85413659999904,98.55231340001046,None,['3'],1,[0.061230999999679625],98.55231340001046,None,,,,,,001,2022_Nov_18_0015,TMT_fmri,2021.2.3,59.9428025783916,
A1,208:234,25,['1'],1,TMTstop-A_1_1linestimulus22.png,TMTstop-A_1_1greenlinestimulus22.png,TMTstop-A_1_1redlinestimulus22.png,TMT_A,A1,25,None,2,,,,,,,,,0,0,0,0,0,24,24,24,,,,,,,,,,,,,,,,,,,,,,,,,,,,,,,,,,,,,,,,,,,,,,,,,,,,,,,2,0,65.97756900000968,98.68615960000898,None,"['2', '1']",1,"[-0.028468100004829466, 0.045799200001056306]",98.68615960000898,None,,,,,,001,2022_Nov_18_0015,TMT_fmri,2021.2.3,59.9428025783916,
A1,208:234,None,None,None,TMTstop-A_1_1linestimulus23.png,TMTstop-A_1_1greenlinestimulus23.png,TMTstop-A_1_1redlinestimulus23.png,TMT_A,A1,Feedback_last,None,2,,,,,,,,,0,0,0,0,0,25,25,25,,,,,,,,,,,,,,,,,,,,,,,,,,,,,,,,,,,,,,,,,,,,,,,,,,,,,,,3,0,,98.80986910000502,None,"['3', '2', '1']",0,"[0.09101209999062121, 0.12816429999656975, 0.21858079999219626]",98.80986910000502,None,,,,,,001,2022_Nov_18_0015,TMT_fmri,2021.2.3,59.9428025783916,
A2,234:260,1,['1'],1,TMTstop-A_1_2.png,TMTstop-A_1_2.png,TMTstop-A_1_2.png,TMT_A,A2,26,None,2,,,,,,,,,0,1,1,1,0,0,0,0,,,,,,,,,,,,,,,,,,,,,,,,,,,,,,,,,,,,,,,,,,,,,,,,,,,,,,,1,1,71.22674749999715,103.06563710000773,None,['1'],1,[0.9186473999870941],103.06563710000773,None,,,,,,001,2022_Nov_18_0015,TMT_fmri,2021.2.3,59.9428025783916,
A2,234:260,2,['3'],3,TMTstop-A_1_2.png,TMTstop-A_1_2firstgreen.png,TMTstop-A_1_2firstred.png,TMT_A,A2,27,None,2,,,,,,,,,0,1,1,1,0,1,1,1,,,,,,,,,,,,,,,,,,,,,,,,,,,,,,,,,,,,,,,,,,,,,,,,,,,,,,,1,1,71.49986180000997,104.04851020000933,None,['3'],1,[0.2150038000108907],104.04851020000933,None,,,,,,001,2022_Nov_18_0015,TMT_fmri,2021.2.3,59.9428025783916,
A2,234:260,3,['1'],1,TMTstop-A_1_2linestimulus0.png,TMTstop-A_1_2greenlinestimulus0.png,TMTstop-A_1_2redlinestimulus0.png,TMT_A,A2,28,None,2,,,,,,,,,0,1,1,1,0,2,2,2,,,,,,,,,,,,,,,,,,,,,,,,,,,,,,,,,,,,,,,,,,,,,,,,,,,,,,,2,0,71.66182829999889,104.32286320001003,None,"['2', '1']",1,"[-0.04942450000089593, 0.07344880000164267]",104.32286320001003,None,,,,,,001,2022_Nov_18_0015,TMT_fmri,2021.2.3,59.9428025783916,
A2,234:260,4,['2'],2,TMTstop-A_1_2linestimulus1.png,TMTstop-A_1_2greenlinestimulus1.png,TMTstop-A_1_2redlinestimulus1.png,TMT_A,A2,29,None,2,,,,,,,,,0,1,1,1,0,3,3,3,,,,,,,,,,,,,,,,,,,,,,,,,,,,,,,,,,,,,,,,,,,,,,,,,,,,,,,2,0,71.90608190000057,104.48416449999786,None,"['3', '2']",1,"[0.07966440000745934, 0.13755480000691023]",104.48416449999786,None,,,,,,001,2022_Nov_18_0015,TMT_fmri,2021.2.3,59.9428025783916,
A2,234:260,5,['1'],1,TMTstop-A_1_2linestimulus2.png,TMTstop-A_1_2greenlinestimulus2.png,TMTstop-A_1_2redlinestimulus2.png,TMT_A,A2,30,None,2,,,,,,,,,0,1,1,1,0,4,4,4,,,,,,,,,,,,,,,,,,,,,,,,,,,,,,,,,,,,,,,,,,,,,,,,,,,,,,,3,0,72.37108189999708,104.72888419999799,None,"['3', '2', '1']",1,"[0.2967248000059044, 0.35023199999704957, 0.37050859999726526]",104.72888419999799,None,,,,,,001,2022_Nov_18_0015,TMT_fmri,2021.2.3,59.9428025783916,
A2,234:260,6,['3'],3,TMTstop-A_1_2linestimulus3.png,TMTstop-A_1_2greenlinestimulus3.png,TMTstop-A_1_2redlinestimulus3.png,TMT_A,A2,31,None,2,,,,,,,,,0,1,1,1,0,5,5,5,,,,,,,,,,,,,,,,,,,,,,,,,,,,,,,,,,,,,,,,,,,,,,,,,,,,,,,0,0,,105.19105100000161,None,None,0,,105.19105100000161,None,,,,,,001,2022_Nov_18_0015,TMT_fmri,2021.2.3,59.9428025783916,
C3,52:78,1,['2'],2,TMTstop-control_1_3.png,TMTstop-control_1_3.png,TMTstop-control_1_3.png,TMT_Control,C3,51,2,1,,,,,,,,,,,,,,,,,0,0,0,0,0,0,0,0,,,,,,,,,,,,,,,,,,,,,,,,,,,,,,,,,,,,,,,,,,,,,,,3,0,154.147658700007,181.99658669999917,None,"['1', '3', '2']",1,"[4.658822400000645, 4.830823999989661, 4.901973399988492]",181.99658669999917,None,,,,,,001,2022_Nov_18_0015,TMT_fmri,2021.2.3,59.9428025783916,
C3,52:78,2,['1'],1,TMTstop-control_1_3.png,TMTstop-control_1_3firstgreen.png,TMTstop-control_1_3firstred.png,TMT_Control,C3,52,None,1,,,,,,,,,,,,,,,,,0,0,0,0,0,1,1,1,,,,,,,,,,,,,,,,,,,,,,,,,,,,,,,,,,,,,,,,,,,,,,,1,1,154.23770640000293,186.96658110000135,None,['1'],1,[0.02669430000241846],186.96658110000135,None,,,,,,001,2022_Nov_18_0015,TMT_fmri,2021.2.3,59.9428025783916,
C3,52:78,3,['2'],2,TMTstop-control_1_3linestimulus0.png,TMTstop-control_1_3greenlinestimulus0.png,TMTstop-control_1_3redlinestimulus0.png,TMT_Control,C3,53,None,1,,,,,,,,,,,,,,,,,0,0,0,0,0,2,2,2,,,,,,,,,,,,,,,,,,,,,,,,,,,,,,,,,,,,,,,,,,,,,,,2,0,154.42459340000642,187.0570766000019,None,"['3', '2']",1,"[0.0793928000057349, 0.1195644999970682]",187.0570766000019,None,,,,,,001,2022_Nov_18_0015,TMT_fmri,2021.2.3,59.9428025783916,
C3,52:78,4,['1'],1,TMTstop-control_1_3linestimulus1.png,TMTstop-control_1_3greenlinestimulus1.png,TMTstop-control_1_3redlinestimulus1.png,TMT_Control,C3,54,None,1,,,,,,,,,,,,,,,,,0,0,0,0,0,3,3,3,,,,,,,,,,,,,,,,,,,,,,,,,,,,,,,,,,,,,,,,,,,,,,,1,1,154.5415847999975,187.24059780000243,None,['1'],1,[0.06225439999252558],187.24059780000243,None,,,,,,001,2022_Nov_18_0015,TMT_fmri,2021.2.3,59.9428025783916,
C3,52:78,5,['3'],3,TMTstop-control_1_3linestimulus2.png,TMTstop-control_1_3greenlinestimulus2.png,TMTstop-control_1_3redlinestimulus2.png,TMT_Control,C3,55,None,1,,,,,,,,,,,,,,,,,0,0,0,0,0,4,4,4,,,,,,,,,,,,,,,,,,,,,,,,,,,,,,,,,,,,,,,,,,,,,,,0,0,,187.35742580000078,None,None,0,,187.35742580000078,None,,,,,,001,2022_Nov_18_0015,TMT_fmri,2021.2.3,59.9428025783916,
C3,52:78,6,['1'],1,TMTstop-control_1_3linestimulus3.png,TMTstop-control_1_3greenlinestimulus3.png,TMTstop-control_1_3redlinestimulus3.png,TMT_Control,C3,56,None,1,,,,,,,,,,,,,,,,,0,0,0,0,0,5,5,5,,,,,,,,,,,,,,,,,,,,,,,,,,,,,,,,,,,,,,,,,,,,,,,0,0,,226.8369349600078,None,None,0,,226.8369349600078,None,,,,,,001,2022_Nov_18_0015,TMT_fmri,2021.2.3,59.9428025783916,
C3,52:78,7,['2'],2,TMTstop-control_1_3linestimulus4.png,TMTstop-control_1_3greenlinestimulus4.png,TMTstop-control_1_3redlinestimulus4.png,TMT_Control,C3,57,None,1,,,,,,,,,,,,,,,,,0,0,0,0,0,6,6,6,,,,,,,,,,,,,,,,,,,,,,,,,,,,,,,,,,,,,,,,,,,,,,,0,0,,226.87060722000896,None,None,0,,226.87060722000896,None,,,,,,001,2022_Nov_18_0015,TMT_fmri,2021.2.3,59.9428025783916,
C3,52:78,8,['3'],3,TMTstop-control_1_3linestimulus4.png,TMTstop-control_1_3greenlinestimulus5.png,TMTstop-control_1_3redlinestimulus5.png,TMT_Control,C3,58,None,1,,,,,,,,,,,,,,,,,0,0,0,0,0,7,7,7,,,,,,,,,,,,,,,,,,,,,,,,,,,,,,,,,,,,,,,,,,,,,,,0,0,,226.90427948001016,None,None,0,,226.90427948001016,None,,,,,,001,2022_Nov_18_0015,TMT_fmri,2021.2.3,59.9428025783916,
C3,52:78,9,['1'],1,TMTstop-control_1_3linestimulus6.png,TMTstop-control_1_3greenlinestimulus6.png,TMTstop-control_1_3redlinestimulus6.png,TMT_Control,C3,59,None,1,,,,,,,,,,,,,,,,,0,0,0,0,0,8,8,8,,,,,,,,,,,,,,,,,,,,,,,,,,,,,,,,,,,,,,,,,,,,,,,0,0,,226.93795174001136,None,None,0,,226.93795174001136,None,,,,,,001,2022_Nov_18_0015,TMT_fmri,2021.2.3,59.9428025783916,
C3,52:78,10,['2'],2,TMTstop-control_1_3linestimulus7.png,TMTstop-control_1_3greenlinestimulus7.png,TMTstop-control_1_3redlinestimulus7.png,TMT_Control,C3,60,None,1,,,,,,,,,,,,,,,,,0,0,0,0,0,9,9,9,,,,,,,,,,,,,,,,,,,,,,,,,,,,,,,,,,,,,,,,,,,,,,,0,0,,226.97162400001253,None,None,0,,226.97162400001253,None,,,,,,001,2022_Nov_18_0015,TMT_fmri,2021.2.3,59.9428025783916,
C3,52:78,11,['1'],1,TMTstop-control_1_3linestimulus8.png,TMTstop-control_1_3greenlinestimulus8.png,TMTstop-control_1_3redlinestimulus8.png,TMT_Control,C3,61,None,1,,,,,,,,,,,,,,,,,0,0,0,0,0,10,10,10,,,,,,,,,,,,,,,,,,,,,,,,,,,,,,,,,,,,,,,,,,,,,,,0,0,,227.00529626001372,None,None,0,,227.00529626001372,None,,,,,,001,2022_Nov_18_0015,TMT_fmri,2021.2.3,59.9428025783916,
C3,52:78,12,['2'],2,TMTstop-control_1_3linestimulus9.png,TMTstop-control_1_3greenlinestimulus9.png,TMTstop-control_1_3redlinestimulus9.png,TMT_Control,C3,62,None,1,,,,,,,,,,,,,,,,,0,0,0,0,0,11,11,11,,,,,,,,,,,,,,,,,,,,,,,,,,,,,,,,,,,,,,,,,,,,,,,0,0,,227.0389685200149,None,None,0,,227.0389685200149,None,,,,,,001,2022_Nov_18_0015,TMT_fmri,2021.2.3,59.9428025783916,
C3,52:78,13,['3'],3,TMTstop-control_1_3linestimulus10.png,TMTstop-control_1_3greenlinestimulus10.png,TMTstop-control_1_3redlinestimulus10.png,TMT_Control,C3,63,None,1,,,,,,,,,,,,,,,,,0,0,0,0,0,12,12,12,,,,,,,,,,,,,,,,,,,,,,,,,,,,,,,,,,,,,,,,,,,,,,,0,0,,227.0558046500155,None,None,0,,227.0558046500155,None,,,,,,001,2022_Nov_18_0015,TMT_fmri,2021.2.3,59.9428025783916,
C3,52:78,14,['2'],2,TMTstop-control_1_3linestimulus11.png,TMTstop-control_1_3greenlinestimulus11.png,TMTstop-control_1_3redlinestimulus11.png,TMT_Control,C3,64,None,1,,,,,,,,,,,,,,,,,0,0,0,0,0,13,13,13,,,,,,,,,,,,,,,,,,,,,,,,,,,,,,,,,,,,,,,,,,,,,,,0,0,,227.08947691001669,None,None,0,,227.08947691001669,None,,,,,,001,2022_Nov_18_0015,TMT_fmri,2021.2.3,59.9428025783916,
C3,52:78,15,['1'],1,TMTstop-control_1_3linestimulus12.png,TMTstop-control_1_3greenlinestimulus12.png,TMTstop-control_1_3redlinestimulus12.png,TMT_Control,C3,65,None,1,,,,,,,,,,,,,,,,,0,0,0,0,0,14,14,14,,,,,,,,,,,,,,,,,,,,,,,,,,,,,,,,,,,,,,,,,,,,,,,0,0,,227.12314917001785,None,None,0,,227.12314917001785,None,,,,,,001,2022_Nov_18_0015,TMT_fmri,2021.2.3,59.9428025783916,
C3,52:78,16,['3'],3,TMTstop-control_1_3linestimulus13.png,TMTstop-control_1_3greenlinestimulus13.png,TMTstop-control_1_3redlinestimulus13.png,TMT_Control,C3,66,None,1,,,,,,,,,,,,,,,,,0,0,0,0,0,15,15,15,,,,,,,,,,,,,,,,,,,,,,,,,,,,,,,,,,,,,,,,,,,,,,,0,0,,227.15682143001905,None,None,0,,227.15682143001905,None,,,,,,001,2022_Nov_18_0015,TMT_fmri,2021.2.3,59.9428025783916,
C3,52:78,17,['1'],1,TMTstop-control_1_3linestimulus14.png,TMTstop-control_1_3greenlinestimulus14.png,TMTstop-control_1_3redlinestimulus14.png,TMT_Control,C3,67,None,1,,,,,,,,,,,,,,,,,0,0,0,0,0,16,16,16,,,,,,,,,,,,,,,,,,,,,,,,,,,,,,,,,,,,,,,,,,,,,,,0,0,,227.19049369002025,None,None,0,,227.19049369002025,None,,,,,,001,2022_Nov_18_0015,TMT_fmri,2021.2.3,59.9428025783916,
C3,52:78,18,['3'],3,TMTstop-control_1_3linestimulus15.png,TMTstop-control_1_3greenlinestimulus15.png,TMTstop-control_1_3redlinestimulus15.png,TMT_Control,C3,68,None,1,,,,,,,,,,,,,,,,,0,0,0,0,0,17,17,17,,,,,,,,,,,,,,,,,,,,,,,,,,,,,,,,,,,,,,,,,,,,,,,0,0,,227.22416595002142,None,None,0,,227.22416595002142,None,,,,,,001,2022_Nov_18_0015,TMT_fmri,2021.2.3,59.9428025783916,
C3,52:78,19,['2'],2,TMTstop-control_1_3linestimulus16.png,TMTstop-control_1_3greenlinestimulus16.png,TMTstop-control_1_3redlinestimulus16.png,TMT_Control,C3,69,None,1,,,,,,,,,,,,,,,,,0,0,0,0,0,18,18,18,,,,,,,,,,,,,,,,,,,,,,,,,,,,,,,,,,,,,,,,,,,,,,,0,0,,227.241002080022,None,None,0,,227.241002080022,None,,,,,,001,2022_Nov_18_0015,TMT_fmri,2021.2.3,59.9428025783916,
C3,52:78,20,['1'],1,TMTstop-control_1_3linestimulus17.png,TMTstop-control_1_3greenlinestimulus17.png,TMTstop-control_1_3redlinestimulus17.png,TMT_Control,C3,70,None,1,,,,,,,,,,,,,,,,,0,0,0,0,0,19,19,19,,,,,,,,,,,,,,,,,,,,,,,,,,,,,,,,,,,,,,,,,,,,,,,0,0,,227.2746743400232,None,None,0,,227.2746743400232,None,,,,,,001,2022_Nov_18_0015,TMT_fmri,2021.2.3,59.9428025783916,
C3,52:78,21,['3'],3,TMTstop-control_1_3linestimulus18.png,TMTstop-control_1_3greenlinestimulus18.png,TMTstop-control_1_3redlinestimulus18.png,TMT_Control,C3,71,None,1,,,,,,,,,,,,,,,,,0,0,0,0,0,20,20,20,,,,,,,,,,,,,,,,,,,,,,,,,,,,,,,,,,,,,,,,,,,,,,,0,0,,227.30834660002438,None,None,0,,227.30834660002438,None,,,,,,001,2022_Nov_18_0015,TMT_fmri,2021.2.3,59.9428025783916,
C3,52:78,22,['2'],2,TMTstop-control_1_3linestimulus19.png,TMTstop-control_1_3greenlinestimulus19.png,TMTstop-control_1_3redlinestimulus19.png,TMT_Control,C3,72,None,1,,,,,,,,,,,,,,,,,0,0,0,0,0,21,21,21,,,,,,,,,,,,,,,,,,,,,,,,,,,,,,,,,,,,,,,,,,,,,,,0,0,,227.34201886002558,None,None,0,,227.34201886002558,None,,,,,,001,2022_Nov_18_0015,TMT_fmri,2021.2.3,59.9428025783916,
C3,52:78,23,['3'],3,TMTstop-control_1_3linestimulus20.png,TMTstop-control_1_3greenlinestimulus20.png,TMTstop-control_1_3redlinestimulus20.png,TMT_Control,C3,73,None,1,,,,,,,,,,,,,,,,,0,0,0,0,0,22,22,22,,,,,,,,,,,,,,,,,,,,,,,,,,,,,,,,,,,,,,,,,,,,,,,0,0,,227.37569112002674,None,None,0,,227.37569112002674,None,,,,,,001,2022_Nov_18_0015,TMT_fmri,2021.2.3,59.9428025783916,
C3,52:78,24,['1'],1,TMTstop-control_1_3linestimulus21.png,TMTstop-control_1_3greenlinestimulus21.png,TMTstop-control_1_3redlinestimulus21.png,TMT_Control,C3,74,None,1,,,,,,,,,,,,,,,,,0,0,0,0,0,23,23,23,,,,,,,,,,,,,,,,,,,,,,,,,,,,,,,,,,,,,,,,,,,,,,,0,0,,227.40936338002794,None,None,0,,227.40936338002794,None,,,,,,001,2022_Nov_18_0015,TMT_fmri,2021.2.3,59.9428025783916,
C3,52:78,25,['2'],2,TMTstop-control_1_3linestimulus22.png,TMTstop-control_1_3greenlinestimulus22.png,TMTstop-control_1_3redlinestimulus22.png,TMT_Control,C3,75,None,1,,,,,,,,,,,,,,,,,0,0,0,0,0,24,24,24,,,,,,,,,,,,,,,,,,,,,,,,,,,,,,,,,,,,,,,,,,,,,,,0,0,,227.44303564002914,None,None,0,,227.44303564002914,None,,,,,,001,2022_Nov_18_0015,TMT_fmri,2021.2.3,59.9428025783916,
C3,52:78,None,None,None,TMTstop-control_1_3linestimulus23.png,TMTstop-control_1_3greenlinestimulus23.png,TMTstop-control_1_3redlinestimulus23.png,TMT_Control,C3,Feedback_last,None,1,,,,,,,,,,,,,,,,,0,0,0,0,0,25,25,25,,,,,,,,,,,,,,,,,,,,,,,,,,,,,,,,,,,,,,,,,,,,,,,0,0,,227.4767079000303,None,None,1,,227.4767079000303,None,,,,,,001,2022_Nov_18_0015,TMT_fmri,2021.2.3,59.9428025783916,
C4,78:104,1,['2'],2,TMTstop-control_1_4.png,TMTstop-control_1_4.png,TMTstop-control_1_4.png,TMT_Control,C4,76,None,1,,,,,,,,,,,,,,,,,0,1,1,1,0,0,0,0,,,,,,,,,,,,,,,,,,,,,,,,,,,,,,,,,,,,,,,,,,,,,,,0,0,,229.50581176000998,None,None,0,,229.50581176000998,None,,,,,,001,2022_Nov_18_0015,TMT_fmri,2021.2.3,59.9428025783916,
C4,78:104,2,['1'],1,TMTstop-control_1_4.png,TMTstop-control_1_4firstgreen.png,TMTstop-control_1_4firstred.png,TMT_Control,C4,77,None,1,,,,,,,,,,,,,,,,,0,1,1,1,0,1,1,1,,,,,,,,,,,,,,,,,,,,,,,,,,,,,,,,,,,,,,,,,,,,,,,0,0,,229.53948402001114,None,None,0,,229.53948402001114,None,,,,,,001,2022_Nov_18_0015,TMT_fmri,2021.2.3,59.9428025783916,
C4,78:104,3,['3'],3,TMTstop-control_1_4linestimulus0.png,TMTstop-control_1_4greenlinestimulus0.png,TMTstop-control_1_4redlinestimulus0.png,TMT_Control,C4,78,None,1,,,,,,,,,,,,,,,,,0,1,1,1,0,2,2,2,,,,,,,,,,,,,,,,,,,,,,,,,,,,,,,,,,,,,,,,,,,,,,,0,0,,229.57315628001234,None,None,0,,229.57315628001234,None,,,,,,001,2022_Nov_18_0015,TMT_fmri,2021.2.3,59.9428025783916,
C4,78:104,4,['1'],1,TMTstop-control_1_4linestimulus1.png,TMTstop-control_1_4greenlinestimulus1.png,TMTstop-control_1_4redlinestimulus1.png,TMT_Control,C4,79,None,1,,,,,,,,,,,,,,,,,0,1,1,1,0,3,3,3,,,,,,,,,,,,,,,,,,,,,,,,,,,,,,,,,,,,,,,,,,,,,,,0,0,,229.60682854001354,None,None,0,,229.60682854001354,None,,,,,,001,2022_Nov_18_0015,TMT_fmri,2021.2.3,59.9428025783916,
C4,78:104,5,['3'],3,TMTstop-control_1_4linestimulus2.png,TMTstop-control_1_4greenlinestimulus2.png,TMTstop-control_1_4redlinestimulus2.png,TMT_Control,C4,80,None,1,,,,,,,,,,,,,,,,,0,1,1,1,0,4,4,4,,,,,,,,,,,,,,,,,,,,,,,,,,,,,,,,,,,,,,,,,,,,,,,0,0,,229.6405008000147,None,None,0,,229.6405008000147,None,,,,,,001,2022_Nov_18_0015,TMT_fmri,2021.2.3,59.9428025783916,
C4,78:104,6,['1'],1,TMTstop-control_1_4linestimulus3.png,TMTstop-control_1_4greenlinestimulus3.png,TMTstop-control_1_4redlinestimulus3.png,TMT_Control,C4,81,None,1,,,,,,,,,,,,,,,,,0,1,1,1,0,5,5,5,,,,,,,,,,,,,,,,,,,,,,,,,,,,,,,,,,,,,,,,,,,,,,,0,0,,229.6741730600159,None,None,0,,229.6741730600159,None,,,,,,001,2022_Nov_18_0015,TMT_fmri,2021.2.3,59.9428025783916,
C4,78:104,7,['3'],3,TMTstop-control_1_4linestimulus4.png,TMTstop-control_1_4greenlinestimulus4.png,TMTstop-control_1_4redlinestimulus4.png,TMT_Control,C4,82,None,1,,,,,,,,,,,,,,,,,0,1,1,1,0,6,6,6,,,,,,,,,,,,,,,,,,,,,,,,,,,,,,,,,,,,,,,,,,,,,,,0,0,,229.70784532001707,None,None,0,,229.70784532001707,None,,,,,,001,2022_Nov_18_0015,TMT_fmri,2021.2.3,59.9428025783916,
C4,78:104,8,['1'],1,TMTstop-control_1_4linestimulus4.png,TMTstop-control_1_4greenlinestimulus5.png,TMTstop-control_1_4redlinestimulus5.png,TMT_Control,C4,83,None,1,,,,,,,,,,,,,,,,,0,1,1,1,0,7,7,7,,,,,,,,,,,,,,,,,,,,,,,,,,,,,,,,,,,,,,,,,,,,,,,0,0,,229.74151758001827,None,None,0,,229.74151758001827,None,,,,,,001,2022_Nov_18_0015,TMT_fmri,2021.2.3,59.9428025783916,
C4,78:104,9,['3'],3,TMTstop-control_1_4linestimulus6.png,TMTstop-control_1_4greenlinestimulus6.png,TMTstop-control_1_4redlinestimulus6.png,TMT_Control,C4,84,None,1,,,,,,,,,,,,,,,,,0,1,1,1,0,8,8,8,,,,,,,,,,,,,,,,,,,,,,,,,,,,,,,,,,,,,,,,,,,,,,,0,0,,229.77518984001946,None,None,0,,229.77518984001946,None,,,,,,001,2022_Nov_18_0015,TMT_fmri,2021.2.3,59.9428025783916,
C4,78:104,10,['2'],2,TMTstop-control_1_4linestimulus7.png,TMTstop-control_1_4greenlinestimulus7.png,TMTstop-control_1_4redlinestimulus7.png,TMT_Control,C4,85,None,1,,,,,,,,,,,,,,,,,0,1,1,1,0,9,9,9,,,,,,,,,,,,,,,,,,,,,,,,,,,,,,,,,,,,,,,,,,,,,,,0,0,,229.80886210002063,None,None,0,,229.80886210002063,None,,,,,,001,2022_Nov_18_0015,TMT_fmri,2021.2.3,59.9428025783916,
C4,78:104,11,['1'],1,TMTstop-control_1_4linestimulus8.png,TMTstop-control_1_4greenlinestimulus8.png,TMTstop-control_1_4redlinestimulus8.png,TMT_Control,C4,86,None,1,,,,,,,,,,,,,,,,,0,1,1,1,0,10,10,10,,,,,,,,,,,,,,,,,,,,,,,,,,,,,,,,,,,,,,,,,,,,,,,0,0,,229.84253436002183,None,None,0,,229.84253436002183,None,,,,,,001,2022_Nov_18_0015,TMT_fmri,2021.2.3,59.9428025783916,
C4,78:104,12,['3'],3,TMTstop-control_1_4linestimulus9.png,TMTstop-control_1_4greenlinestimulus9.png,TMTstop-control_1_4redlinestimulus9.png,TMT_Control,C4,87,None,1,,,,,,,,,,,,,,,,,0,1,1,1,0,11,11,11,,,,,,,,,,,,,,,,,,,,,,,,,,,,,,,,,,,,,,,,,,,,,,,0,0,,229.876206620023,None,None,0,,229.876206620023,None,,,,,,001,2022_Nov_18_0015,TMT_fmri,2021.2.3,59.9428025783916,
C4,78:104,13,['2'],2,TMTstop-control_1_4linestimulus10.png,TMTstop-control_1_4greenlinestimulus10.png,TMTstop-control_1_4redlinestimulus10.png,TMT_Control,C4,88,None,1,,,,,,,,,,,,,,,,,0,1,1,1,0,12,12,12,,,,,,,,,,,,,,,,,,,,,,,,,,,,,,,,,,,,,,,,,,,,,,,0,0,,229.8930427500236,None,None,0,,229.8930427500236,None,,,,,,001,2022_Nov_18_0015,TMT_fmri,2021.2.3,59.9428025783916,
C4,78:104,14,['3'],3,TMTstop-control_1_4linestimulus11.png,TMTstop-control_1_4greenlinestimulus11.png,TMTstop-control_1_4redlinestimulus11.png,TMT_Control,C4,89,None,1,,,,,,,,,,,,,,,,,0,1,1,1,0,13,13,13,,,,,,,,,,,,,,,,,,,,,,,,,,,,,,,,,,,,,,,,,,,,,,,0,0,,229.9267150100248,None,None,0,,229.9267150100248,None,,,,,,001,2022_Nov_18_0015,TMT_fmri,2021.2.3,59.9428025783916,
C4,78:104,15,['2'],2,TMTstop-control_1_4linestimulus12.png,TMTstop-control_1_4greenlinestimulus12.png,TMTstop-control_1_4redlinestimulus12.png,TMT_Control,C4,90,None,1,,,,,,,,,,,,,,,,,0,1,1,1,0,14,14,14,,,,,,,,,,,,,,,,,,,,,,,,,,,,,,,,,,,,,,,,,,,,,,,0,0,,229.96038727002596,None,None,0,,229.96038727002596,None,,,,,,001,2022_Nov_18_0015,TMT_fmri,2021.2.3,59.9428025783916,
C4,78:104,16,['1'],1,TMTstop-control_1_4linestimulus13.png,TMTstop-control_1_4greenlinestimulus13.png,TMTstop-control_1_4redlinestimulus13.png,TMT_Control,C4,91,None,1,,,,,,,,,,,,,,,,,0,1,1,1,0,15,15,15,,,,,,,,,,,,,,,,,,,,,,,,,,,,,,,,,,,,,,,,,,,,,,,0,0,,229.99405953002716,None,None,0,,229.99405953002716,None,,,,,,001,2022_Nov_18_0015,TMT_fmri,2021.2.3,59.9428025783916,
C4,78:104,17,['3'],3,TMTstop-control_1_4linestimulus14.png,TMTstop-control_1_4greenlinestimulus14.png,TMTstop-control_1_4redlinestimulus14.png,TMT_Control,C4,92,None,1,,,,,,,,,,,,,,,,,0,1,1,1,0,16,16,16,,,,,,,,,,,,,,,,,,,,,,,,,,,,,,,,,,,,,,,,,,,,,,,0,0,,230.02773179002835,None,None,0,,230.02773179002835,None,,,,,,001,2022_Nov_18_0015,TMT_fmri,2021.2.3,59.9428025783916,
C4,78:104,18,['1'],1,TMTstop-control_1_4linestimulus15.png,TMTstop-control_1_4greenlinestimulus15.png,TMTstop-control_1_4redlinestimulus15.png,TMT_Control,C4,93,None,1,,,,,,,,,,,,,,,,,0,1,1,1,0,17,17,17,,,,,,,,,,,,,,,,,,,,,,,,,,,,,,,,,,,,,,,,,,,,,,,0,0,,230.06140405002952,None,None,0,,230.06140405002952,None,,,,,,001,2022_Nov_18_0015,TMT_fmri,2021.2.3,59.9428025783916,
C4,78:104,19,['2'],2,TMTstop-control_1_4linestimulus16.png,TMTstop-control_1_4greenlinestimulus16.png,TMTstop-control_1_4redlinestimulus16.png,TMT_Control,C4,94,None,1,,,,,,,,,,,,,,,,,0,1,1,1,0,18,18,18,,,,,,,,,,,,,,,,,,,,,,,,,,,,,,,,,,,,,,,,,,,,,,,0,0,,230.09507631003072,None,None,0,,230.09507631003072,None,,,,,,001,2022_Nov_18_0015,TMT_fmri,2021.2.3,59.9428025783916,
C4,78:104,20,['1'],1,TMTstop-control_1_4linestimulus17.png,TMTstop-control_1_4greenlinestimulus17.png,TMTstop-control_1_4redlinestimulus17.png,TMT_Control,C4,95,None,1,,,,,,,,,,,,,,,,,0,1,1,1,0,19,19,19,,,,,,,,,,,,,,,,,,,,,,,,,,,,,,,,,,,,,,,,,,,,,,,0,0,,230.1287485700319,None,None,0,,230.1287485700319,None,,,,,,001,2022_Nov_18_0015,TMT_fmri,2021.2.3,59.9428025783916,
C4,78:104,21,['2'],2,TMTstop-control_1_4linestimulus18.png,TMTstop-control_1_4greenlinestimulus18.png,TMTstop-control_1_4redlinestimulus18.png,TMT_Control,C4,96,None,1,,,,,,,,,,,,,,,,,0,1,1,1,0,20,20,20,,,,,,,,,,,,,,,,,,,,,,,,,,,,,,,,,,,,,,,,,,,,,,,0,0,,230.16242083003308,None,None,0,,230.16242083003308,None,,,,,,001,2022_Nov_18_0015,TMT_fmri,2021.2.3,59.9428025783916,
C4,78:104,22,['1'],1,TMTstop-control_1_4linestimulus19.png,TMTstop-control_1_4greenlinestimulus19.png,TMTstop-control_1_4redlinestimulus19.png,TMT_Control,C4,97,None,1,,,,,,,,,,,,,,,,,0,1,1,1,0,21,21,21,,,,,,,,,,,,,,,,,,,,,,,,,,,,,,,,,,,,,,,,,,,,,,,0,0,,230.19609309003428,None,None,0,,230.19609309003428,None,,,,,,001,2022_Nov_18_0015,TMT_fmri,2021.2.3,59.9428025783916,
C4,78:104,23,['2'],2,TMTstop-control_1_4linestimulus20.png,TMTstop-control_1_4greenlinestimulus20.png,TMTstop-control_1_4redlinestimulus20.png,TMT_Control,C4,98,None,1,,,,,,,,,,,,,,,,,0,1,1,1,0,22,22,22,,,,,,,,,,,,,,,,,,,,,,,,,,,,,,,,,,,,,,,,,,,,,,,0,0,,230.21292922003485,None,None,0,,230.21292922003485,None,,,,,,001,2022_Nov_18_0015,TMT_fmri,2021.2.3,59.9428025783916,
C4,78:104,24,['1'],1,TMTstop-control_1_4linestimulus21.png,TMTstop-control_1_4greenlinestimulus21.png,TMTstop-control_1_4redlinestimulus21.png,TMT_Control,C4,99,None,1,,,,,,,,,,,,,,,,,0,1,1,1,0,23,23,23,,,,,,,,,,,,,,,,,,,,,,,,,,,,,,,,,,,,,,,,,,,,,,,0,0,,230.24660148003605,None,None,0,,230.24660148003605,None,,,,,,001,2022_Nov_18_0015,TMT_fmri,2021.2.3,59.9428025783916,
C4,78:104,25,['2'],2,TMTstop-control_1_4linestimulus22.png,TMTstop-control_1_4greenlinestimulus22.png,TMTstop-control_1_4redlinestimulus22.png,TMT_Control,C4,100,None,1,,,,,,,,,,,,,,,,,0,1,1,1,0,24,24,24,,,,,,,,,,,,,,,,,,,,,,,,,,,,,,,,,,,,,,,,,,,,,,,0,0,,230.28027374003725,None,None,0,,230.28027374003725,None,,,,,,001,2022_Nov_18_0015,TMT_fmri,2021.2.3,59.9428025783916,
C4,78:104,None,None,None,TMTstop-control_1_4linestimulus23.png,TMTstop-control_1_4greenlinestimulus23.png,TMTstop-control_1_4redlinestimulus23.png,TMT_Control,C4,Feedback_last,None,1,,,,,,,,,,,,,,,,,0,1,1,1,0,25,25,25,,,,,,,,,,,,,,,,,,,,,,,,,,,,,,,,,,,,,,,,,,,,,,,0,0,,230.3139460000384,None,None,1,,230.3139460000384,None,,,,,,001,2022_Nov_18_0015,TMT_fmri,2021.2.3,59.9428025783916,
B1,364:390,1,['3'],3,TMTstop-B_1_1.png,TMTstop-B_1_1.png,TMTstop-B_1_1.png,TMT_B,B1,1,1,3,,,,,,,,,,,,,,,,,,,,,,,,,0,0,0,0,0,0,0,0,,,,,,,,,,,,,,,,,,,,,,,,,,,,,,,,,,,,,,,2,0,207.67190120001032,237.62737400000333,None,"['1', '3']",1,"[2.6939953999972204, 2.7933610000036424]",237.62737400000333,None,230.41198420000728,None,,,,001,2022_Nov_18_0015,TMT_fmri,2021.2.3,59.9428025783916,
B1,364:390,A,['1'],1,TMTstop-B_1_1.png,TMTstop-B_1_1firstgreen.png,TMTstop-B_1_1firstred.png,TMT_B,B1,2,None,3,,,,,,,,,,,,,,,,,,,,,,,,,0,0,0,0,0,1,1,1,,,,,,,,,,,,,,,,,,,,,,,,,,,,,,,,,,,,,,,2,0,207.88377970000147,240.49082150000322,None,"['2', '1']",1,"[-0.011171999998623505, 0.13057589999516495]",240.49082150000322,None,,,,,,001,2022_Nov_18_0015,TMT_fmri,2021.2.3,59.9428025783916,
B1,364:390,2,['3'],3,TMTstop-B_1_1linestimulus0.png,TMTstop-B_1_1greenlinestimulus0.png,TMTstop-B_1_1redlinestimulus0.png,TMT_B,B1,3,None,3,,,,,,,,,,,,,,,,,,,,,,,,,0,0,0,0,0,2,2,2,,,,,,,,,,,,,,,,,,,,,,,,,,,,,,,,,,,,,,,1,1,208.0698529000074,240.69866670000192,None,['3'],1,[0.1241920000029495],240.69866670000192,None,,,,,,001,2022_Nov_18_0015,TMT_fmri,2021.2.3,59.9428025783916,
B1,364:390,B,['2'],2,TMTstop-B_1_1linestimulus1.png,TMTstop-B_1_1greenlinestimulus1.png,TMTstop-B_1_1redlinestimulus1.png,TMT_B,B1,4,None,3,,,,,,,,,,,,,,,,,,,,,,,,,0,0,0,0,0,3,3,3,,,,,,,,,,,,,,,,,,,,,,,,,,,,,,,,,,,,,,,1,1,208.12082759999612,240.88571030000458,None,['2'],1,[-0.03617320000194013],240.88571030000458,None,,,,,,001,2022_Nov_18_0015,TMT_fmri,2021.2.3,59.9428025783916,
B1,364:390,3,['1'],1,TMTstop-B_1_1linestimulus2.png,TMTstop-B_1_1greenlinestimulus2.png,TMTstop-B_1_1redlinestimulus2.png,TMT_B,B1,5,None,3,,,,,,,,,,,,,,,,,,,,,,,,,0,0,0,0,0,4,4,4,,,,,,,,,,,,,,,,,,,,,,,,,,,,,,,,,,,,,,,1,1,208.20293030000175,240.9357897000009,None,['1'],1,[0.027464099999633618],240.9357897000009,None,,,,,,001,2022_Nov_18_0015,TMT_fmri,2021.2.3,59.9428025783916,
B1,364:390,C,['3'],3,TMTstop-B_1_1linestimulus3.png,TMTstop-B_1_1greenlinestimulus3.png,TMTstop-B_1_1redlinestimulus3.png,TMT_B,B1,6,None,3,,,,,,,,,,,,,,,,,,,,,,,,,0,0,0,0,0,5,5,5,,,,,,,,,,,,,,,,,,,,,,,,,,,,,,,,,,,,,,,1,1,208.37129550000827,241.01869609999994,None,['3'],1,[0.10151919999043457],241.01869609999994,None,,,,,,001,2022_Nov_18_0015,TMT_fmri,2021.2.3,59.9428025783916,
B1,364:390,4,['2'],2,TMTstop-B_1_1linestimulus4.png,TMTstop-B_1_1greenlinestimulus4.png,TMTstop-B_1_1redlinestimulus4.png,TMT_B,B1,7,None,3,,,,,,,,,,,,,,,,,,,,,,,,,0,0,0,0,0,6,6,6,,,,,,,,,,,,,,,,,,,,,,,,,,,,,,,,,,,,,,,1,1,208.42103019999922,241.18603490000532,None,['2'],1,[-0.04134379999595694],241.18603490000532,None,,,,,,001,2022_Nov_18_0015,TMT_fmri,2021.2.3,59.9428025783916,
B1,364:390,D,['1'],1,TMTstop-B_1_1linestimulus5.png,TMTstop-B_1_1greenlinestimulus5.png,TMTstop-B_1_1redlinestimulus5.png,TMT_B,B1,8,None,3,,,,,,,,,,,,,,,,,,,,,,,,,0,0,0,0,0,7,7,7,,,,,,,,,,,,,,,,,,,,,,,,,,,,,,,,,,,,,,,1,1,208.5039262000064,241.23602350000874,None,['1'],1,[0.015139700000872836],241.23602350000874,None,,,,,,001,2022_Nov_18_0015,TMT_fmri,2021.2.3,59.9428025783916,
B1,364:390,5,['3'],3,TMTstop-B_1_1linestimulus6.png,TMTstop-B_1_1greenlinestimulus6.png,TMTstop-B_1_1redlinestimulus6.png,TMT_B,B1,9,None,3,,,,,,,,,,,,,,,,,,,,,,,,,0,0,0,0,0,8,8,8,,,,,,,,,,,,,,,,,,,,,,,,,,,,,,,,,,,,,,,1,1,208.670941999997,241.31947509999736,None,['3'],1,[0.11073499999474734],241.31947509999736,None,,,,,,001,2022_Nov_18_0015,TMT_fmri,2021.2.3,59.9428025783916,
B1,364:390,E,['1'],1,TMTstop-B_1_1linestimulus7.png,TMTstop-B_1_1greenlinestimulus7.png,TMTstop-B_1_1redlinestimulus7.png,TMT_B,B1,10,None,3,,,,,,,,,,,,,,,,,,,,,,,,,0,0,0,0,0,9,9,9,,,,,,,,,,,,,,,,,,,,,,,,,,,,,,,,,,,,,,,2,0,208.8048667999974,241.5031078000029,None,"['2', '1']",1,"[-0.047011999995447695, 0.06353159999707714]",241.5031078000029,None,,,,,,001,2022_Nov_18_0015,TMT_fmri,2021.2.3,59.9428025783916,
B1,364:390,6,['3'],3,TMTstop-B_1_1linestimulus8.png,TMTstop-B_1_1greenlinestimulus8.png,TMTstop-B_1_1redlinestimulus8.png,TMT_B,B1,11,None,3,,,,,,,,,,,,,,,,,,,,,,,,,0,0,0,0,0,10,10,10,,,,,,,,,,,,,,,,,,,,,,,,,,,,,,,,,,,,,,,1,1,208.97081559999788,241.6366326999996,None,['3'],1,[0.0980412999924738],241.6366326999996,None,,,,,,001,2022_Nov_18_0015,TMT_fmri,2021.2.3,59.9428025783916,
B1,364:390,F,['1'],1,TMTstop-B_1_1linestimulus9.png,TMTstop-B_1_1greenlinestimulus9.png,TMTstop-B_1_1redlinestimulus9.png,TMT_B,B1,12,None,3,,,,,,,,,,,,,,,,,,,,,,,,,0,0,0,0,0,11,11,11,,,,,,,,,,,,,,,,,,,,,,,,,,,,,,,,,,,,,,,2,0,209.13180080000893,241.78671359999862,None,"['2', '1']",1,"[-0.009768399992026389, 0.09951990000263322]",241.78671359999862,None,,,,,,001,2022_Nov_18_0015,TMT_fmri,2021.2.3,59.9428025783916,
B1,364:390,7,['3'],3,TMTstop-B_1_1linestimulus10.png,TMTstop-B_1_1greenlinestimulus10.png,TMTstop-B_1_1redlinestimulus10.png,TMT_B,B1,13,None,3,,,,,,,,,,,,,,,,,,,,,,,,,0,0,0,0,0,12,12,12,,,,,,,,,,,,,,,,,,,,,,,,,,,,,,,,,,,,,,,1,1,209.31580550000945,241.94775140000274,None,['3'],1,[0.12875780000467785],241.94775140000274,None,,,,,,001,2022_Nov_18_0015,TMT_fmri,2021.2.3,59.9428025783916,
B1,364:390,G,['2'],2,TMTstop-B_1_1linestimulus11.png,TMTstop-B_1_1greenlinestimulus11.png,TMTstop-B_1_1redlinestimulus11.png,TMT_B,B1,14,None,3,,,,,,,,,,,,,,,,,,,,,,,,,0,0,0,0,0,13,13,13,,,,,,,,,,,,,,,,,,,,,,,,,,,,,,,,,,,,,,,1,1,209.3649077000009,242.1306586999999,None,['2'],1,[-0.033252499997615814],242.1306586999999,None,,,,,,001,2022_Nov_18_0015,TMT_fmri,2021.2.3,59.9428025783916,
B1,364:390,8,['3'],3,TMTstop-B_1_1linestimulus12.png,TMTstop-B_1_1greenlinestimulus12.png,TMTstop-B_1_1redlinestimulus12.png,TMT_B,B1,15,None,3,,,,,,,,,,,,,,,,,,,,,,,,,0,0,0,0,0,14,14,14,,,,,,,,,,,,,,,,,,,,,,,,,,,,,,,,,,,,,,,2,0,209.65490700000373,242.180806400007,None,"['1', '3']",1,"[0.022744699992472306, 0.21271290000004228]",242.180806400007,None,,,,,,001,2022_Nov_18_0015,TMT_fmri,2021.2.3,59.9428025783916,
B1,364:390,H,['1'],1,TMTstop-B_1_1linestimulus13.png,TMTstop-B_1_1greenlinestimulus13.png,TMTstop-B_1_1redlinestimulus13.png,TMT_B,B1,16,None,3,,,,,,,,,,,,,,,,,,,,,,,,,0,0,0,0,0,15,15,15,,,,,,,,,,,,,,,,,,,,,,,,,,,,,,,,,,,,,,,2,0,209.7549418999988,242.47044740000274,None,"['2', '1']",1,"[-0.040064800006803125, 0.03677159998915158]",242.47044740000274,None,,,,,,001,2022_Nov_18_0015,TMT_fmri,2021.2.3,59.9428025783916,
B1,364:390,9,['3'],3,TMTstop-B_1_1linestimulus14.png,TMTstop-B_1_1greenlinestimulus14.png,TMTstop-B_1_1redlinestimulus14.png,TMT_B,B1,17,None,3,,,,,,,,,,,,,,,,,,,,,,,,,0,0,0,0,0,16,16,16,,,,,,,,,,,,,,,,,,,,,,,,,,,,,,,,,,,,,,,1,1,209.95593350000854,242.57000150000385,None,['3'],1,[0.14210160000948235],242.57000150000385,None,,,,,,001,2022_Nov_18_0015,TMT_fmri,2021.2.3,59.9428025783916,
B1,364:390,I,['2'],2,TMTstop-B_1_1linestimulus15.png,TMTstop-B_1_1greenlinestimulus15.png,TMTstop-B_1_1redlinestimulus15.png,TMT_B,B1,18,None,3,,,,,,,,,,,,,,,,,,,,,,,,,0,0,0,0,0,17,17,17,,,,,,,,,,,,,,,,,,,,,,,,,,,,,,,,,,,,,,,1,1,210.00598709999758,242.77100600000995,None,['2'],1,[-0.027070800002547912],242.77100600000995,None,,,,,,001,2022_Nov_18_0015,TMT_fmri,2021.2.3,59.9428025783916,
B1,364:390,10,['3'],3,TMTstop-B_1_1linestimulus16.png,TMTstop-B_1_1greenlinestimulus16.png,TMTstop-B_1_1redlinestimulus16.png,TMT_B,B1,19,None,3,,,,,,,,,,,,,,,,,,,,,,,,,0,0,0,0,0,18,18,18,,,,,,,,,,,,,,,,,,,,,,,,,,,,,,,,,,,,,,,11,0,211.82602419999603,242.82098760000372,None,"['1', '3', '2', '3', '2', '1', '1', '3', '2', '1', '3']",1,"[0.01798459999554325, 0.20653979999769945, 0.22543940000468865, 0.5462376000068616, 0.5509124999953201, 0.6949384000035934, 1.142766599994502, 1.3353749999951106, 1.3453435999981593, 1.5263856999954442, 1.7366600999957882]",242.82098760000372,None,,,,,,001,2022_Nov_18_0015,TMT_fmri,2021.2.3,59.9428025783916,
B1,364:390,J,['2'],2,TMTstop-B_1_1linestimulus17.png,TMTstop-B_1_1greenlinestimulus17.png,TMTstop-B_1_1redlinestimulus17.png,TMT_B,B1,20,None,3,,,,,,,,,,,,,,,,,,,,,,,,,0,0,0,0,0,19,19,19,,,,,,,,,,,,,,,,,,,,,,,,,,,,,,,,,,,,,,,1,1,211.87817480000376,244.64307330000156,None,['2'],1,[-0.048357499996200204],244.64307330000156,None,,,,,,001,2022_Nov_18_0015,TMT_fmri,2021.2.3,59.9428025783916,
B1,364:390,11,['1'],1,TMTstop-B_1_1linestimulus18.png,TMTstop-B_1_1greenlinestimulus18.png,TMTstop-B_1_1redlinestimulus18.png,TMT_B,B1,21,None,3,,,,,,,,,,,,,,,,,,,,,,,,,0,0,0,0,0,20,20,20,,,,,,,,,,,,,,,,,,,,,,,,,,,,,,,,,,,,,,,3,0,212.40997700000298,244.6939735000051,None,"['3', '2', '1']",1,"[0.3057425000006333, 0.33660670000244863, 0.4304322999960277]",244.6939735000051,None,,,,,,001,2022_Nov_18_0015,TMT_fmri,2021.2.3,59.9428025783916,
B1,364:390,K,['2'],2,TMTstop-B_1_1linestimulus19.png,TMTstop-B_1_1greenlinestimulus19.png,TMTstop-B_1_1redlinestimulus19.png,TMT_B,B1,22,None,3,,,,,,,,,,,,,,,,,,,,,,,,,0,0,0,0,0,21,21,21,,,,,,,,,,,,,,,,,,,,,,,,,,,,,,,,,,,,,,,2,0,212.61693040000682,245.23251630000595,None,"['3', '2']",1,"[0.10059190000174567, 0.13755060000403319]",245.23251630000595,None,,,,,,001,2022_Nov_18_0015,TMT_fmri,2021.2.3,59.9428025783916,
B1,364:390,12,['1'],1,TMTstop-B_1_1linestimulus20.png,TMTstop-B_1_1greenlinestimulus20.png,TMTstop-B_1_1redlinestimulus20.png,TMT_B,B1,23,None,3,,,,,,,,,,,,,,,,,,,,,,,,,0,0,0,0,0,22,22,22,,,,,,,,,,,,,,,,,,,,,,,,,,,,,,,,,,,,,,,1,1,212.70113660000789,245.43226280000817,None,['1'],1,[0.032088799998746254],245.43226280000817,None,,,,,,001,2022_Nov_18_0015,TMT_fmri,2021.2.3,59.9428025783916,
B1,364:390,L,['2'],2,TMTstop-B_1_1linestimulus21.png,TMTstop-B_1_1greenlinestimulus21.png,TMTstop-B_1_1redlinestimulus21.png,TMT_B,B1,24,None,3,,,,,,,,,,,,,,,,,,,,,,,,,0,0,0,0,0,23,23,23,,,,,,,,,,,,,,,,,,,,,,,,,,,,,,,,,,,,,,,2,0,212.95898060000036,245.51625670000794,None,"['3', '2']",1,"[0.1469407999975374, 0.19573680000030436]",245.51625670000794,None,,,,,,001,2022_Nov_18_0015,TMT_fmri,2021.2.3,59.9428025783916,
B1,364:390,13,['1'],1,TMTstop-B_1_1linestimulus22.png,TMTstop-B_1_1greenlinestimulus22.png,TMTstop-B_1_1redlinestimulus22.png,TMT_B,B1,25,None,3,,,,,,,,,,,,,,,,,,,,,,,,,0,0,0,0,0,24,24,24,,,,,,,,,,,,,,,,,,,,,,,,,,,,,,,,,,,,,,,1,1,213.05894719999924,245.77368980000028,None,['1'],1,[0.04226339999877382],245.77368980000028,None,,,,,,001,2022_Nov_18_0015,TMT_fmri,2021.2.3,59.9428025783916,
B1,364:390,None,None,None,TMTstop-B_1_1linestimulus23.png,TMTstop-B_1_1greenlinestimulus23.png,TMTstop-B_1_1redlinestimulus23.png,TMT_B,B1,Feedback_last,None,3,,,,,,,,,,,,,,,,,,,,,,,,,0,0,0,0,0,25,25,25,,,,,,,,,,,,,,,,,,,,,,,,,,,,,,,,,,,,,,,0,0,,245.8738558000041,None,None,1,,245.8738558000041,None,,,,,,001,2022_Nov_18_0015,TMT_fmri,2021.2.3,59.9428025783916,
B2,390:416,1,['1'],1,TMTstop-B_1_2.png,TMTstop-B_1_2.png,TMTstop-B_1_2.png,TMT_B,B2,26,None,3,,,,,,,,,,,,,,,,,,,,,,,,,0,1,1,1,0,0,0,0,,,,,,,,,,,,,,,,,,,,,,,,,,,,,,,,,,,,,,,1,1,217.94519020000007,250.1088696000079,None,['1'],1,[0.5945173000072828],250.1088696000079,None,,,,,,001,2022_Nov_18_0015,TMT_fmri,2021.2.3,59.9428025783916,
B2,390:416,A,['2'],2,TMTstop-B_1_2.png,TMTstop-B_1_2firstgreen.png,TMTstop-B_1_2firstred.png,TMT_B,B2,27,None,3,,,,,,,,,,,,,,,,,,,,,,,,,0,1,1,1,0,1,1,1,,,,,,,,,,,,,,,,,,,,,,,,,,,,,,,,,,,,,,,2,0,218.35504750000837,250.87290630000643,None,"['3', '2']",1,"[0.07061479998810682, 0.09415879999869503]",250.87290630000643,None,,,,,,001,2022_Nov_18_0015,TMT_fmri,2021.2.3,59.9428025783916,
B2,390:416,2,['1'],1,TMTstop-B_1_2linestimulus0.png,TMTstop-B_1_2greenlinestimulus0.png,TMTstop-B_1_2redlinestimulus0.png,TMT_B,B2,28,None,3,,,,,,,,,,,,,,,,,,,,,,,,,0,1,1,1,0,2,2,2,,,,,,,,,,,,,,,,,,,,,,,,,,,,,,,,,,,,,,,1,1,218.51098760000605,251.2761490999983,None,['1'],1,[-0.1379467999940971],251.2761490999983,None,,,,,,001,2022_Nov_18_0015,TMT_fmri,2021.2.3,59.9428025783916,
B2,390:416,B,['2'],2,TMTstop-B_1_2linestimulus1.png,TMTstop-B_1_2greenlinestimulus1.png,TMTstop-B_1_2redlinestimulus1.png,TMT_B,B2,29,None,3,,,,,,,,,,,,,,,,,,,,,,,,,0,1,1,1,0,3,3,3,,,,,,,,,,,,,,,,,,,,,,,,,,,,,,,,,,,,,,,2,0,218.70306770000025,251.46802339999704,None,"['3', '2']",1,"[-0.1381519999995362, -0.09479400000418536]",251.46802339999704,None,,,,,,001,2022_Nov_18_0015,TMT_fmri,2021.2.3,59.9428025783916,
B2,390:416,3,['1'],1,TMTstop-B_1_2linestimulus2.png,TMTstop-B_1_2greenlinestimulus2.png,TMTstop-B_1_2redlinestimulus2.png,TMT_B,B2,30,None,3,,,,,,,,,,,,,,,,,,,,,,,,,0,1,1,1,0,4,4,4,,,,,,,,,,,,,,,,,,,,,,,,,,,,,,,,,,,,,,,1,1,218.87799740000628,251.64303390000714,None,['1'],1,[-0.1502998999931151],251.64303390000714,None,,,,,,001,2022_Nov_18_0015,TMT_fmri,2021.2.3,59.9428025783916,
B2,390:416,C,['3'],3,TMTstop-B_1_2linestimulus3.png,TMTstop-B_1_2greenlinestimulus3.png,TMTstop-B_1_2redlinestimulus3.png,TMT_B,B2,31,None,3,,,,,,,,,,,,,,,,,,,,,,,,,0,1,1,1,0,5,5,5,,,,,,,,,,,,,,,,,,,,,,,,,,,,,,,,,,,,,,,0,0,,251.819236299998,None,None,0,,251.819236299998,None,,,,,,001,2022_Nov_18_0015,TMT_fmri,2021.2.3,59.9428025783916,
C5,104:130,1,['3'],3,TMTstop-control_1_5.png,TMTstop-control_1_5.png,TMTstop-control_1_5.png,TMT_Control,C5,101,3,4,,,,,,,,,,,,,,,,,,,,,,,,,,,,,,,,,0,0,0,0,0,0,0,0,,,,,,,,,,,,,,,,,,,,,,,,,,,,,,,2,0,308.0875195999979,337.19079280000005,None,"['1', '3']",1,"[3.4289273000031244, 3.648867199997767]",337.19079280000005,None,,,329.9356075000105,None,,001,2022_Nov_18_0015,TMT_fmri,2021.2.3,59.9428025783916,
C5,104:130,2,['2'],2,TMTstop-control_1_5.png,TMTstop-control_1_5firstgreen.png,TMTstop-control_1_5firstred.png,TMT_Control,C5,102,None,4,,,,,,,,,,,,,,,,,,,,,,,,,,,,,,,,,0,0,0,0,0,1,1,1,,,,,,,,,,,,,,,,,,,,,,,,,,,,,,,1,1,308.1765413000103,340.9087298000086,None,['2'],1,[0.00881840000511147],340.9087298000086,None,,,,,,001,2022_Nov_18_0015,TMT_fmri,2021.2.3,59.9428025783916,
C5,104:130,3,['1'],1,TMTstop-control_1_5linestimulus0.png,TMTstop-control_1_5greenlinestimulus0.png,TMTstop-control_1_5redlinestimulus0.png,TMT_Control,C5,103,None,4,,,,,,,,,,,,,,,,,,,,,,,,,,,,,,,,,0,0,0,0,0,2,2,2,,,,,,,,,,,,,,,,,,,,,,,,,,,,,,,2,0,308.6623954999959,340.9916460000095,None,"['3', '1']",1,"[0.2085256999998819, 0.40448149999429006]",340.9916460000095,None,,,,,,001,2022_Nov_18_0015,TMT_fmri,2021.2.3,59.9428025783916,
C5,104:130,4,['3'],3,TMTstop-control_1_5linestimulus1.png,TMTstop-control_1_5greenlinestimulus1.png,TMTstop-control_1_5redlinestimulus1.png,TMT_Control,C5,104,None,4,,,,,,,,,,,,,,,,,,,,,,,,,,,,,,,,,0,0,0,0,0,3,3,3,,,,,,,,,,,,,,,,,,,,,,,,,,,,,,,1,1,308.8293934000103,341.478065400006,None,['3'],1,[0.1032132999971509],341.478065400006,None,,,,,,001,2022_Nov_18_0015,TMT_fmri,2021.2.3,59.9428025783916,
C5,104:130,5,['1'],1,TMTstop-control_1_5linestimulus2.png,TMTstop-control_1_5greenlinestimulus2.png,TMTstop-control_1_5redlinestimulus2.png,TMT_Control,C5,105,None,4,,,,,,,,,,,,,,,,,,,,,,,,,,,,,,,,,0,0,0,0,0,4,4,4,,,,,,,,,,,,,,,,,,,,,,,,,,,,,,,2,0,309.04255430000194,341.644904700006,None,"['2', '1']",1,"[-0.002485499993781559, 0.13055899999744724]",341.644904700006,None,,,,,,001,2022_Nov_18_0015,TMT_fmri,2021.2.3,59.9428025783916,
C5,104:130,6,['2'],2,TMTstop-control_1_5linestimulus3.png,TMTstop-control_1_5greenlinestimulus3.png,TMTstop-control_1_5redlinestimulus3.png,TMT_Control,C5,106,None,4,,,,,,,,,,,,,,,,,,,,,,,,,,,,,,,,,0,0,0,0,0,5,5,5,,,,,,,,,,,,,,,,,,,,,,,,,,,,,,,0,0,,341.857900300005,None,None,0,,341.857900300005,None,,,,,,001,2022_Nov_18_0015,TMT_fmri,2021.2.3,59.9428025783916,
C5,104:130,7,['3'],3,TMTstop-control_1_5linestimulus4.png,TMTstop-control_1_5greenlinestimulus4.png,TMTstop-control_1_5redlinestimulus4.png,TMT_Control,C5,107,None,4,,,,,,,,,,,,,,,,,,,,,,,,,,,,,,,,,0,0,0,0,0,6,6,6,,,,,,,,,,,,,,,,,,,,,,,,,,,,,,,0,0,,381.9732786600041,None,None,0,,381.9732786600041,None,,,,,,001,2022_Nov_18_0015,TMT_fmri,2021.2.3,59.9428025783916,
C5,104:130,8,['2'],2,TMTstop-control_1_5linestimulus4.png,TMTstop-control_1_5greenlinestimulus5.png,TMTstop-control_1_5redlinestimulus5.png,TMT_Control,C5,108,None,4,,,,,,,,,,,,,,,,,,,,,,,,,,,,,,,,,0,0,0,0,0,7,7,7,,,,,,,,,,,,,,,,,,,,,,,,,,,,,,,0,0,,382.0069509200053,None,None,0,,382.0069509200053,None,,,,,,001,2022_Nov_18_0015,TMT_fmri,2021.2.3,59.9428025783916,
C5,104:130,9,['1'],1,TMTstop-control_1_5linestimulus6.png,TMTstop-control_1_5greenlinestimulus6.png,TMTstop-control_1_5redlinestimulus6.png,TMT_Control,C5,109,None,4,,,,,,,,,,,,,,,,,,,,,,,,,,,,,,,,,0,0,0,0,0,8,8,8,,,,,,,,,,,,,,,,,,,,,,,,,,,,,,,0,0,,382.0406231800065,None,None,0,,382.0406231800065,None,,,,,,001,2022_Nov_18_0015,TMT_fmri,2021.2.3,59.9428025783916,
C5,104:130,10,['2'],2,TMTstop-control_1_5linestimulus7.png,TMTstop-control_1_5greenlinestimulus7.png,TMTstop-control_1_5redlinestimulus7.png,TMT_Control,C5,110,None,4,,,,,,,,,,,,,,,,,,,,,,,,,,,,,,,,,0,0,0,0,0,9,9,9,,,,,,,,,,,,,,,,,,,,,,,,,,,,,,,0,0,,382.0742954400077,None,None,0,,382.0742954400077,None,,,,,,001,2022_Nov_18_0015,TMT_fmri,2021.2.3,59.9428025783916,
C5,104:130,11,['1'],1,TMTstop-control_1_5linestimulus8.png,TMTstop-control_1_5greenlinestimulus8.png,TMTstop-control_1_5redlinestimulus8.png,TMT_Control,C5,111,None,4,,,,,,,,,,,,,,,,,,,,,,,,,,,,,,,,,0,0,0,0,0,10,10,10,,,,,,,,,,,,,,,,,,,,,,,,,,,,,,,0,0,,382.1079677000089,None,None,0,,382.1079677000089,None,,,,,,001,2022_Nov_18_0015,TMT_fmri,2021.2.3,59.9428025783916,
C5,104:130,12,['3'],3,TMTstop-control_1_5linestimulus9.png,TMTstop-control_1_5greenlinestimulus9.png,TMTstop-control_1_5redlinestimulus9.png,TMT_Control,C5,112,None,4,,,,,,,,,,,,,,,,,,,,,,,,,,,,,,,,,0,0,0,0,0,11,11,11,,,,,,,,,,,,,,,,,,,,,,,,,,,,,,,0,0,,382.14163996001,None,None,0,,382.14163996001,None,,,,,,001,2022_Nov_18_0015,TMT_fmri,2021.2.3,59.9428025783916,
C5,104:130,13,['2'],2,TMTstop-control_1_5linestimulus10.png,TMTstop-control_1_5greenlinestimulus10.png,TMTstop-control_1_5redlinestimulus10.png,TMT_Control,C5,113,None,4,,,,,,,,,,,,,,,,,,,,,,,,,,,,,,,,,0,0,0,0,0,12,12,12,,,,,,,,,,,,,,,,,,,,,,,,,,,,,,,0,0,,382.1753122200112,None,None,0,,382.1753122200112,None,,,,,,001,2022_Nov_18_0015,TMT_fmri,2021.2.3,59.9428025783916,
C5,104:130,14,['3'],3,TMTstop-control_1_5linestimulus11.png,TMTstop-control_1_5greenlinestimulus11.png,TMTstop-control_1_5redlinestimulus11.png,TMT_Control,C5,114,None,4,,,,,,,,,,,,,,,,,,,,,,,,,,,,,,,,,0,0,0,0,0,13,13,13,,,,,,,,,,,,,,,,,,,,,,,,,,,,,,,0,0,,382.2089844800124,None,None,0,,382.2089844800124,None,,,,,,001,2022_Nov_18_0015,TMT_fmri,2021.2.3,59.9428025783916,
C5,104:130,15,['1'],1,TMTstop-control_1_5linestimulus12.png,TMTstop-control_1_5greenlinestimulus12.png,TMTstop-control_1_5redlinestimulus12.png,TMT_Control,C5,115,None,4,,,,,,,,,,,,,,,,,,,,,,,,,,,,,,,,,0,0,0,0,0,14,14,14,,,,,,,,,,,,,,,,,,,,,,,,,,,,,,,0,0,,382.2426567400136,None,None,0,,382.2426567400136,None,,,,,,001,2022_Nov_18_0015,TMT_fmri,2021.2.3,59.9428025783916,
C5,104:130,16,['2'],2,TMTstop-control_1_5linestimulus13.png,TMTstop-control_1_5greenlinestimulus13.png,TMTstop-control_1_5redlinestimulus13.png,TMT_Control,C5,116,None,4,,,,,,,,,,,,,,,,,,,,,,,,,,,,,,,,,0,0,0,0,0,15,15,15,,,,,,,,,,,,,,,,,,,,,,,,,,,,,,,0,0,,382.2763290000148,None,None,0,,382.2763290000148,None,,,,,,001,2022_Nov_18_0015,TMT_fmri,2021.2.3,59.9428025783916,
C5,104:130,17,['3'],3,TMTstop-control_1_5linestimulus14.png,TMTstop-control_1_5greenlinestimulus14.png,TMTstop-control_1_5redlinestimulus14.png,TMT_Control,C5,117,None,4,,,,,,,,,,,,,,,,,,,,,,,,,,,,,,,,,0,0,0,0,0,16,16,16,,,,,,,,,,,,,,,,,,,,,,,,,,,,,,,0,0,,382.31000126001595,None,None,0,,382.31000126001595,None,,,,,,001,2022_Nov_18_0015,TMT_fmri,2021.2.3,59.9428025783916,
C5,104:130,18,['1'],1,TMTstop-control_1_5linestimulus15.png,TMTstop-control_1_5greenlinestimulus15.png,TMTstop-control_1_5redlinestimulus15.png,TMT_Control,C5,118,None,4,,,,,,,,,,,,,,,,,,,,,,,,,,,,,,,,,0,0,0,0,0,17,17,17,,,,,,,,,,,,,,,,,,,,,,,,,,,,,,,0,0,,382.3268373900166,None,None,0,,382.3268373900166,None,,,,,,001,2022_Nov_18_0015,TMT_fmri,2021.2.3,59.9428025783916,
C5,104:130,19,['2'],2,TMTstop-control_1_5linestimulus16.png,TMTstop-control_1_5greenlinestimulus16.png,TMTstop-control_1_5redlinestimulus16.png,TMT_Control,C5,119,None,4,,,,,,,,,,,,,,,,,,,,,,,,,,,,,,,,,0,0,0,0,0,18,18,18,,,,,,,,,,,,,,,,,,,,,,,,,,,,,,,0,0,,382.3605096500178,None,None,0,,382.3605096500178,None,,,,,,001,2022_Nov_18_0015,TMT_fmri,2021.2.3,59.9428025783916,
C5,104:130,20,['1'],1,TMTstop-control_1_5linestimulus17.png,TMTstop-control_1_5greenlinestimulus17.png,TMTstop-control_1_5redlinestimulus17.png,TMT_Control,C5,120,None,4,,,,,,,,,,,,,,,,,,,,,,,,,,,,,,,,,0,0,0,0,0,19,19,19,,,,,,,,,,,,,,,,,,,,,,,,,,,,,,,0,0,,382.3941819100189,None,None,0,,382.3941819100189,None,,,,,,001,2022_Nov_18_0015,TMT_fmri,2021.2.3,59.9428025783916,
C5,104:130,21,['2'],2,TMTstop-control_1_5linestimulus18.png,TMTstop-control_1_5greenlinestimulus18.png,TMTstop-control_1_5redlinestimulus18.png,TMT_Control,C5,121,None,4,,,,,,,,,,,,,,,,,,,,,,,,,,,,,,,,,0,0,0,0,0,20,20,20,,,,,,,,,,,,,,,,,,,,,,,,,,,,,,,0,0,,382.4278541700201,None,None,0,,382.4278541700201,None,,,,,,001,2022_Nov_18_0015,TMT_fmri,2021.2.3,59.9428025783916,
C5,104:130,22,['1'],1,TMTstop-control_1_5linestimulus19.png,TMTstop-control_1_5greenlinestimulus19.png,TMTstop-control_1_5redlinestimulus19.png,TMT_Control,C5,122,None,4,,,,,,,,,,,,,,,,,,,,,,,,,,,,,,,,,0,0,0,0,0,21,21,21,,,,,,,,,,,,,,,,,,,,,,,,,,,,,,,0,0,,382.4615264300213,None,None,0,,382.4615264300213,None,,,,,,001,2022_Nov_18_0015,TMT_fmri,2021.2.3,59.9428025783916,
C5,104:130,23,['3'],3,TMTstop-control_1_5linestimulus20.png,TMTstop-control_1_5greenlinestimulus20.png,TMTstop-control_1_5redlinestimulus20.png,TMT_Control,C5,123,None,4,,,,,,,,,,,,,,,,,,,,,,,,,,,,,,,,,0,0,0,0,0,22,22,22,,,,,,,,,,,,,,,,,,,,,,,,,,,,,,,0,0,,382.4951986900225,None,None,0,,382.4951986900225,None,,,,,,001,2022_Nov_18_0015,TMT_fmri,2021.2.3,59.9428025783916,
C5,104:130,24,['1'],1,TMTstop-control_1_5linestimulus21.png,TMTstop-control_1_5greenlinestimulus21.png,TMTstop-control_1_5redlinestimulus21.png,TMT_Control,C5,124,None,4,,,,,,,,,,,,,,,,,,,,,,,,,,,,,,,,,0,0,0,0,0,23,23,23,,,,,,,,,,,,,,,,,,,,,,,,,,,,,,,0,0,,382.5288709500237,None,None,0,,382.5288709500237,None,,,,,,001,2022_Nov_18_0015,TMT_fmri,2021.2.3,59.9428025783916,
C5,104:130,25,['3'],3,TMTstop-control_1_5linestimulus22.png,TMTstop-control_1_5greenlinestimulus22.png,TMTstop-control_1_5redlinestimulus22.png,TMT_Control,C5,125,None,4,,,,,,,,,,,,,,,,,,,,,,,,,,,,,,,,,0,0,0,0,0,24,24,24,,,,,,,,,,,,,,,,,,,,,,,,,,,,,,,0,0,,382.56254321002484,None,None,0,,382.56254321002484,None,,,,,,001,2022_Nov_18_0015,TMT_fmri,2021.2.3,59.9428025783916,
C5,104:130,None,None,None,TMTstop-control_1_5linestimulus23.png,TMTstop-control_1_5greenlinestimulus23.png,TMTstop-control_1_5redlinestimulus23.png,TMT_Control,C5,Feedback_last,None,4,,,,,,,,,,,,,,,,,,,,,,,,,,,,,,,,,0,0,0,0,0,25,25,25,,,,,,,,,,,,,,,,,,,,,,,,,,,,,,,0,0,,382.59621547002604,None,None,1,,382.59621547002604,None,,,,,,001,2022_Nov_18_0015,TMT_fmri,2021.2.3,59.9428025783916,
C6,130:156,1,['3'],3,TMTstop-control_1_6.png,TMTstop-control_1_6.png,TMTstop-control_1_6.png,TMT_Control,C6,126,None,4,,,,,,,,,,,,,,,,,,,,,,,,,,,,,,,,,0,1,1,1,0,0,0,0,,,,,,,,,,,,,,,,,,,,,,,,,,,,,,,0,0,,384.6387147600151,None,None,0,,384.6387147600151,None,,,,,,001,2022_Nov_18_0015,TMT_fmri,2021.2.3,59.9428025783916,
C6,130:156,2,['2'],2,TMTstop-control_1_6.png,TMTstop-control_1_6firstgreen.png,TMTstop-control_1_6firstred.png,TMT_Control,C6,127,None,4,,,,,,,,,,,,,,,,,,,,,,,,,,,,,,,,,0,1,1,1,0,1,1,1,,,,,,,,,,,,,,,,,,,,,,,,,,,,,,,0,0,,384.6723870200163,None,None,0,,384.6723870200163,None,,,,,,001,2022_Nov_18_0015,TMT_fmri,2021.2.3,59.9428025783916,
C6,130:156,3,['1'],1,TMTstop-control_1_6linestimulus0.png,TMTstop-control_1_6greenlinestimulus0.png,TMTstop-control_1_6redlinestimulus0.png,TMT_Control,C6,128,None,4,,,,,,,,,,,,,,,,,,,,,,,,,,,,,,,,,0,1,1,1,0,2,2,2,,,,,,,,,,,,,,,,,,,,,,,,,,,,,,,0,0,,384.7060592800175,None,None,0,,384.7060592800175,None,,,,,,001,2022_Nov_18_0015,TMT_fmri,2021.2.3,59.9428025783916,
C6,130:156,4,['2'],2,TMTstop-control_1_6linestimulus1.png,TMTstop-control_1_6greenlinestimulus1.png,TMTstop-control_1_6redlinestimulus1.png,TMT_Control,C6,129,None,4,,,,,,,,,,,,,,,,,,,,,,,,,,,,,,,,,0,1,1,1,0,3,3,3,,,,,,,,,,,,,,,,,,,,,,,,,,,,,,,0,0,,384.7397315400187,None,None,0,,384.7397315400187,None,,,,,,001,2022_Nov_18_0015,TMT_fmri,2021.2.3,59.9428025783916,
C6,130:156,5,['3'],3,TMTstop-control_1_6linestimulus2.png,TMTstop-control_1_6greenlinestimulus2.png,TMTstop-control_1_6redlinestimulus2.png,TMT_Control,C6,130,None,4,,,,,,,,,,,,,,,,,,,,,,,,,,,,,,,,,0,1,1,1,0,4,4,4,,,,,,,,,,,,,,,,,,,,,,,,,,,,,,,0,0,,384.7734038000199,None,None,0,,384.7734038000199,None,,,,,,001,2022_Nov_18_0015,TMT_fmri,2021.2.3,59.9428025783916,
C6,130:156,6,['2'],2,TMTstop-control_1_6linestimulus3.png,TMTstop-control_1_6greenlinestimulus3.png,TMTstop-control_1_6redlinestimulus3.png,TMT_Control,C6,131,None,4,,,,,,,,,,,,,,,,,,,,,,,,,,,,,,,,,0,1,1,1,0,5,5,5,,,,,,,,,,,,,,,,,,,,,,,,,,,,,,,0,0,,384.807076060021,None,None,0,,384.807076060021,None,,,,,,001,2022_Nov_18_0015,TMT_fmri,2021.2.3,59.9428025783916,
C6,130:156,7,['1'],1,TMTstop-control_1_6linestimulus4.png,TMTstop-control_1_6greenlinestimulus4.png,TMTstop-control_1_6redlinestimulus4.png,TMT_Control,C6,132,None,4,,,,,,,,,,,,,,,,,,,,,,,,,,,,,,,,,0,1,1,1,0,6,6,6,,,,,,,,,,,,,,,,,,,,,,,,,,,,,,,0,0,,384.8407483200222,None,None,0,,384.8407483200222,None,,,,,,001,2022_Nov_18_0015,TMT_fmri,2021.2.3,59.9428025783916,
C6,130:156,8,['3'],3,TMTstop-control_1_6linestimulus4.png,TMTstop-control_1_6greenlinestimulus5.png,TMTstop-control_1_6redlinestimulus5.png,TMT_Control,C6,133,None,4,,,,,,,,,,,,,,,,,,,,,,,,,,,,,,,,,0,1,1,1,0,7,7,7,,,,,,,,,,,,,,,,,,,,,,,,,,,,,,,0,0,,384.8744205800234,None,None,0,,384.8744205800234,None,,,,,,001,2022_Nov_18_0015,TMT_fmri,2021.2.3,59.9428025783916,
C6,130:156,9,['2'],2,TMTstop-control_1_6linestimulus6.png,TMTstop-control_1_6greenlinestimulus6.png,TMTstop-control_1_6redlinestimulus6.png,TMT_Control,C6,134,None,4,,,,,,,,,,,,,,,,,,,,,,,,,,,,,,,,,0,1,1,1,0,8,8,8,,,,,,,,,,,,,,,,,,,,,,,,,,,,,,,0,0,,384.9080928400246,None,None,0,,384.9080928400246,None,,,,,,001,2022_Nov_18_0015,TMT_fmri,2021.2.3,59.9428025783916,
C6,130:156,10,['1'],1,TMTstop-control_1_6linestimulus7.png,TMTstop-control_1_6greenlinestimulus7.png,TMTstop-control_1_6redlinestimulus7.png,TMT_Control,C6,135,None,4,,,,,,,,,,,,,,,,,,,,,,,,,,,,,,,,,0,1,1,1,0,9,9,9,,,,,,,,,,,,,,,,,,,,,,,,,,,,,,,0,0,,384.9417651000258,None,None,0,,384.9417651000258,None,,,,,,001,2022_Nov_18_0015,TMT_fmri,2021.2.3,59.9428025783916,
C6,130:156,11,['2'],2,TMTstop-control_1_6linestimulus8.png,TMTstop-control_1_6greenlinestimulus8.png,TMTstop-control_1_6redlinestimulus8.png,TMT_Control,C6,136,None,4,,,,,,,,,,,,,,,,,,,,,,,,,,,,,,,,,0,1,1,1,0,10,10,10,,,,,,,,,,,,,,,,,,,,,,,,,,,,,,,0,0,,384.97543736002694,None,None,0,,384.97543736002694,None,,,,,,001,2022_Nov_18_0015,TMT_fmri,2021.2.3,59.9428025783916,
C6,130:156,12,['3'],3,TMTstop-control_1_6linestimulus9.png,TMTstop-control_1_6greenlinestimulus9.png,TMTstop-control_1_6redlinestimulus9.png,TMT_Control,C6,137,None,4,,,,,,,,,,,,,,,,,,,,,,,,,,,,,,,,,0,1,1,1,0,11,11,11,,,,,,,,,,,,,,,,,,,,,,,,,,,,,,,0,0,,385.00910962002814,None,None,0,,385.00910962002814,None,,,,,,001,2022_Nov_18_0015,TMT_fmri,2021.2.3,59.9428025783916,
C6,130:156,13,['1'],1,TMTstop-control_1_6linestimulus10.png,TMTstop-control_1_6greenlinestimulus10.png,TMTstop-control_1_6redlinestimulus10.png,TMT_Control,C6,138,None,4,,,,,,,,,,,,,,,,,,,,,,,,,,,,,,,,,0,1,1,1,0,12,12,12,,,,,,,,,,,,,,,,,,,,,,,,,,,,,,,0,0,,385.04278188002934,None,None,0,,385.04278188002934,None,,,,,,001,2022_Nov_18_0015,TMT_fmri,2021.2.3,59.9428025783916,
C6,130:156,14,['3'],3,TMTstop-control_1_6linestimulus11.png,TMTstop-control_1_6greenlinestimulus11.png,TMTstop-control_1_6redlinestimulus11.png,TMT_Control,C6,139,None,4,,,,,,,,,,,,,,,,,,,,,,,,,,,,,,,,,0,1,1,1,0,13,13,13,,,,,,,,,,,,,,,,,,,,,,,,,,,,,,,0,0,,385.07645414003053,None,None,0,,385.07645414003053,None,,,,,,001,2022_Nov_18_0015,TMT_fmri,2021.2.3,59.9428025783916,
C6,130:156,15,['2'],2,TMTstop-control_1_6linestimulus12.png,TMTstop-control_1_6greenlinestimulus12.png,TMTstop-control_1_6redlinestimulus12.png,TMT_Control,C6,140,None,4,,,,,,,,,,,,,,,,,,,,,,,,,,,,,,,,,0,1,1,1,0,14,14,14,,,,,,,,,,,,,,,,,,,,,,,,,,,,,,,0,0,,385.11012640003173,None,None,0,,385.11012640003173,None,,,,,,001,2022_Nov_18_0015,TMT_fmri,2021.2.3,59.9428025783916,
C6,130:156,16,['3'],3,TMTstop-control_1_6linestimulus13.png,TMTstop-control_1_6greenlinestimulus13.png,TMTstop-control_1_6redlinestimulus13.png,TMT_Control,C6,141,None,4,,,,,,,,,,,,,,,,,,,,,,,,,,,,,,,,,0,1,1,1,0,15,15,15,,,,,,,,,,,,,,,,,,,,,,,,,,,,,,,0,0,,385.1269625300323,None,None,0,,385.1269625300323,None,,,,,,001,2022_Nov_18_0015,TMT_fmri,2021.2.3,59.9428025783916,
C6,130:156,17,['1'],1,TMTstop-control_1_6linestimulus14.png,TMTstop-control_1_6greenlinestimulus14.png,TMTstop-control_1_6redlinestimulus14.png,TMT_Control,C6,142,None,4,,,,,,,,,,,,,,,,,,,,,,,,,,,,,,,,,0,1,1,1,0,16,16,16,,,,,,,,,,,,,,,,,,,,,,,,,,,,,,,0,0,,385.1606347900335,None,None,0,,385.1606347900335,None,,,,,,001,2022_Nov_18_0015,TMT_fmri,2021.2.3,59.9428025783916,
C6,130:156,18,['2'],2,TMTstop-control_1_6linestimulus15.png,TMTstop-control_1_6greenlinestimulus15.png,TMTstop-control_1_6redlinestimulus15.png,TMT_Control,C6,143,None,4,,,,,,,,,,,,,,,,,,,,,,,,,,,,,,,,,0,1,1,1,0,17,17,17,,,,,,,,,,,,,,,,,,,,,,,,,,,,,,,0,0,,385.1943070500347,None,None,0,,385.1943070500347,None,,,,,,001,2022_Nov_18_0015,TMT_fmri,2021.2.3,59.9428025783916,
C6,130:156,19,['3'],3,TMTstop-control_1_6linestimulus16.png,TMTstop-control_1_6greenlinestimulus16.png,TMTstop-control_1_6redlinestimulus16.png,TMT_Control,C6,144,None,4,,,,,,,,,,,,,,,,,,,,,,,,,,,,,,,,,0,1,1,1,0,18,18,18,,,,,,,,,,,,,,,,,,,,,,,,,,,,,,,0,0,,385.22797931003583,None,None,0,,385.22797931003583,None,,,,,,001,2022_Nov_18_0015,TMT_fmri,2021.2.3,59.9428025783916,
C6,130:156,20,['2'],2,TMTstop-control_1_6linestimulus17.png,TMTstop-control_1_6greenlinestimulus17.png,TMTstop-control_1_6redlinestimulus17.png,TMT_Control,C6,145,None,4,,,,,,,,,,,,,,,,,,,,,,,,,,,,,,,,,0,1,1,1,0,19,19,19,,,,,,,,,,,,,,,,,,,,,,,,,,,,,,,0,0,,385.26165157003703,None,None,0,,385.26165157003703,None,,,,,,001,2022_Nov_18_0015,TMT_fmri,2021.2.3,59.9428025783916,
C6,130:156,21,['1'],1,TMTstop-control_1_6linestimulus18.png,TMTstop-control_1_6greenlinestimulus18.png,TMTstop-control_1_6redlinestimulus18.png,TMT_Control,C6,146,None,4,,,,,,,,,,,,,,,,,,,,,,,,,,,,,,,,,0,1,1,1,0,20,20,20,,,,,,,,,,,,,,,,,,,,,,,,,,,,,,,0,0,,385.2953238300382,None,None,0,,385.2953238300382,None,,,,,,001,2022_Nov_18_0015,TMT_fmri,2021.2.3,59.9428025783916,
C6,130:156,22,['2'],2,TMTstop-control_1_6linestimulus19.png,TMTstop-control_1_6greenlinestimulus19.png,TMTstop-control_1_6redlinestimulus19.png,TMT_Control,C6,147,None,4,,,,,,,,,,,,,,,,,,,,,,,,,,,,,,,,,0,1,1,1,0,21,21,21,,,,,,,,,,,,,,,,,,,,,,,,,,,,,,,0,0,,385.3289960900394,None,None,0,,385.3289960900394,None,,,,,,001,2022_Nov_18_0015,TMT_fmri,2021.2.3,59.9428025783916,
C6,130:156,23,['1'],1,TMTstop-control_1_6linestimulus20.png,TMTstop-control_1_6greenlinestimulus20.png,TMTstop-control_1_6redlinestimulus20.png,TMT_Control,C6,148,None,4,,,,,,,,,,,,,,,,,,,,,,,,,,,,,,,,,0,1,1,1,0,22,22,22,,,,,,,,,,,,,,,,,,,,,,,,,,,,,,,0,0,,385.3626683500406,None,None,0,,385.3626683500406,None,,,,,,001,2022_Nov_18_0015,TMT_fmri,2021.2.3,59.9428025783916,
C6,130:156,24,['2'],2,TMTstop-control_1_6linestimulus21.png,TMTstop-control_1_6greenlinestimulus21.png,TMTstop-control_1_6redlinestimulus21.png,TMT_Control,C6,149,None,4,,,,,,,,,,,,,,,,,,,,,,,,,,,,,,,,,0,1,1,1,0,23,23,23,,,,,,,,,,,,,,,,,,,,,,,,,,,,,,,0,0,,385.39634061004176,None,None,0,,385.39634061004176,None,,,,,,001,2022_Nov_18_0015,TMT_fmri,2021.2.3,59.9428025783916,
C6,130:156,25,['3'],3,TMTstop-control_1_6linestimulus22.png,TMTstop-control_1_6greenlinestimulus22.png,TMTstop-control_1_6redlinestimulus22.png,TMT_Control,C6,150,None,4,,,,,,,,,,,,,,,,,,,,,,,,,,,,,,,,,0,1,1,1,0,24,24,24,,,,,,,,,,,,,,,,,,,,,,,,,,,,,,,0,0,,385.43001287004296,None,None,0,,385.43001287004296,None,,,,,,001,2022_Nov_18_0015,TMT_fmri,2021.2.3,59.9428025783916,
C6,130:156,None,None,None,TMTstop-control_1_6linestimulus23.png,TMTstop-control_1_6greenlinestimulus23.png,TMTstop-control_1_6redlinestimulus23.png,TMT_Control,C6,Feedback_last,None,4,,,,,,,,,,,,,,,,,,,,,,,,,,,,,,,,,0,1,1,1,0,25,25,25,,,,,,,,,,,,,,,,,,,,,,,,,,,,,,,0,0,,385.46368513004415,None,None,1,,385.46368513004415,None,,,,,,001,2022_Nov_18_0015,TMT_fmri,2021.2.3,59.9428025783916,
A4,286:312,1,['2'],2,TMTstop-A_1_4.png,TMTstop-A_1_4.png,TMTstop-A_1_4.png,TMT_A,A4,76,2,5,,,,,,,,,,,,,,,,,,,,,,,,,,,,,,,,,,,,,,,,,0,0,0,0,0,0,0,0,,,,,,,,,,,,,,,,,,,,,,,2,0,362.46295790000295,388.83597310000914,None,"['1', '2']",1,"[6.225193799997214, 6.3454644000012195]",388.83597310000914,None,,,,,,001,2022_Nov_18_0015,TMT_fmri,2021.2.3,59.9428025783916,
A4,286:312,2,['3'],3,TMTstop-A_1_4.png,TMTstop-A_1_4firstgreen.png,TMTstop-A_1_4firstred.png,TMT_A,A4,77,None,5,,,,,,,,,,,,,,,,,,,,,,,,,,,,,,,,,,,,,,,,,0,0,0,0,0,1,1,1,,,,,,,,,,,,,,,,,,,,,,,1,1,362.53600020000886,395.2851587000041,None,['3'],1,[0.010222500000963919],395.2851587000041,None,,,,,,001,2022_Nov_18_0015,TMT_fmri,2021.2.3,59.9428025783916,
A4,286:312,3,['1'],1,TMTstop-A_1_4linestimulus0.png,TMTstop-A_1_4greenlinestimulus0.png,TMTstop-A_1_4redlinestimulus0.png,TMT_A,A4,78,None,5,,,,,,,,,,,,,,,,,,,,,,,,,,,,,,,,,,,,,,,,,0,0,0,0,0,2,2,2,,,,,,,,,,,,,,,,,,,,,,,1,1,362.7099077000021,395.3582447000081,None,['1'],1,[0.11126089999743272],395.3582447000081,None,,,,,,001,2022_Nov_18_0015,TMT_fmri,2021.2.3,59.9428025783916,
A4,286:312,4,['3'],3,TMTstop-A_1_4linestimulus1.png,TMTstop-A_1_4greenlinestimulus1.png,TMTstop-A_1_4redlinestimulus1.png,TMT_A,A4,79,None,5,,,,,,,,,,,,,,,,,,,,,,,,,,,,,,,,,,,,,,,,,0,0,0,0,0,3,3,3,,,,,,,,,,,,,,,,,,,,,,,2,0,362.86599810000916,395.52541550000024,None,"['2', '3']",1,"[-0.003253599992603995, 0.09778000001097098]",395.52541550000024,None,,,,,,001,2022_Nov_18_0015,TMT_fmri,2021.2.3,59.9428025783916,
A4,286:312,5,['2'],2,TMTstop-A_1_4linestimulus2.png,TMTstop-A_1_4greenlinestimulus2.png,TMTstop-A_1_4redlinestimulus2.png,TMT_A,A4,80,None,5,,,,,,,,,,,,,,,,,,,,,,,,,,,,,,,,,,,,,,,,,0,0,0,0,0,4,4,4,,,,,,,,,,,,,,,,,,,,,,,2,0,363.09495330000937,395.6877064,None,"['1', '2']",1,"[0.06278440001187846, 0.13679060000868049]",395.6877064,None,,,,,,001,2022_Nov_18_0015,TMT_fmri,2021.2.3,59.9428025783916,
A4,286:312,6,['1'],1,TMTstop-A_1_4linestimulus3.png,TMTstop-A_1_4greenlinestimulus3.png,TMTstop-A_1_4redlinestimulus3.png,TMT_A,A4,81,None,5,,,,,,,,,,,,,,,,,,,,,,,,,,,,,,,,,,,,,,,,,0,0,0,0,0,5,5,5,,,,,,,,,,,,,,,,,,,,,,,2,0,370.09426120000717,395.91053540000576,None,"['3', '1']",1,"[-0.0051081999990856275, 6.901905500009889]",395.91053540000576,None,,,,,,001,2022_Nov_18_0015,TMT_fmri,2021.2.3,59.9428025783916,
A4,286:312,7,['2'],2,TMTstop-A_1_4linestimulus4.png,TMTstop-A_1_4greenlinestimulus4.png,TMTstop-A_1_4redlinestimulus4.png,TMT_A,A4,82,None,5,,,,,,,,,,,,,,,,,,,,,,,,,,,,,,,,,,,,,,,,,0,0,0,0,0,6,6,6,,,,,,,,,,,,,,,,,,,,,,,1,1,370.54633430000104,402.9102724999975,None,['2'],1,[0.3860045000037644],402.9102724999975,None,,,,,,001,2022_Nov_18_0015,TMT_fmri,2021.2.3,59.9428025783916,
A4,286:312,8,['1'],1,TMTstop-A_1_4linestimulus5.png,TMTstop-A_1_4greenlinestimulus5.png,TMTstop-A_1_4redlinestimulus5.png,TMT_A,A4,83,None,5,,,,,,,,,,,,,,,,,,,,,,,,,,,,,,,,,,,,,,,,,0,0,0,0,0,7,7,7,,,,,,,,,,,,,,,,,,,,,,,1,1,373.17348350000975,403.3692838999996,None,['1'],1,[2.5610803000017768],403.3692838999996,None,,,,,,001,2022_Nov_18_0015,TMT_fmri,2021.2.3,59.9428025783916,
A4,286:312,9,['3'],3,TMTstop-A_1_4linestimulus6.png,TMTstop-A_1_4greenlinestimulus6.png,TMTstop-A_1_4redlinestimulus6.png,TMT_A,A4,84,None,5,,,,,,,,,,,,,,,,,,,,,,,,,,,,,,,,,,,,,,,,,0,0,0,0,0,8,8,8,,,,,,,,,,,,,,,,,,,,,,,1,1,373.6483680000092,405.9962787999975,None,['3'],1,[0.4113744000060251],405.9962787999975,None,,,,,,001,2022_Nov_18_0015,TMT_fmri,2021.2.3,59.9428025783916,
A4,286:312,10,['2'],2,TMTstop-A_1_4linestimulus7.png,TMTstop-A_1_4greenlinestimulus7.png,TMTstop-A_1_4redlinestimulus7.png,TMT_A,A4,85,None,5,,,,,,,,,,,,,,,,,,,,,,,,,,,,,,,,,,,,,,,,,0,0,0,0,0,9,9,9,,,,,,,,,,,,,,,,,,,,,,,1,1,374.4232415000006,406.4710918000055,None,['2'],1,[0.7178314000047976],406.4710918000055,None,,,,,,001,2022_Nov_18_0015,TMT_fmri,2021.2.3,59.9428025783916,
A4,286:312,11,['3'],3,TMTstop-A_1_4linestimulus8.png,TMTstop-A_1_4greenlinestimulus8.png,TMTstop-A_1_4redlinestimulus8.png,TMT_A,A4,86,None,5,,,,,,,,,,,,,,,,,,,,,,,,,,,,,,,,,,,,,,,,,0,0,0,0,0,10,10,10,,,,,,,,,,,,,,,,,,,,,,,1,1,376.1162938000052,407.24627540000074,None,['3'],1,[1.6262679000064963],407.24627540000074,None,,,,,,001,2022_Nov_18_0015,TMT_fmri,2021.2.3,59.9428025783916,
A4,286:312,12,['1'],1,TMTstop-A_1_4linestimulus9.png,TMTstop-A_1_4greenlinestimulus9.png,TMTstop-A_1_4redlinestimulus9.png,TMT_A,A4,87,None,5,,,,,,,,,,,,,,,,,,,,,,,,,,,,,,,,,,,,,,,,,0,0,0,0,0,11,11,11,,,,,,,,,,,,,,,,,,,,,,,0,0,,408.9399456000101,None,None,0,,408.9399456000101,None,,,,,,001,2022_Nov_18_0015,TMT_fmri,2021.2.3,59.9428025783916,
A4,286:312,13,['3'],3,TMTstop-A_1_4linestimulus10.png,TMTstop-A_1_4greenlinestimulus10.png,TMTstop-A_1_4redlinestimulus10.png,TMT_A,A4,88,None,5,,,,,,,,,,,,,,,,,,,,,,,,,,,,,,,,,,,,,,,,,0,0,0,0,0,12,12,12,,,,,,,,,,,,,,,,,,,,,,,0,0,,478.6463970900033,None,None,0,,478.6463970900033,None,,,,,,001,2022_Nov_18_0015,TMT_fmri,2021.2.3,59.9428025783916,
A4,286:312,14,['1'],1,TMTstop-A_1_4linestimulus11.png,TMTstop-A_1_4greenlinestimulus11.png,TMTstop-A_1_4redlinestimulus11.png,TMT_A,A4,89,None,5,,,,,,,,,,,,,,,,,,,,,,,,,,,,,,,,,,,,,,,,,0,0,0,0,0,13,13,13,,,,,,,,,,,,,,,,,,,,,,,0,0,,478.6800693500045,None,None,0,,478.6800693500045,None,,,,,,001,2022_Nov_18_0015,TMT_fmri,2021.2.3,59.9428025783916,
A4,286:312,15,['2'],2,TMTstop-A_1_4linestimulus12.png,TMTstop-A_1_4greenlinestimulus12.png,TMTstop-A_1_4redlinestimulus12.png,TMT_A,A4,90,None,5,,,,,,,,,,,,,,,,,,,,,,,,,,,,,,,,,,,,,,,,,0,0,0,0,0,14,14,14,,,,,,,,,,,,,,,,,,,,,,,0,0,,478.7137416100056,None,None,0,,478.7137416100056,None,,,,,,001,2022_Nov_18_0015,TMT_fmri,2021.2.3,59.9428025783916,
A4,286:312,16,['1'],1,TMTstop-A_1_4linestimulus13.png,TMTstop-A_1_4greenlinestimulus13.png,TMTstop-A_1_4redlinestimulus13.png,TMT_A,A4,91,None,5,,,,,,,,,,,,,,,,,,,,,,,,,,,,,,,,,,,,,,,,,0,0,0,0,0,15,15,15,,,,,,,,,,,,,,,,,,,,,,,0,0,,478.7474138700068,None,None,0,,478.7474138700068,None,,,,,,001,2022_Nov_18_0015,TMT_fmri,2021.2.3,59.9428025783916,
A4,286:312,17,['3'],3,TMTstop-A_1_4linestimulus14.png,TMTstop-A_1_4greenlinestimulus14.png,TMTstop-A_1_4redlinestimulus14.png,TMT_A,A4,92,None,5,,,,,,,,,,,,,,,,,,,,,,,,,,,,,,,,,,,,,,,,,0,0,0,0,0,16,16,16,,,,,,,,,,,,,,,,,,,,,,,0,0,,478.781086130008,None,None,0,,478.781086130008,None,,,,,,001,2022_Nov_18_0015,TMT_fmri,2021.2.3,59.9428025783916,
A4,286:312,18,['2'],2,TMTstop-A_1_4linestimulus15.png,TMTstop-A_1_4greenlinestimulus15.png,TMTstop-A_1_4redlinestimulus15.png,TMT_A,A4,93,None,5,,,,,,,,,,,,,,,,,,,,,,,,,,,,,,,,,,,,,,,,,0,0,0,0,0,17,17,17,,,,,,,,,,,,,,,,,,,,,,,0,0,,478.8147583900092,None,None,0,,478.8147583900092,None,,,,,,001,2022_Nov_18_0015,TMT_fmri,2021.2.3,59.9428025783916,
A4,286:312,19,['3'],3,TMTstop-A_1_4linestimulus16.png,TMTstop-A_1_4greenlinestimulus16.png,TMTstop-A_1_4redlinestimulus16.png,TMT_A,A4,94,None,5,,,,,,,,,,,,,,,,,,,,,,,,,,,,,,,,,,,,,,,,,0,0,0,0,0,18,18,18,,,,,,,,,,,,,,,,,,,,,,,0,0,,478.8484306500104,None,None,0,,478.8484306500104,None,,,,,,001,2022_Nov_18_0015,TMT_fmri,2021.2.3,59.9428025783916,
A4,286:312,20,['2'],2,TMTstop-A_1_4linestimulus17.png,TMTstop-A_1_4greenlinestimulus17.png,TMTstop-A_1_4redlinestimulus17.png,TMT_A,A4,95,None,5,,,,,,,,,,,,,,,,,,,,,,,,,,,,,,,,,,,,,,,,,0,0,0,0,0,19,19,19,,,,,,,,,,,,,,,,,,,,,,,0,0,,478.88210291001155,None,None,0,,478.88210291001155,None,,,,,,001,2022_Nov_18_0015,TMT_fmri,2021.2.3,59.9428025783916,
A4,286:312,21,['1'],1,TMTstop-A_1_4linestimulus18.png,TMTstop-A_1_4greenlinestimulus18.png,TMTstop-A_1_4redlinestimulus18.png,TMT_A,A4,96,None,5,,,,,,,,,,,,,,,,,,,,,,,,,,,,,,,,,,,,,,,,,0,0,0,0,0,20,20,20,,,,,,,,,,,,,,,,,,,,,,,0,0,,478.91577517001275,None,None,0,,478.91577517001275,None,,,,,,001,2022_Nov_18_0015,TMT_fmri,2021.2.3,59.9428025783916,
A4,286:312,22,['3'],3,TMTstop-A_1_4linestimulus19.png,TMTstop-A_1_4greenlinestimulus19.png,TMTstop-A_1_4redlinestimulus19.png,TMT_A,A4,97,None,5,,,,,,,,,,,,,,,,,,,,,,,,,,,,,,,,,,,,,,,,,0,0,0,0,0,21,21,21,,,,,,,,,,,,,,,,,,,,,,,0,0,,478.94944743001395,None,None,0,,478.94944743001395,None,,,,,,001,2022_Nov_18_0015,TMT_fmri,2021.2.3,59.9428025783916,
A4,286:312,23,['1'],1,TMTstop-A_1_4linestimulus20.png,TMTstop-A_1_4greenlinestimulus20.png,TMTstop-A_1_4redlinestimulus20.png,TMT_A,A4,98,None,5,,,,,,,,,,,,,,,,,,,,,,,,,,,,,,,,,,,,,,,,,0,0,0,0,0,22,22,22,,,,,,,,,,,,,,,,,,,,,,,0,0,,478.98311969001514,None,None,0,,478.98311969001514,None,,,,,,001,2022_Nov_18_0015,TMT_fmri,2021.2.3,59.9428025783916,
A4,286:312,24,['2'],2,TMTstop-A_1_4linestimulus21.png,TMTstop-A_1_4greenlinestimulus21.png,TMTstop-A_1_4redlinestimulus21.png,TMT_A,A4,99,None,5,,,,,,,,,,,,,,,,,,,,,,,,,,,,,,,,,,,,,,,,,0,0,0,0,0,23,23,23,,,,,,,,,,,,,,,,,,,,,,,0,0,,479.01679195001634,None,None,0,,479.01679195001634,None,,,,,,001,2022_Nov_18_0015,TMT_fmri,2021.2.3,59.9428025783916,
A4,286:312,25,['3'],3,TMTstop-A_1_4linestimulus22.png,TMTstop-A_1_4greenlinestimulus22.png,TMTstop-A_1_4redlinestimulus22.png,TMT_A,A4,100,None,5,,,,,,,,,,,,,,,,,,,,,,,,,,,,,,,,,,,,,,,,,0,0,0,0,0,24,24,24,,,,,,,,,,,,,,,,,,,,,,,0,0,,479.0504642100175,None,None,0,,479.0504642100175,None,,,,,,001,2022_Nov_18_0015,TMT_fmri,2021.2.3,59.9428025783916,
A4,286:312,None,None,None,TMTstop-A_1_4linestimulus23.png,TMTstop-A_1_4greenlinestimulus23.png,TMTstop-A_1_4redlinestimulus23.png,TMT_A,A4,Feedback_last,None,5,,,,,,,,,,,,,,,,,,,,,,,,,,,,,,,,,,,,,,,,,0,0,0,0,0,25,25,25,,,,,,,,,,,,,,,,,,,,,,,0,0,,479.0841364700187,None,None,1,,479.0841364700187,None,,,,,,001,2022_Nov_18_0015,TMT_fmri,2021.2.3,59.9428025783916,
A5,312:338,1,['2'],2,TMTstop-A_1_5.png,TMTstop-A_1_5.png,TMTstop-A_1_5.png,TMT_A,A5,101,None,5,,,,,,,,,,,,,,,,,,,,,,,,,,,,,,,,,,,,,,,,,0,1,1,1,0,0,0,0,,,,,,,,,,,,,,,,,,,,,,,0,0,,481.3679933800071,None,None,0,,481.3679933800071,None,,,,,,001,2022_Nov_18_0015,TMT_fmri,2021.2.3,59.9428025783916,
A5,312:338,2,['1'],1,TMTstop-A_1_5.png,TMTstop-A_1_5firstgreen.png,TMTstop-A_1_5firstred.png,TMT_A,A5,102,None,5,,,,,,,,,,,,,,,,,,,,,,,,,,,,,,,,,,,,,,,,,0,1,1,1,0,1,1,1,,,,,,,,,,,,,,,,,,,,,,,0,0,,481.4016656400083,None,None,0,,481.4016656400083,None,,,,,,001,2022_Nov_18_0015,TMT_fmri,2021.2.3,59.9428025783916,
A5,312:338,3,['3'],3,TMTstop-A_1_5linestimulus0.png,TMTstop-A_1_5greenlinestimulus0.png,TMTstop-A_1_5redlinestimulus0.png,TMT_A,A5,103,None,5,,,,,,,,,,,,,,,,,,,,,,,,,,,,,,,,,,,,,,,,,0,1,1,1,0,2,2,2,,,,,,,,,,,,,,,,,,,,,,,0,0,,481.4353379000095,None,None,0,,481.4353379000095,None,,,,,,001,2022_Nov_18_0015,TMT_fmri,2021.2.3,59.9428025783916,
A5,312:338,4,['1'],1,TMTstop-A_1_5linestimulus1.png,TMTstop-A_1_5greenlinestimulus1.png,TMTstop-A_1_5redlinestimulus1.png,TMT_A,A5,104,None,5,,,,,,,,,,,,,,,,,,,,,,,,,,,,,,,,,,,,,,,,,0,1,1,1,0,3,3,3,,,,,,,,,,,,,,,,,,,,,,,0,0,,481.4690101600106,None,None,0,,481.4690101600106,None,,,,,,001,2022_Nov_18_0015,TMT_fmri,2021.2.3,59.9428025783916,
A5,312:338,5,['2'],2,TMTstop-A_1_5linestimulus2.png,TMTstop-A_1_5greenlinestimulus2.png,TMTstop-A_1_5redlinestimulus2.png,TMT_A,A5,105,None,5,,,,,,,,,,,,,,,,,,,,,,,,,,,,,,,,,,,,,,,,,0,1,1,1,0,4,4,4,,,,,,,,,,,,,,,,,,,,,,,0,0,,481.5026824200118,None,None,0,,481.5026824200118,None,,,,,,001,2022_Nov_18_0015,TMT_fmri,2021.2.3,59.9428025783916,
A5,312:338,6,['1'],1,TMTstop-A_1_5linestimulus3.png,TMTstop-A_1_5greenlinestimulus3.png,TMTstop-A_1_5redlinestimulus3.png,TMT_A,A5,106,None,5,,,,,,,,,,,,,,,,,,,,,,,,,,,,,,,,,,,,,,,,,0,1,1,1,0,5,5,5,,,,,,,,,,,,,,,,,,,,,,,0,0,,481.536354680013,None,None,0,,481.536354680013,None,,,,,,001,2022_Nov_18_0015,TMT_fmri,2021.2.3,59.9428025783916,
A5,312:338,7,['3'],3,TMTstop-A_1_5linestimulus4.png,TMTstop-A_1_5greenlinestimulus4.png,TMTstop-A_1_5redlinestimulus4.png,TMT_A,A5,107,None,5,,,,,,,,,,,,,,,,,,,,,,,,,,,,,,,,,,,,,,,,,0,1,1,1,0,6,6,6,,,,,,,,,,,,,,,,,,,,,,,0,0,,481.5700269400142,None,None,0,,481.5700269400142,None,,,,,,001,2022_Nov_18_0015,TMT_fmri,2021.2.3,59.9428025783916,
A5,312:338,8,['2'],2,TMTstop-A_1_5linestimulus5.png,TMTstop-A_1_5greenlinestimulus5.png,TMTstop-A_1_5redlinestimulus5.png,TMT_A,A5,108,None,5,,,,,,,,,,,,,,,,,,,,,,,,,,,,,,,,,,,,,,,,,0,1,1,1,0,7,7,7,,,,,,,,,,,,,,,,,,,,,,,0,0,,481.6036992000154,None,None,0,,481.6036992000154,None,,,,,,001,2022_Nov_18_0015,TMT_fmri,2021.2.3,59.9428025783916,
A5,312:338,9,['3'],3,TMTstop-A_1_5linestimulus6.png,TMTstop-A_1_5greenlinestimulus6.png,TMTstop-A_1_5redlinestimulus6.png,TMT_A,A5,109,None,5,,,,,,,,,,,,,,,,,,,,,,,,,,,,,,,,,,,,,,,,,0,1,1,1,0,8,8,8,,,,,,,,,,,,,,,,,,,,,,,0,0,,481.63737146001654,None,None,0,,481.63737146001654,None,,,,,,001,2022_Nov_18_0015,TMT_fmri,2021.2.3,59.9428025783916,
A5,312:338,10,['1'],1,TMTstop-A_1_5linestimulus7.png,TMTstop-A_1_5greenlinestimulus7.png,TMTstop-A_1_5redlinestimulus7.png,TMT_A,A5,110,None,5,,,,,,,,,,,,,,,,,,,,,,,,,,,,,,,,,,,,,,,,,0,1,1,1,0,9,9,9,,,,,,,,,,,,,,,,,,,,,,,0,0,,481.67104372001774,None,None,0,,481.67104372001774,None,,,,,,001,2022_Nov_18_0015,TMT_fmri,2021.2.3,59.9428025783916,
A5,312:338,11,['3'],3,TMTstop-A_1_5linestimulus8.png,TMTstop-A_1_5greenlinestimulus8.png,TMTstop-A_1_5redlinestimulus8.png,TMT_A,A5,111,None,5,,,,,,,,,,,,,,,,,,,,,,,,,,,,,,,,,,,,,,,,,0,1,1,1,0,10,10,10,,,,,,,,,,,,,,,,,,,,,,,0,0,,481.70471598001893,None,None,0,,481.70471598001893,None,,,,,,001,2022_Nov_18_0015,TMT_fmri,2021.2.3,59.9428025783916,
A5,312:338,12,['2'],2,TMTstop-A_1_5linestimulus9.png,TMTstop-A_1_5greenlinestimulus9.png,TMTstop-A_1_5redlinestimulus9.png,TMT_A,A5,112,None,5,,,,,,,,,,,,,,,,,,,,,,,,,,,,,,,,,,,,,,,,,0,1,1,1,0,11,11,11,,,,,,,,,,,,,,,,,,,,,,,0,0,,481.73838824002013,None,None,0,,481.73838824002013,None,,,,,,001,2022_Nov_18_0015,TMT_fmri,2021.2.3,59.9428025783916,
A5,312:338,13,['3'],3,TMTstop-A_1_5linestimulus10.png,TMTstop-A_1_5greenlinestimulus10.png,TMTstop-A_1_5redlinestimulus10.png,TMT_A,A5,113,None,5,,,,,,,,,,,,,,,,,,,,,,,,,,,,,,,,,,,,,,,,,0,1,1,1,0,12,12,12,,,,,,,,,,,,,,,,,,,,,,,0,0,,481.7720605000213,None,None,0,,481.7720605000213,None,,,,,,001,2022_Nov_18_0015,TMT_fmri,2021.2.3,59.9428025783916,
A5,312:338,14,['2'],2,TMTstop-A_1_5linestimulus11.png,TMTstop-A_1_5greenlinestimulus11.png,TMTstop-A_1_5redlinestimulus11.png,TMT_A,A5,114,None,5,,,,,,,,,,,,,,,,,,,,,,,,,,,,,,,,,,,,,,,,,0,1,1,1,0,13,13,13,,,,,,,,,,,,,,,,,,,,,,,0,0,,481.80573276002247,None,None,0,,481.80573276002247,None,,,,,,001,2022_Nov_18_0015,TMT_fmri,2021.2.3,59.9428025783916,
A5,312:338,15,['3'],3,TMTstop-A_1_5linestimulus12.png,TMTstop-A_1_5greenlinestimulus12.png,TMTstop-A_1_5redlinestimulus12.png,TMT_A,A5,115,None,5,,,,,,,,,,,,,,,,,,,,,,,,,,,,,,,,,,,,,,,,,0,1,1,1,0,14,14,14,,,,,,,,,,,,,,,,,,,,,,,0,0,,481.83940502002366,None,None,0,,481.83940502002366,None,,,,,,001,2022_Nov_18_0015,TMT_fmri,2021.2.3,59.9428025783916,
A5,312:338,16,['2'],2,TMTstop-A_1_5linestimulus13.png,TMTstop-A_1_5greenlinestimulus13.png,TMTstop-A_1_5redlinestimulus13.png,TMT_A,A5,116,None,5,,,,,,,,,,,,,,,,,,,,,,,,,,,,,,,,,,,,,,,,,0,1,1,1,0,15,15,15,,,,,,,,,,,,,,,,,,,,,,,0,0,,481.87307728002486,None,None,0,,481.87307728002486,None,,,,,,001,2022_Nov_18_0015,TMT_fmri,2021.2.3,59.9428025783916,
A5,312:338,17,['1'],1,TMTstop-A_1_5linestimulus14.png,TMTstop-A_1_5greenlinestimulus14.png,TMTstop-A_1_5redlinestimulus14.png,TMT_A,A5,117,None,5,,,,,,,,,,,,,,,,,,,,,,,,,,,,,,,,,,,,,,,,,0,1,1,1,0,16,16,16,,,,,,,,,,,,,,,,,,,,,,,0,0,,481.90674954002606,None,None,0,,481.90674954002606,None,,,,,,001,2022_Nov_18_0015,TMT_fmri,2021.2.3,59.9428025783916,
A5,312:338,18,['3'],3,TMTstop-A_1_5linestimulus15.png,TMTstop-A_1_5greenlinestimulus15.png,TMTstop-A_1_5redlinestimulus15.png,TMT_A,A5,118,None,5,,,,,,,,,,,,,,,,,,,,,,,,,,,,,,,,,,,,,,,,,0,1,1,1,0,17,17,17,,,,,,,,,,,,,,,,,,,,,,,0,0,,481.9572579300278,None,None,0,,481.9572579300278,None,,,,,,001,2022_Nov_18_0015,TMT_fmri,2021.2.3,59.9428025783916,
A5,312:338,19,['2'],2,TMTstop-A_1_5linestimulus16.png,TMTstop-A_1_5greenlinestimulus16.png,TMTstop-A_1_5redlinestimulus16.png,TMT_A,A5,119,None,5,,,,,,,,,,,,,,,,,,,,,,,,,,,,,,,,,,,,,,,,,0,1,1,1,0,18,18,18,,,,,,,,,,,,,,,,,,,,,,,0,0,,481.990930190029,None,None,0,,481.990930190029,None,,,,,,001,2022_Nov_18_0015,TMT_fmri,2021.2.3,59.9428025783916,
A5,312:338,20,['1'],1,TMTstop-A_1_5linestimulus17.png,TMTstop-A_1_5greenlinestimulus17.png,TMTstop-A_1_5redlinestimulus17.png,TMT_A,A5,120,None,5,,,,,,,,,,,,,,,,,,,,,,,,,,,,,,,,,,,,,,,,,0,1,1,1,0,19,19,19,,,,,,,,,,,,,,,,,,,,,,,0,0,,482.0246024500302,None,None,0,,482.0246024500302,None,,,,,,001,2022_Nov_18_0015,TMT_fmri,2021.2.3,59.9428025783916,
A5,312:338,21,['2'],2,TMTstop-A_1_5linestimulus18.png,TMTstop-A_1_5greenlinestimulus18.png,TMTstop-A_1_5redlinestimulus18.png,TMT_A,A5,121,None,5,,,,,,,,,,,,,,,,,,,,,,,,,,,,,,,,,,,,,,,,,0,1,1,1,0,20,20,20,,,,,,,,,,,,,,,,,,,,,,,0,0,,482.05827471003136,None,None,0,,482.05827471003136,None,,,,,,001,2022_Nov_18_0015,TMT_fmri,2021.2.3,59.9428025783916,
A5,312:338,22,['3'],3,TMTstop-A_1_5linestimulus19.png,TMTstop-A_1_5greenlinestimulus19.png,TMTstop-A_1_5redlinestimulus19.png,TMT_A,A5,122,None,5,,,,,,,,,,,,,,,,,,,,,,,,,,,,,,,,,,,,,,,,,0,1,1,1,0,21,21,21,,,,,,,,,,,,,,,,,,,,,,,0,0,,482.09194697003255,None,None,0,,482.09194697003255,None,,,,,,001,2022_Nov_18_0015,TMT_fmri,2021.2.3,59.9428025783916,
A5,312:338,23,['2'],2,TMTstop-A_1_5linestimulus20.png,TMTstop-A_1_5greenlinestimulus20.png,TMTstop-A_1_5redlinestimulus20.png,TMT_A,A5,123,None,5,,,,,,,,,,,,,,,,,,,,,,,,,,,,,,,,,,,,,,,,,0,1,1,1,0,22,22,22,,,,,,,,,,,,,,,,,,,,,,,0,0,,482.12561923003375,None,None,0,,482.12561923003375,None,,,,,,001,2022_Nov_18_0015,TMT_fmri,2021.2.3,59.9428025783916,
A5,312:338,24,['3'],3,TMTstop-A_1_5linestimulus21.png,TMTstop-A_1_5greenlinestimulus21.png,TMTstop-A_1_5redlinestimulus21.png,TMT_A,A5,124,None,5,,,,,,,,,,,,,,,,,,,,,,,,,,,,,,,,,,,,,,,,,0,1,1,1,0,23,23,23,,,,,,,,,,,,,,,,,,,,,,,0,0,,482.15929149003495,None,None,0,,482.15929149003495,None,,,,,,001,2022_Nov_18_0015,TMT_fmri,2021.2.3,59.9428025783916,
A5,312:338,25,['1'],1,TMTstop-A_1_5linestimulus22.png,TMTstop-A_1_5greenlinestimulus22.png,TMTstop-A_1_5redlinestimulus22.png,TMT_A,A5,125,None,5,,,,,,,,,,,,,,,,,,,,,,,,,,,,,,,,,,,,,,,,,0,1,1,1,0,24,24,24,,,,,,,,,,,,,,,,,,,,,,,0,0,,482.19296375003614,None,None,0,,482.19296375003614,None,,,,,,001,2022_Nov_18_0015,TMT_fmri,2021.2.3,59.9428025783916,
A5,312:338,None,None,None,TMTstop-A_1_5linestimulus23.png,TMTstop-A_1_5greenlinestimulus23.png,TMTstop-A_1_5redlinestimulus23.png,TMT_A,A5,Feedback_last,None,5,,,,,,,,,,,,,,,,,,,,,,,,,,,,,,,,,,,,,,,,,0,1,1,1,0,25,25,25,,,,,,,,,,,,,,,,,,,,,,,0,0,,482.2266360100373,None,None,1,,482.2266360100373,None,,,,,,001,2022_Nov_18_0015,TMT_fmri,2021.2.3,59.9428025783916,
A6,338:364,1,['3'],3,TMTstop-A_1_6.png,TMTstop-A_1_6.png,TMTstop-A_1_6.png,TMT_A,A6,126,None,5,,,,,,,,,,,,,,,,,,,,,,,,,,,,,,,,,,,,,,,,,0,2,2,2,0,0,0,0,,,,,,,,,,,,,,,,,,,,,,,0,0,,482.61386700005096,None,None,0,,482.61386700005096,None,,,,,,001,2022_Nov_18_0015,TMT_fmri,2021.2.3,59.9428025783916,
A6,338:364,2,['1'],1,TMTstop-A_1_6.png,TMTstop-A_1_6firstgreen.png,TMTstop-A_1_6firstred.png,TMT_A,A6,127,None,5,,,,,,,,,,,,,,,,,,,,,,,,,,,,,,,,,,,,,,,,,0,2,2,2,0,1,1,1,,,,,,,,,,,,,,,,,,,,,,,0,0,,482.6475392600521,None,None,0,,482.6475392600521,None,,,,,,001,2022_Nov_18_0015,TMT_fmri,2021.2.3,59.9428025783916,
A6,338:364,3,['2'],2,TMTstop-A_1_6linestimulus0.png,TMTstop-A_1_6greenlinestimulus0.png,TMTstop-A_1_6redlinestimulus0.png,TMT_A,A6,128,None,5,,,,,,,,,,,,,,,,,,,,,,,,,,,,,,,,,,,,,,,,,0,2,2,2,0,2,2,2,,,,,,,,,,,,,,,,,,,,,,,0,0,,482.6812115200533,None,None,0,,482.6812115200533,None,,,,,,001,2022_Nov_18_0015,TMT_fmri,2021.2.3,59.9428025783916,
A6,338:364,4,['1'],1,TMTstop-A_1_6linestimulus1.png,TMTstop-A_1_6greenlinestimulus1.png,TMTstop-A_1_6redlinestimulus1.png,TMT_A,A6,129,None,5,,,,,,,,,,,,,,,,,,,,,,,,,,,,,,,,,,,,,,,,,0,2,2,2,0,3,3,3,,,,,,,,,,,,,,,,,,,,,,,0,0,,482.7148837800545,None,None,0,,482.7148837800545,None,,,,,,001,2022_Nov_18_0015,TMT_fmri,2021.2.3,59.9428025783916,
A6,338:364,5,['2'],2,TMTstop-A_1_6linestimulus2.png,TMTstop-A_1_6greenlinestimulus2.png,TMTstop-A_1_6redlinestimulus2.png,TMT_A,A6,130,None,5,,,,,,,,,,,,,,,,,,,,,,,,,,,,,,,,,,,,,,,,,0,2,2,2,0,4,4,4,,,,,,,,,,,,,,,,,,,,,,,0,0,,482.76539217005626,None,None,0,,482.76539217005626,None,,,,,,001,2022_Nov_18_0015,TMT_fmri,2021.2.3,59.9428025783916,
A6,338:364,6,['3'],3,TMTstop-A_1_6linestimulus3.png,TMTstop-A_1_6greenlinestimulus3.png,TMTstop-A_1_6redlinestimulus3.png,TMT_A,A6,131,None,5,,,,,,,,,,,,,,,,,,,,,,,,,,,,,,,,,,,,,,,,,0,2,2,2,0,5,5,5,,,,,,,,,,,,,,,,,,,,,,,0,0,,482.815900560058,None,None,0,,482.815900560058,None,,,,,,001,2022_Nov_18_0015,TMT_fmri,2021.2.3,59.9428025783916,
A6,338:364,7,['2'],2,TMTstop-A_1_6linestimulus4.png,TMTstop-A_1_6greenlinestimulus4.png,TMTstop-A_1_6redlinestimulus4.png,TMT_A,A6,132,None,5,,,,,,,,,,,,,,,,,,,,,,,,,,,,,,,,,,,,,,,,,0,2,2,2,0,6,6,6,,,,,,,,,,,,,,,,,,,,,,,0,0,,482.8495728200592,None,None,0,,482.8495728200592,None,,,,,,001,2022_Nov_18_0015,TMT_fmri,2021.2.3,59.9428025783916,
A6,338:364,8,['1'],1,TMTstop-A_1_6linestimulus5.png,TMTstop-A_1_6greenlinestimulus5.png,TMTstop-A_1_6redlinestimulus5.png,TMT_A,A6,133,None,5,,,,,,,,,,,,,,,,,,,,,,,,,,,,,,,,,,,,,,,,,0,2,2,2,0,7,7,7,,,,,,,,,,,,,,,,,,,,,,,0,0,,482.8832450800604,None,None,0,,482.8832450800604,None,,,,,,001,2022_Nov_18_0015,TMT_fmri,2021.2.3,59.9428025783916,
