Block_file,Condition_rows,NumberLetter,corrAns,Correct,StimFile,Correct_StimFile,False_StimFile,Version,Block,TrialNumber_session,Blocks_TMTControl.thisRepN,Blocks_TMTControl.thisTrialN,Blocks_TMTControl.thisN,Blocks_TMTControl.thisIndex,trials_TMTControl.thisRepN,trials_TMTControl.thisTrialN,trials_TMTControl.thisN,trials_TMTControl.thisIndex,Blocks_TMTA.thisRepN,Blocks_TMTA.thisTrialN,Blocks_TMTA.thisN,Blocks_TMTA.thisIndex,trials_TMTA.thisRepN,trials_TMTA.thisTrialN,trials_TMTA.thisN,trials_TMTA.thisIndex,Blocks_TMTB.thisRepN,Blocks_TMTB.thisTrialN,Blocks_TMTB.thisN,Blocks_TMTB.thisIndex,trials_TMTB.thisRepN,trials_TMTB.thisTrialN,trials_TMTB.thisN,trials_TMTB.thisIndex,Blocks_TMTControl_2.thisRepN,Blocks_TMTControl_2.thisTrialN,Blocks_TMTControl_2.thisN,Blocks_TMTControl_2.thisIndex,trials_TMTControl_2.thisRepN,trials_TMTControl_2.thisTrialN,trials_TMTControl_2.thisN,trials_TMTControl_2.thisIndex,Blocks_TMTA_2.thisRepN,Blocks_TMTA_2.thisTrialN,Blocks_TMTA_2.thisN,Blocks_TMTA_2.thisIndex,trials_TMTA_2.thisRepN,trials_TMTA_2.thisTrialN,trials_TMTA_2.thisN,trials_TMTA_2.thisIndex,Blocks_TMTB_2.thisRepN,Blocks_TMTB_2.thisTrialN,Blocks_TMTB_2.thisN,Blocks_TMTB_2.thisIndex,trials_TMTB_2.thisRepN,trials_TMTB_2.thisTrialN,trials_TMTB_2.thisN,trials_TMTB_2.thisIndex,key_resp_7.keys,key_resp_7.rt,key_resp_7.started,key_resp_7.stopped,polygon_2.started,polygon_2.stopped,Attempts,First_attempt,Stim.started,Stim.stopped,key_resp_2.keys,key_resp_2.corr,key_resp_2.rt,key_resp_2.started,key_resp_2.stopped,participant,session,date,expName,psychopyVersion,frameRate,
,,,,,,,,,,,,,,,,,,,,,,,,,,,,,,,,,,,,,,,,,,,,,,,,,,,,,,,,,,,s,0.6698732000077143,10.601949999996577,None,,,,,,,,,,,,,001,2022_May_10_1109,TMT_fmri,2021.2.3,122.71384113973052,
TMTstop-Control_1_1.xlsx,0:26,1,['2'],2,TMTstop-control_1_1.png,TMTstop-control_1_1.png,TMTstop-control_1_1.png,TMT_Control,1,1,0,0,0,0,0,0,0,0,,,,,,,,,,,,,,,,,,,,,,,,,,,,,,,,,,,,,,,,,,,,,10.601949999996577,None,1,1,11.48335579999548,None,['2'],1,[0.5198772000003373],11.48335579999548,None,,001,2022_May_10_1109,TMT_fmri,2021.2.3,122.71384113973052,
TMTstop-Control_1_1.xlsx,0:26,2,['1'],1,TMTstop-control_1_1.png,TMTstop-control_1_1firstgreen.png,TMTstop-control_1_1firstred.png,TMT_Control,1,2,0,0,0,0,0,1,1,1,,,,,,,,,,,,,,,,,,,,,,,,,,,,,,,,,,,,,,,,,,,,,,,1,1,12.209435900003882,None,['1'],1,[-0.02268339999136515],12.209435900003882,None,,001,2022_May_10_1109,TMT_fmri,2021.2.3,122.71384113973052,
TMTstop-Control_1_1.xlsx,0:26,3,['3'],3,TMTstop-control_1_1linestimulus0.png,TMTstop-control_1_1greenlinestimulus0.png,TMTstop-control_1_1redlinestimulus0.png,TMT_Control,1,3,0,0,0,0,0,2,2,2,,,,,,,,,,,,,,,,,,,,,,,,,,,,,,,,,,,,,,,,,,,,,,,1,1,12.337367000000086,None,['3'],1,[0.017000199994072318],12.337367000000086,None,,001,2022_May_10_1109,TMT_fmri,2021.2.3,122.71384113973052,
TMTstop-Control_1_1.xlsx,0:26,4,['1'],1,TMTstop-control_1_1linestimulus1.png,TMTstop-control_1_1greenlinestimulus1.png,TMTstop-control_1_1redlinestimulus1.png,TMT_Control,1,4,0,0,0,0,0,3,3,3,,,,,,,,,,,,,,,,,,,,,,,,,,,,,,,,,,,,,,,,,,,,,,,5,0,12.477398400005768,None,"['2', '3', '2', '3', '1']",1,"[0.07154150000133086, 0.18097989998932462, 0.7720977999997558, 0.7824891999916872, 1.6075631999992765]",12.477398400005768,None,,001,2022_May_10_1109,TMT_fmri,2021.2.3,122.71384113973052,
TMTstop-Control_1_1.xlsx,0:26,5,['3'],3,TMTstop-control_1_1linestimulus2.png,TMTstop-control_1_1greenlinestimulus2.png,TMTstop-control_1_1redlinestimulus2.png,TMT_Control,1,5,0,0,0,0,0,4,4,4,,,,,,,,,,,,,,,,,,,,,,,,,,,,,,,,,,,,,,,,,,,,,,,2,0,14.245150600007037,None,"['2', '3']",1,"[-0.027619000000413507, 0.042267400000127964]",14.245150600007037,None,,001,2022_May_10_1109,TMT_fmri,2021.2.3,122.71384113973052,
TMTstop-Control_1_1.xlsx,0:26,6,['1'],1,TMTstop-control_1_1linestimulus3.png,TMTstop-control_1_1greenlinestimulus3.png,TMTstop-control_1_1redlinestimulus3.png,TMT_Control,1,6,0,0,0,0,0,5,5,5,,,,,,,,,,,,,,,,,,,,,,,,,,,,,,,,,,,,,,,,,,,,,,,3,0,14.369972000000416,None,"['2', '3', '1']",1,"[0.1365968000027351, 0.2335830999945756, 0.37456399999791756]",14.369972000000416,None,,001,2022_May_10_1109,TMT_fmri,2021.2.3,122.71384113973052,
TMTstop-Control_1_1.xlsx,0:26,7,['2'],2,TMTstop-control_1_1linestimulus4.png,TMTstop-control_1_1greenlinestimulus4.png,TMTstop-control_1_1redlinestimulus4.png,TMT_Control,1,7,0,0,0,0,0,6,6,6,,,,,,,,,,,,,,,,,,,,,,,,,,,,,,,,,,,,,,,,,,,,,,,4,0,14.936889899996459,None,"['2', '3', '1', '2']",1,"[-0.12200039999152068, -0.02694609999889508, 0.12953320000087842, 0.18369370000436902]",14.936889899996459,None,,001,2022_May_10_1109,TMT_fmri,2021.2.3,122.71384113973052,
TMTstop-Control_1_1.xlsx,0:26,8,['1'],1,TMTstop-control_1_1linestimulus4.png,TMTstop-control_1_1greenlinestimulus5.png,TMTstop-control_1_1redlinestimulus5.png,TMT_Control,1,8,0,0,0,0,0,7,7,7,,,,,,,,,,,,,,,,,,,,,,,,,,,,,,,,,,,,,,,,,,,,,,,2,0,15.32671009999467,None,"['3', '1']",1,"[-0.09695920000376645, 0.06322359999467153]",15.32671009999467,None,,001,2022_May_10_1109,TMT_fmri,2021.2.3,122.71384113973052,
TMTstop-Control_1_1.xlsx,0:26,9,['3'],3,TMTstop-control_1_1linestimulus6.png,TMTstop-control_1_1greenlinestimulus6.png,TMTstop-control_1_1redlinestimulus6.png,TMT_Control,1,9,0,0,0,0,0,8,8,8,,,,,,,,,,,,,,,,,,,,,,,,,,,,,,,,,,,,,,,,,,,,,,,2,0,15.576745300000766,None,"['2', '3']",1,"[-0.034490999998524785, -0.026435799998580478]",15.576745300000766,None,,001,2022_May_10_1109,TMT_fmri,2021.2.3,122.71384113973052,
TMTstop-Control_1_1.xlsx,0:26,10,['2'],2,TMTstop-control_1_1linestimulus7.png,TMTstop-control_1_1greenlinestimulus7.png,TMTstop-control_1_1redlinestimulus7.png,TMT_Control,1,10,0,0,0,0,0,9,9,9,,,,,,,,,,,,,,,,,,,,,,,,,,,,,,,,,,,,,,,,,,,,,,,2,0,15.702203299995745,None,"['1', '2']",1,"[0.02900439999939408, 0.10970939999970142]",15.702203299995745,None,,001,2022_May_10_1109,TMT_fmri,2021.2.3,122.71384113973052,
TMTstop-Control_1_1.xlsx,0:26,11,['1'],1,TMTstop-control_1_1linestimulus8.png,TMTstop-control_1_1greenlinestimulus8.png,TMTstop-control_1_1redlinestimulus8.png,TMT_Control,1,11,0,0,0,0,0,10,10,10,,,,,,,,,,,,,,,,,,,,,,,,,,,,,,,,,,,,,,,,,,,,,,,8,0,15.981148999999277,None,"['3', '1', '2', '3', '1', '2', '3', '1']",1,"[-0.08615760000247974, 0.05717499999445863, 0.12958449999860022, 0.21309089999704156, 0.346488600000157, 0.4008098000049358, 0.49292619999323506, 0.6237856999941869]",15.981148999999277,None,,001,2022_May_10_1109,TMT_fmri,2021.2.3,122.71384113973052,
TMTstop-Control_1_1.xlsx,0:26,12,['2'],2,TMTstop-control_1_1linestimulus9.png,TMTstop-control_1_1greenlinestimulus9.png,TMTstop-control_1_1redlinestimulus9.png,TMT_Control,1,12,0,0,0,0,0,11,11,11,,,,,,,,,,,,,,,,,,,,,,,,,,,,,,,,,,,,,,,,,,,,,,,4,0,16.771796900007757,None,"['2', '3', '1', '2']",1,"[-0.08341759999166243, -0.008017899992410094, 0.254409700006363, 0.423655200007488]",16.771796900007757,None,,001,2022_May_10_1109,TMT_fmri,2021.2.3,122.71384113973052,
TMTstop-Control_1_1.xlsx,0:26,13,['3'],3,TMTstop-control_1_1linestimulus10.png,TMTstop-control_1_1greenlinestimulus10.png,TMTstop-control_1_1redlinestimulus10.png,TMT_Control,1,13,0,0,0,0,0,12,12,12,,,,,,,,,,,,,,,,,,,,,,,,,,,,,,,,,,,,,,,,,,,,,,,4,0,17.29510129999835,None,"['1', '2', '2', '3']",1,"[0.10380810000060592, 0.1218516999942949, 0.19451030000345781, 0.2667803999938769]",17.29510129999835,None,,001,2022_May_10_1109,TMT_fmri,2021.2.3,122.71384113973052,
TMTstop-Control_1_1.xlsx,0:26,14,['2'],2,TMTstop-control_1_1linestimulus11.png,TMTstop-control_1_1greenlinestimulus11.png,TMTstop-control_1_1redlinestimulus11.png,TMT_Control,1,14,0,0,0,0,0,13,13,13,,,,,,,,,,,,,,,,,,,,,,,,,,,,,,,,,,,,,,,,,,,,,,,2,0,17.684794700006023,None,"['1', '2']",1,"[-0.00789390000863932, 0.11233109999739099]",17.684794700006023,None,,001,2022_May_10_1109,TMT_fmri,2021.2.3,122.71384113973052,
TMTstop-Control_1_1.xlsx,0:26,15,['3'],3,TMTstop-control_1_1linestimulus12.png,TMTstop-control_1_1greenlinestimulus12.png,TMTstop-control_1_1redlinestimulus12.png,TMT_Control,1,15,0,0,0,0,0,14,14,14,,,,,,,,,,,,,,,,,,,,,,,,,,,,,,,,,,,,,,,,,,,,,,,1,1,17.94083390000742,None,['3'],1,[-0.11270100000547245],17.94083390000742,None,,001,2022_May_10_1109,TMT_fmri,2021.2.3,122.71384113973052,
TMTstop-Control_1_1.xlsx,0:26,16,['2'],2,TMTstop-control_1_1linestimulus13.png,TMTstop-control_1_1greenlinestimulus13.png,TMTstop-control_1_1redlinestimulus13.png,TMT_Control,1,16,0,0,0,0,0,15,15,15,,,,,,,,,,,,,,,,,,,,,,,,,,,,,,,,,,,,,,,,,,,,,,,2,0,18.082581399998162,None,"['1', '2']",1,"[-0.13421390000439715, -0.03750700000091456]",18.082581399998162,None,,001,2022_May_10_1109,TMT_fmri,2021.2.3,122.71384113973052,
TMTstop-Control_1_1.xlsx,0:26,17,['3'],3,TMTstop-control_1_1linestimulus14.png,TMTstop-control_1_1greenlinestimulus14.png,TMTstop-control_1_1redlinestimulus14.png,TMT_Control,1,17,0,0,0,0,0,16,16,16,,,,,,,,,,,,,,,,,,,,,,,,,,,,,,,,,,,,,,,,,,,,,,,1,1,18.204017700001714,None,['3'],1,[-0.06492920000164304],18.204017700001714,None,,001,2022_May_10_1109,TMT_fmri,2021.2.3,122.71384113973052,
TMTstop-Control_1_1.xlsx,0:26,18,['2'],2,TMTstop-control_1_1linestimulus15.png,TMTstop-control_1_1greenlinestimulus15.png,TMTstop-control_1_1redlinestimulus15.png,TMT_Control,1,18,0,0,0,0,0,17,17,17,,,,,,,,,,,,,,,,,,,,,,,,,,,,,,,,,,,,,,,,,,,,,,,4,0,18.329689100006362,None,"['1', '3', '1', '2']",1,"[-0.03875620001053903, 0.12611319999268744, 0.2648880999913672, 0.3779521999967983]",18.329689100006362,None,,001,2022_May_10_1109,TMT_fmri,2021.2.3,122.71384113973052,
TMTstop-Control_1_1.xlsx,0:26,19,['1'],1,TMTstop-control_1_1linestimulus16.png,TMTstop-control_1_1greenlinestimulus16.png,TMTstop-control_1_1redlinestimulus16.png,TMT_Control,1,19,0,0,0,0,0,18,18,18,,,,,,,,,,,,,,,,,,,,,,,,,,,,,,,,,,,,,,,,,,,,,,,2,0,18.851673299999675,None,"['3', '1']",1,"[-0.01398029999108985, 0.12606150000647176]",18.851673299999675,None,,001,2022_May_10_1109,TMT_fmri,2021.2.3,122.71384113973052,
TMTstop-Control_1_1.xlsx,0:26,20,['3'],3,TMTstop-control_1_1linestimulus17.png,TMTstop-control_1_1greenlinestimulus17.png,TMTstop-control_1_1redlinestimulus17.png,TMT_Control,1,20,0,0,0,0,0,19,19,19,,,,,,,,,,,,,,,,,,,,,,,,,,,,,,,,,,,,,,,,,,,,,,,1,1,19.13291699999536,None,['3'],1,[0.033314899992547],19.13291699999536,None,,001,2022_May_10_1109,TMT_fmri,2021.2.3,122.71384113973052,
TMTstop-Control_1_1.xlsx,0:26,21,['1'],1,TMTstop-control_1_1linestimulus18.png,TMTstop-control_1_1greenlinestimulus18.png,TMTstop-control_1_1redlinestimulus18.png,TMT_Control,1,21,0,0,0,0,0,20,20,20,,,,,,,,,,,,,,,,,,,,,,,,,,,,,,,,,,,,,,,,,,,,,,,1,1,19.272028999999748,None,['1'],1,[0.04145259999495465],19.272028999999748,None,,001,2022_May_10_1109,TMT_fmri,2021.2.3,122.71384113973052,
TMTstop-Control_1_1.xlsx,0:26,22,['2'],2,TMTstop-control_1_1linestimulus19.png,TMTstop-control_1_1greenlinestimulus19.png,TMTstop-control_1_1redlinestimulus19.png,TMT_Control,1,22,0,0,0,0,0,21,21,21,,,,,,,,,,,,,,,,,,,,,,,,,,,,,,,,,,,,,,,,,,,,,,,1,1,19.4000570000062,None,['2'],1,[-0.01329750000149943],19.4000570000062,None,,001,2022_May_10_1109,TMT_fmri,2021.2.3,122.71384113973052,
TMTstop-Control_1_1.xlsx,0:26,23,['3'],3,TMTstop-control_1_1linestimulus20.png,TMTstop-control_1_1greenlinestimulus20.png,TMTstop-control_1_1redlinestimulus20.png,TMT_Control,1,23,0,0,0,0,0,22,22,22,,,,,,,,,,,,,,,,,,,,,,,,,,,,,,,,,,,,,,,,,,,,,,,1,1,19.52711260000069,None,['3'],1,[-0.021999200005666353],19.52711260000069,None,,001,2022_May_10_1109,TMT_fmri,2021.2.3,122.71384113973052,
TMTstop-Control_1_1.xlsx,0:26,24,['2'],2,TMTstop-control_1_1linestimulus21.png,TMTstop-control_1_1greenlinestimulus21.png,TMTstop-control_1_1redlinestimulus21.png,TMT_Control,1,24,0,0,0,0,0,23,23,23,,,,,,,,,,,,,,,,,,,,,,,,,,,,,,,,,,,,,,,,,,,,,,,2,0,19.66893440000422,None,"['1', '2']",1,"[-0.03801160000148229, 0.04916179999418091]",19.66893440000422,None,,001,2022_May_10_1109,TMT_fmri,2021.2.3,122.71384113973052,
TMTstop-Control_1_1.xlsx,0:26,25,['1'],1,TMTstop-control_1_1linestimulus22.png,TMTstop-control_1_1greenlinestimulus22.png,TMTstop-control_1_1redlinestimulus22.png,TMT_Control,1,25,0,0,0,0,0,24,24,24,,,,,,,,,,,,,,,,,,,,,,,,,,,,,,,,,,,,,,,,,,,,,,,2,0,19.935165300004883,None,"['3', '1']",1,"[-0.11760430000140332, 0.006937699989066459]",19.935165300004883,None,,001,2022_May_10_1109,TMT_fmri,2021.2.3,122.71384113973052,
TMTstop-Control_1_1.xlsx,0:26,None,None,None,TMTstop-control_1_1linestimulus23.png,TMTstop-control_1_1greenlinestimulus23.png,TMTstop-control_1_1redlinestimulus23.png,TMT_Control,1,Feedback_last,0,0,0,0,0,25,25,25,,,,,,,,,,,,,,,,,,,,,,,,,,,,,,,,,,,,,,,,,,,,,,,3,0,20.06993519999378,None,"['2', '3', '1']",0,"[-0.06085890000395011, 0.03549599999678321, 0.18270279999705963]",20.06993519999378,None,,001,2022_May_10_1109,TMT_fmri,2021.2.3,122.71384113973052,
TMTstop-Control_1_2.xlsx,26:52,1,['2'],2,TMTstop-control_1_2.png,TMTstop-control_1_2.png,TMTstop-control_1_2.png,TMT_Control,2,26,0,1,1,1,0,0,0,0,,,,,,,,,,,,,,,,,,,,,,,,,,,,,,,,,,,,,,,,,,,,,,,2,0,24.287757600002806,None,"['1', '2']",1,"[0.40587000000232365, 0.5436438000033377]",24.287757600002806,None,,001,2022_May_10_1109,TMT_fmri,2021.2.3,122.71384113973052,
TMTstop-Control_1_2.xlsx,26:52,2,['3'],3,TMTstop-control_1_2.png,TMTstop-control_1_2firstgreen.png,TMTstop-control_1_2firstred.png,TMT_Control,2,27,0,1,1,1,0,1,1,1,,,,,,,,,,,,,,,,,,,,,,,,,,,,,,,,,,,,,,,,,,,,,,,1,1,24.961925700001302,None,['3'],1,[-0.047120899995206855],24.961925700001302,None,,001,2022_May_10_1109,TMT_fmri,2021.2.3,122.71384113973052,
TMTstop-Control_1_2.xlsx,26:52,3,['2'],2,TMTstop-control_1_2linestimulus0.png,TMTstop-control_1_2greenlinestimulus0.png,TMTstop-control_1_2redlinestimulus0.png,TMT_Control,2,28,0,1,1,1,0,2,2,2,,,,,,,,,,,,,,,,,,,,,,,,,,,,,,,,,,,,,,,,,,,,,,,2,0,25.085583599997335,None,"['1', '2']",1,"[-0.03736850000859704, 0.0415727999934461]",25.085583599997335,None,,001,2022_May_10_1109,TMT_fmri,2021.2.3,122.71384113973052,
TMTstop-Control_1_2.xlsx,26:52,4,['3'],3,TMTstop-control_1_2linestimulus1.png,TMTstop-control_1_2greenlinestimulus1.png,TMTstop-control_1_2redlinestimulus1.png,TMT_Control,2,29,0,1,1,1,0,3,3,3,,,,,,,,,,,,,,,,,,,,,,,,,,,,,,,,,,,,,,,,,,,,,,,1,1,25.22724290000042,None,['3'],1,[-0.010256200010189787],25.22724290000042,None,,001,2022_May_10_1109,TMT_fmri,2021.2.3,122.71384113973052,
TMTstop-Control_1_2.xlsx,26:52,5,['2'],2,TMTstop-control_1_2linestimulus2.png,TMTstop-control_1_2greenlinestimulus2.png,TMTstop-control_1_2redlinestimulus2.png,TMT_Control,2,30,0,1,1,1,0,4,4,4,,,,,,,,,,,,,,,,,,,,,,,,,,,,,,,,,,,,,,,,,,,,,,,5,0,25.366046299997834,None,"['1', '2', '3', '1', '2']",1,"[-0.02965039999980945, 0.05107289999432396, 0.11604490000172518, 0.2359444000030635, 0.304067799996119]",25.366046299997834,None,,001,2022_May_10_1109,TMT_fmri,2021.2.3,122.71384113973052,
TMTstop-Control_1_2.xlsx,26:52,6,['3'],3,TMTstop-control_1_2linestimulus3.png,TMTstop-control_1_2greenlinestimulus3.png,TMTstop-control_1_2redlinestimulus3.png,TMT_Control,2,31,0,1,1,1,0,5,5,5,,,,,,,,,,,,,,,,,,,,,,,,,,,,,,,,,,,,,,,,,,,,,,,1,1,25.760614099999657,None,['3'],1,[0.0004768999933730811],25.760614099999657,None,,001,2022_May_10_1109,TMT_fmri,2021.2.3,122.71384113973052,
TMTstop-Control_1_2.xlsx,26:52,7,['2'],2,TMTstop-control_1_2linestimulus4.png,TMTstop-control_1_2greenlinestimulus4.png,TMTstop-control_1_2redlinestimulus4.png,TMT_Control,2,32,0,1,1,1,0,6,6,6,,,,,,,,,,,,,,,,,,,,,,,,,,,,,,,,,,,,,,,,,,,,,,,5,0,25.887920599998324,None,"['1', '2', '3', '1', '2']",1,"[-0.011408500009565614, 0.0855637999920873, 0.13112389999150764, 0.26750379998702556, 0.3346377999987453]",25.887920599998324,None,,001,2022_May_10_1109,TMT_fmri,2021.2.3,122.71384113973052,
TMTstop-Control_1_2.xlsx,26:52,8,['1'],1,TMTstop-control_1_2linestimulus4.png,TMTstop-control_1_2greenlinestimulus5.png,TMTstop-control_1_2redlinestimulus5.png,TMT_Control,2,33,0,1,1,1,0,7,7,7,,,,,,,,,,,,,,,,,,,,,,,,,,,,,,,,,,,,,,,,,,,,,,,2,0,26.4201480000047,None,"['3', '1']",1,"[-0.12116239999886602, 0.007045899998047389]",26.4201480000047,None,,001,2022_May_10_1109,TMT_fmri,2021.2.3,122.71384113973052,
TMTstop-Control_1_2.xlsx,26:52,9,['3'],3,TMTstop-control_1_2linestimulus6.png,TMTstop-control_1_2greenlinestimulus6.png,TMTstop-control_1_2redlinestimulus6.png,TMT_Control,2,34,0,1,1,1,0,8,8,8,,,,,,,,,,,,,,,,,,,,,,,,,,,,,,,,,,,,,,,,,,,,,,,2,0,26.561996999997064,None,"['2', '3']",1,"[-0.043581299993093126, 0.051535600010538474]",26.561996999997064,None,,001,2022_May_10_1109,TMT_fmri,2021.2.3,122.71384113973052,
TMTstop-Control_1_2.xlsx,26:52,10,['2'],2,TMTstop-control_1_2linestimulus7.png,TMTstop-control_1_2greenlinestimulus7.png,TMTstop-control_1_2redlinestimulus7.png,TMT_Control,2,35,0,1,1,1,0,9,9,9,,,,,,,,,,,,,,,,,,,,,,,,,,,,,,,,,,,,,,,,,,,,,,,2,0,26.7036356000026,None,"['1', '2']",1,"[0.012960500011104159, 0.15408100000058766]",26.7036356000026,None,,001,2022_May_10_1109,TMT_fmri,2021.2.3,122.71384113973052,
TMTstop-Control_1_2.xlsx,26:52,11,['3'],3,TMTstop-control_1_2linestimulus8.png,TMTstop-control_1_2greenlinestimulus8.png,TMTstop-control_1_2redlinestimulus8.png,TMT_Control,2,36,0,1,1,1,0,10,10,10,,,,,,,,,,,,,,,,,,,,,,,,,,,,,,,,,,,,,,,,,,,,,,,1,1,26.95490549999522,None,['3'],1,[-0.04768209999019746],26.95490549999522,None,,001,2022_May_10_1109,TMT_fmri,2021.2.3,122.71384113973052,
TMTstop-Control_1_2.xlsx,26:52,12,['2'],2,TMTstop-control_1_2linestimulus9.png,TMTstop-control_1_2greenlinestimulus9.png,TMTstop-control_1_2redlinestimulus9.png,TMT_Control,2,37,0,1,1,1,0,11,11,11,,,,,,,,,,,,,,,,,,,,,,,,,,,,,,,,,,,,,,,,,,,,,,,2,0,27.082895700004883,None,"['1', '2']",1,"[-0.023089599999366328, 0.07191020000027493]",27.082895700004883,None,,001,2022_May_10_1109,TMT_fmri,2021.2.3,122.71384113973052,
TMTstop-Control_1_2.xlsx,26:52,13,['3'],3,TMTstop-control_1_2linestimulus10.png,TMTstop-control_1_2greenlinestimulus10.png,TMTstop-control_1_2redlinestimulus10.png,TMT_Control,2,38,0,1,1,1,0,12,12,12,,,,,,,,,,,,,,,,,,,,,,,,,,,,,,,,,,,,,,,,,,,,,,,1,1,27.335261000000173,None,['3'],1,[-0.08857159999024589],27.335261000000173,None,,001,2022_May_10_1109,TMT_fmri,2021.2.3,122.71384113973052,
TMTstop-Control_1_2.xlsx,26:52,14,['2'],2,TMTstop-control_1_2linestimulus11.png,TMTstop-control_1_2greenlinestimulus11.png,TMTstop-control_1_2redlinestimulus11.png,TMT_Control,2,39,0,1,1,1,0,13,13,13,,,,,,,,,,,,,,,,,,,,,,,,,,,,,,,,,,,,,,,,,,,,,,,2,0,27.460741400005645,None,"['1', '2']",1,"[-0.072175099994638, 0.04254959999525454]",27.460741400005645,None,,001,2022_May_10_1109,TMT_fmri,2021.2.3,122.71384113973052,
TMTstop-Control_1_2.xlsx,26:52,15,['3'],3,TMTstop-control_1_2linestimulus12.png,TMTstop-control_1_2greenlinestimulus12.png,TMTstop-control_1_2redlinestimulus12.png,TMT_Control,2,40,0,1,1,1,0,14,14,14,,,,,,,,,,,,,,,,,,,,,,,,,,,,,,,,,,,,,,,,,,,,,,,3,0,27.587500499997986,None,"['1', '2', '3']",1,"[0.09979449999809731, 0.126413699996192, 0.2633802999916952]",27.587500499997986,None,,001,2022_May_10_1109,TMT_fmri,2021.2.3,122.71384113973052,
TMTstop-Control_1_2.xlsx,26:52,16,['1'],1,TMTstop-control_1_2linestimulus13.png,TMTstop-control_1_2greenlinestimulus13.png,TMTstop-control_1_2redlinestimulus13.png,TMT_Control,2,41,0,1,1,1,0,15,15,15,,,,,,,,,,,,,,,,,,,,,,,,,,,,,,,,,,,,,,,,,,,,,,,1,1,27.979936300005647,None,['1'],1,[0.024921699994592927],27.979936300005647,None,,001,2022_May_10_1109,TMT_fmri,2021.2.3,122.71384113973052,
TMTstop-Control_1_2.xlsx,26:52,17,['2'],2,TMTstop-control_1_2linestimulus14.png,TMTstop-control_1_2greenlinestimulus14.png,TMTstop-control_1_2redlinestimulus14.png,TMT_Control,2,42,0,1,1,1,0,16,16,16,,,,,,,,,,,,,,,,,,,,,,,,,,,,,,,,,,,,,,,,,,,,,,,1,1,28.121901999998954,None,['2'],1,[-0.007783699998981319],28.121901999998954,None,,001,2022_May_10_1109,TMT_fmri,2021.2.3,122.71384113973052,
TMTstop-Control_1_2.xlsx,26:52,18,['1'],1,TMTstop-control_1_2linestimulus15.png,TMTstop-control_1_2greenlinestimulus15.png,TMTstop-control_1_2redlinestimulus15.png,TMT_Control,2,43,0,1,1,1,0,17,17,17,,,,,,,,,,,,,,,,,,,,,,,,,,,,,,,,,,,,,,,,,,,,,,,2,0,28.24960409999767,None,"['3', '1']",1,"[-0.053488100005779415, 0.076522000003024]",28.24960409999767,None,,001,2022_May_10_1109,TMT_fmri,2021.2.3,122.71384113973052,
TMTstop-Control_1_2.xlsx,26:52,19,['2'],2,TMTstop-control_1_2linestimulus16.png,TMTstop-control_1_2greenlinestimulus16.png,TMTstop-control_1_2redlinestimulus16.png,TMT_Control,2,44,0,1,1,1,0,18,18,18,,,,,,,,,,,,,,,,,,,,,,,,,,,,,,,,,,,,,,,,,,,,,,,4,0,28.511903699996765,None,"['2', '3', '1', '2']",1,"[-0.10470880000502802, -0.019028599999728613, 0.11422740000125486, 0.22471520000544842]",28.511903699996765,None,,001,2022_May_10_1109,TMT_fmri,2021.2.3,122.71384113973052,
TMTstop-Control_1_2.xlsx,26:52,20,['3'],3,TMTstop-control_1_2linestimulus17.png,TMTstop-control_1_2greenlinestimulus17.png,TMTstop-control_1_2redlinestimulus17.png,TMT_Control,2,45,0,1,1,1,0,19,19,19,,,,,,,,,,,,,,,,,,,,,,,,,,,,,,,,,,,,,,,,,,,,,,,1,1,28.897484000000986,None,['3'],1,[-0.10161690000677481],28.897484000000986,None,,001,2022_May_10_1109,TMT_fmri,2021.2.3,122.71384113973052,
TMTstop-Control_1_2.xlsx,26:52,21,['1'],1,TMTstop-control_1_2linestimulus18.png,TMTstop-control_1_2greenlinestimulus18.png,TMTstop-control_1_2redlinestimulus18.png,TMT_Control,2,46,0,1,1,1,0,20,20,20,,,,,,,,,,,,,,,,,,,,,,,,,,,,,,,,,,,,,,,,,,,,,,,1,1,29.022938499998418,None,['1'],1,[-0.08972800000628922],29.022938499998418,None,,001,2022_May_10_1109,TMT_fmri,2021.2.3,122.71384113973052,
TMTstop-Control_1_2.xlsx,26:52,22,['3'],3,TMTstop-control_1_2linestimulus19.png,TMTstop-control_1_2greenlinestimulus19.png,TMTstop-control_1_2redlinestimulus19.png,TMT_Control,2,47,0,1,1,1,0,21,21,21,,,,,,,,,,,,,,,,,,,,,,,,,,,,,,,,,,,,,,,,,,,,,,,2,0,29.149701100002858,None,"['2', '3']",1,"[-0.1021385000058217, -0.0420427000062773]",29.149701100002858,None,,001,2022_May_10_1109,TMT_fmri,2021.2.3,122.71384113973052,
TMTstop-Control_1_2.xlsx,26:52,23,['2'],2,TMTstop-control_1_2linestimulus20.png,TMTstop-control_1_2greenlinestimulus20.png,TMTstop-control_1_2redlinestimulus20.png,TMT_Control,2,48,0,1,1,1,0,22,22,22,,,,,,,,,,,,,,,,,,,,,,,,,,,,,,,,,,,,,,,,,,,,,,,2,0,29.27738220000174,None,"['1', '2']",1,"[-0.03942889999598265, 0.02760359999956563]",29.27738220000174,None,,001,2022_May_10_1109,TMT_fmri,2021.2.3,122.71384113973052,
TMTstop-Control_1_2.xlsx,26:52,24,['3'],3,TMTstop-control_1_2linestimulus21.png,TMTstop-control_1_2greenlinestimulus21.png,TMTstop-control_1_2redlinestimulus21.png,TMT_Control,2,49,0,1,1,1,0,23,23,23,,,,,,,,,,,,,,,,,,,,,,,,,,,,,,,,,,,,,,,,,,,,,,,1,1,29.417629699993995,None,['3'],1,[-0.020076200002222322],29.417629699993995,None,,001,2022_May_10_1109,TMT_fmri,2021.2.3,122.71384113973052,
TMTstop-Control_1_2.xlsx,26:52,25,['1'],1,TMTstop-control_1_2linestimulus22.png,TMTstop-control_1_2greenlinestimulus22.png,TMTstop-control_1_2redlinestimulus22.png,TMT_Control,2,50,0,1,1,1,0,24,24,24,,,,,,,,,,,,,,,,,,,,,,,,,,,,,,,,,,,,,,,,,,,,,,,1,1,29.54554680000001,None,['1'],1,[-0.020753299992065877],29.54554680000001,None,,001,2022_May_10_1109,TMT_fmri,2021.2.3,122.71384113973052,
TMTstop-Control_1_2.xlsx,26:52,None,None,None,TMTstop-control_1_2linestimulus23.png,TMTstop-control_1_2greenlinestimulus23.png,TMTstop-control_1_2redlinestimulus23.png,TMT_Control,2,Feedback_last,0,1,1,1,0,25,25,25,,,,,,,,,,,,,,,,,,,,,,,,,,,,,,,,,,,,,,,,,,,,,,,4,0,29.673074599995743,None,"['2', '3', '1', '2']",0,"[-0.07877940000616945, 0.019102699996437877, 0.1349828999955207, 0.20517849999305326]",29.673074599995743,None,,001,2022_May_10_1109,TMT_fmri,2021.2.3,122.71384113973052,
TMTstop-Control_1_3.xlsx,52:78,1,['2'],2,TMTstop-control_1_3.png,TMTstop-control_1_3.png,TMTstop-control_1_3.png,TMT_Control,3,51,0,2,2,2,0,0,0,0,,,,,,,,,,,,,,,,,,,,,,,,,,,,,,,,,,,,,,,,,,,,,,,2,0,33.860097299999325,None,"['1', '2']",1,"[0.35818099998869, 0.5039216000004672]",33.860097299999325,None,,001,2022_May_10_1109,TMT_fmri,2021.2.3,122.71384113973052,
TMTstop-Control_1_3.xlsx,52:78,2,['1'],1,TMTstop-control_1_3.png,TMTstop-control_1_3firstgreen.png,TMTstop-control_1_3firstred.png,TMT_Control,3,52,0,2,2,2,0,1,1,1,,,,,,,,,,,,,,,,,,,,,,,,,,,,,,,,,,,,,,,,,,,,,,,2,0,34.49529859999893,None,"['3', '1']",1,"[-0.0742889999964973, 0.0745530999993207]",34.49529859999893,None,,001,2022_May_10_1109,TMT_fmri,2021.2.3,122.71384113973052,
TMTstop-Control_1_3.xlsx,52:78,3,['2'],2,TMTstop-control_1_3linestimulus0.png,TMTstop-control_1_3greenlinestimulus0.png,TMTstop-control_1_3redlinestimulus0.png,TMT_Control,3,53,0,2,2,2,0,2,2,2,,,,,,,,,,,,,,,,,,,,,,,,,,,,,,,,,,,,,,,,,,,,,,,4,0,34.752519899993786,None,"['2', '3', '1', '2']",1,"[-0.11172699999588076, -0.026236699995934032, 0.09223520000523422, 0.14616449999448378]",34.752519899993786,None,,001,2022_May_10_1109,TMT_fmri,2021.2.3,122.71384113973052,
TMTstop-Control_1_3.xlsx,52:78,4,['1'],1,TMTstop-control_1_3linestimulus1.png,TMTstop-control_1_3greenlinestimulus1.png,TMTstop-control_1_3redlinestimulus1.png,TMT_Control,3,54,0,2,2,2,0,3,3,3,,,,,,,,,,,,,,,,,,,,,,,,,,,,,,,,,,,,,,,,,,,,,,,5,0,35.036879999999655,None,"['3', '1', '2', '3', '1']",1,"[-0.04151789999741595, 0.06663600000320002, 0.11597210000036284, 0.21645269999862649, 0.35760380000283476]",35.036879999999655,None,,001,2022_May_10_1109,TMT_fmri,2021.2.3,122.71384113973052,
TMTstop-Control_1_3.xlsx,52:78,5,['3'],3,TMTstop-control_1_3linestimulus2.png,TMTstop-control_1_3greenlinestimulus2.png,TMTstop-control_1_3redlinestimulus2.png,TMT_Control,3,55,0,2,2,2,0,4,4,4,,,,,,,,,,,,,,,,,,,,,,,,,,,,,,,,,,,,,,,,,,,,,,,3,0,35.5389972999983,None,"['1', '2', '3']",1,"[0.10161280000465922, 0.2440807999955723, 0.24806650000391528]",35.5389972999983,None,,001,2022_May_10_1109,TMT_fmri,2021.2.3,122.71384113973052,
TMTstop-Control_1_3.xlsx,52:78,6,['1'],1,TMTstop-control_1_3linestimulus3.png,TMTstop-control_1_3greenlinestimulus3.png,TMTstop-control_1_3redlinestimulus3.png,TMT_Control,3,56,0,2,2,2,0,5,5,5,,,,,,,,,,,,,,,,,,,,,,,,,,,,,,,,,,,,,,,,,,,,,,,1,1,35.932998999996926,None,['1'],1,[-0.012967699993168935],35.932998999996926,None,,001,2022_May_10_1109,TMT_fmri,2021.2.3,122.71384113973052,
TMTstop-Control_1_3.xlsx,52:78,7,['2'],2,TMTstop-control_1_3linestimulus4.png,TMTstop-control_1_3greenlinestimulus4.png,TMTstop-control_1_3redlinestimulus4.png,TMT_Control,3,57,0,2,2,2,0,6,6,6,,,,,,,,,,,,,,,,,,,,,,,,,,,,,,,,,,,,,,,,,,,,,,,1,1,36.073019899995415,None,['2'],1,[-0.08717089999117889],36.073019899995415,None,,001,2022_May_10_1109,TMT_fmri,2021.2.3,122.71384113973052,
TMTstop-Control_1_3.xlsx,52:78,8,['3'],3,TMTstop-control_1_3linestimulus4.png,TMTstop-control_1_3greenlinestimulus5.png,TMTstop-control_1_3redlinestimulus5.png,TMT_Control,3,58,0,2,2,2,0,7,7,7,,,,,,,,,,,,,,,,,,,,,,,,,,,,,,,,,,,,,,,,,,,,,,,1,1,36.19957399999839,None,['3'],1,[-0.1097728000022471],36.19957399999839,None,,001,2022_May_10_1109,TMT_fmri,2021.2.3,122.71384113973052,
TMTstop-Control_1_3.xlsx,52:78,9,['1'],1,TMTstop-control_1_3linestimulus6.png,TMTstop-control_1_3greenlinestimulus6.png,TMTstop-control_1_3redlinestimulus6.png,TMT_Control,3,59,0,2,2,2,0,8,8,8,,,,,,,,,,,,,,,,,,,,,,,,,,,,,,,,,,,,,,,,,,,,,,,7,0,36.32472190000408,None,"['1', '2', '3', '1', '2', '3', '1']",1,"[-0.11110519999056123, -0.02725579999969341, 0.05586020000919234, 0.17420589999528602, 0.23850340000353754, 0.32903340000484604, 0.472003400005633]",36.32472190000408,None,,001,2022_May_10_1109,TMT_fmri,2021.2.3,122.71384113973052,
TMTstop-Control_1_3.xlsx,52:78,10,['2'],2,TMTstop-control_1_3linestimulus7.png,TMTstop-control_1_3greenlinestimulus7.png,TMTstop-control_1_3redlinestimulus7.png,TMT_Control,3,60,0,2,2,2,0,9,9,9,,,,,,,,,,,,,,,,,,,,,,,,,,,,,,,,,,,,,,,,,,,,,,,1,1,36.89999900000112,None,['2'],1,[-0.00608200000715442],36.89999900000112,None,,001,2022_May_10_1109,TMT_fmri,2021.2.3,122.71384113973052,
TMTstop-Control_1_3.xlsx,52:78,11,['1'],1,TMTstop-control_1_3linestimulus8.png,TMTstop-control_1_3greenlinestimulus8.png,TMTstop-control_1_3redlinestimulus8.png,TMT_Control,3,61,0,2,2,2,0,10,10,10,,,,,,,,,,,,,,,,,,,,,,,,,,,,,,,,,,,,,,,,,,,,,,,5,0,37.02746840000327,None,"['3', '1', '2', '3', '1']",1,"[-0.05895120000059251, 0.07248550000076648, 0.09947889999602921, 0.216663500003051, 0.3329232999967644]",37.02746840000327,None,,001,2022_May_10_1109,TMT_fmri,2021.2.3,122.71384113973052,
TMTstop-Control_1_3.xlsx,52:78,12,['2'],2,TMTstop-control_1_3linestimulus9.png,TMTstop-control_1_3greenlinestimulus9.png,TMTstop-control_1_3redlinestimulus9.png,TMT_Control,3,62,0,2,2,2,0,11,11,11,,,,,,,,,,,,,,,,,,,,,,,,,,,,,,,,,,,,,,,,,,,,,,,4,0,37.53515009999683,None,"['2', '3', '1', '2']",1,"[-0.10898240000824444, -0.017232600002898835, 0.14963399998669047, 0.17865059999166988]",37.53515009999683,None,,001,2022_May_10_1109,TMT_fmri,2021.2.3,122.71384113973052,
TMTstop-Control_1_3.xlsx,52:78,13,['3'],3,TMTstop-control_1_3linestimulus10.png,TMTstop-control_1_3greenlinestimulus10.png,TMTstop-control_1_3redlinestimulus10.png,TMT_Control,3,63,0,2,2,2,0,12,12,12,,,,,,,,,,,,,,,,,,,,,,,,,,,,,,,,,,,,,,,,,,,,,,,1,1,37.92981339999824,None,['3'],1,[-0.09035790000052657],37.92981339999824,None,,001,2022_May_10_1109,TMT_fmri,2021.2.3,122.71384113973052,
TMTstop-Control_1_3.xlsx,52:78,14,['2'],2,TMTstop-control_1_3linestimulus11.png,TMTstop-control_1_3greenlinestimulus11.png,TMTstop-control_1_3redlinestimulus11.png,TMT_Control,3,64,0,2,2,2,0,13,13,13,,,,,,,,,,,,,,,,,,,,,,,,,,,,,,,,,,,,,,,,,,,,,,,2,0,38.05730909999693,None,"['1', '2']",1,"[-0.10880299999553245, -0.04103279999981169]",38.05730909999693,None,,001,2022_May_10_1109,TMT_fmri,2021.2.3,122.71384113973052,
TMTstop-Control_1_3.xlsx,52:78,15,['1'],1,TMTstop-control_1_3linestimulus12.png,TMTstop-control_1_3greenlinestimulus12.png,TMTstop-control_1_3redlinestimulus12.png,TMT_Control,3,65,0,2,2,2,0,14,14,14,,,,,,,,,,,,,,,,,,,,,,,,,,,,,,,,,,,,,,,,,,,,,,,2,0,38.1843979999976,None,"['3', '1']",1,"[-0.021060899991425686, 0.1001760000071954]",38.1843979999976,None,,001,2022_May_10_1109,TMT_fmri,2021.2.3,122.71384113973052,
TMTstop-Control_1_3.xlsx,52:78,16,['3'],3,TMTstop-control_1_3linestimulus13.png,TMTstop-control_1_3greenlinestimulus13.png,TMTstop-control_1_3redlinestimulus13.png,TMT_Control,3,66,0,2,2,2,0,15,15,15,,,,,,,,,,,,,,,,,,,,,,,,,,,,,,,,,,,,,,,,,,,,,,,2,0,38.449571999997715,None,"['2', '3']",1,"[-0.10947219999798108, 0.016541000004508533]",38.449571999997715,None,,001,2022_May_10_1109,TMT_fmri,2021.2.3,122.71384113973052,
TMTstop-Control_1_3.xlsx,52:78,17,['1'],1,TMTstop-control_1_3linestimulus14.png,TMTstop-control_1_3greenlinestimulus14.png,TMTstop-control_1_3redlinestimulus14.png,TMT_Control,3,67,0,2,2,2,0,16,16,16,,,,,,,,,,,,,,,,,,,,,,,,,,,,,,,,,,,,,,,,,,,,,,,1,1,38.576582099994994,None,['1'],1,[-0.017915300006279722],38.576582099994994,None,,001,2022_May_10_1109,TMT_fmri,2021.2.3,122.71384113973052,
TMTstop-Control_1_3.xlsx,52:78,18,['3'],3,TMTstop-control_1_3linestimulus15.png,TMTstop-control_1_3greenlinestimulus15.png,TMTstop-control_1_3redlinestimulus15.png,TMT_Control,3,68,0,2,2,2,0,17,17,17,,,,,,,,,,,,,,,,,,,,,,,,,,,,,,,,,,,,,,,,,,,,,,,2,0,38.70507510000607,None,"['2', '3']",1,"[-0.05056020000483841, 0.04037149999930989]",38.70507510000607,None,,001,2022_May_10_1109,TMT_fmri,2021.2.3,122.71384113973052,
TMTstop-Control_1_3.xlsx,52:78,19,['2'],2,TMTstop-control_1_3linestimulus16.png,TMTstop-control_1_3greenlinestimulus16.png,TMTstop-control_1_3redlinestimulus16.png,TMT_Control,3,69,0,2,2,2,0,18,18,18,,,,,,,,,,,,,,,,,,,,,,,,,,,,,,,,,,,,,,,,,,,,,,,2,0,38.82899680000264,None,"['1', '2']",1,"[0.023239900008775294, 0.10861599999770988]",38.82899680000264,None,,001,2022_May_10_1109,TMT_fmri,2021.2.3,122.71384113973052,
TMTstop-Control_1_3.xlsx,52:78,20,['1'],1,TMTstop-control_1_3linestimulus17.png,TMTstop-control_1_3greenlinestimulus17.png,TMTstop-control_1_3redlinestimulus17.png,TMT_Control,3,70,0,2,2,2,0,19,19,19,,,,,,,,,,,,,,,,,,,,,,,,,,,,,,,,,,,,,,,,,,,,,,,5,0,39.08086220000405,None,"['3', '1', '2', '3', '1']",1,"[-0.06399680000322405, 0.07265349999943282, 0.12346590000379365, 0.2325466000038432, 0.35634879999270197]",39.08086220000405,None,,001,2022_May_10_1109,TMT_fmri,2021.2.3,122.71384113973052,
TMTstop-Control_1_3.xlsx,52:78,21,['3'],3,TMTstop-control_1_3linestimulus18.png,TMTstop-control_1_3greenlinestimulus18.png,TMTstop-control_1_3redlinestimulus18.png,TMT_Control,3,71,0,2,2,2,0,20,20,20,,,,,,,,,,,,,,,,,,,,,,,,,,,,,,,,,,,,,,,,,,,,,,,2,0,39.62062159999914,None,"['2', '3']",1,"[-0.09909290001087356, 0.001412999990861863]",39.62062159999914,None,,001,2022_May_10_1109,TMT_fmri,2021.2.3,122.71384113973052,
TMTstop-Control_1_3.xlsx,52:78,22,['2'],2,TMTstop-control_1_3linestimulus19.png,TMTstop-control_1_3greenlinestimulus19.png,TMTstop-control_1_3redlinestimulus19.png,TMT_Control,3,72,0,2,2,2,0,21,21,21,,,,,,,,,,,,,,,,,,,,,,,,,,,,,,,,,,,,,,,,,,,,,,,2,0,39.74949580000248,None,"['1', '2']",1,"[0.02827840000099968, 0.09419989999150857]",39.74949580000248,None,,001,2022_May_10_1109,TMT_fmri,2021.2.3,122.71384113973052,
TMTstop-Control_1_3.xlsx,52:78,23,['3'],3,TMTstop-control_1_3linestimulus20.png,TMTstop-control_1_3greenlinestimulus20.png,TMTstop-control_1_3redlinestimulus20.png,TMT_Control,3,73,0,2,2,2,0,22,22,22,,,,,,,,,,,,,,,,,,,,,,,,,,,,,,,,,,,,,,,,,,,,,,,1,1,40.01424550000229,None,['3'],1,[-0.08128160001069773],40.01424550000229,None,,001,2022_May_10_1109,TMT_fmri,2021.2.3,122.71384113973052,
TMTstop-Control_1_3.xlsx,52:78,24,['1'],1,TMTstop-control_1_3linestimulus21.png,TMTstop-control_1_3greenlinestimulus21.png,TMTstop-control_1_3redlinestimulus21.png,TMT_Control,3,74,0,2,2,2,0,23,23,23,,,,,,,,,,,,,,,,,,,,,,,,,,,,,,,,,,,,,,,,,,,,,,,11,0,40.15571940000518,None,"['1', '2', '3', '1', '2', '3', '1', '2', '3', '2', '1']",1,"[-0.07534229999873787, -0.03744790000200737, 0.09565620000648778, 0.2326041000051191, 0.2766020999988541, 0.40188380000472534, 0.5606669999979204, 0.5744259000057355, 0.7397177999955602, 0.9591292999975849, 1.0322238999942783]",40.15571940000518,None,,001,2022_May_10_1109,TMT_fmri,2021.2.3,122.71384113973052,
TMTstop-Control_1_3.xlsx,52:78,25,['2'],2,TMTstop-control_1_3linestimulus22.png,TMTstop-control_1_3greenlinestimulus22.png,TMTstop-control_1_3redlinestimulus22.png,TMT_Control,3,75,0,2,2,2,0,24,24,24,,,,,,,,,,,,,,,,,,,,,,,,,,,,,,,,,,,,,,,,,,,,,,,2,0,41.32852840000123,None,"['3', '2']",1,"[-0.03028200000699144, 0.25110409999615513]",41.32852840000123,None,,001,2022_May_10_1109,TMT_fmri,2021.2.3,122.71384113973052,
TMTstop-Control_1_3.xlsx,52:78,None,None,None,TMTstop-control_1_3linestimulus23.png,TMTstop-control_1_3greenlinestimulus23.png,TMTstop-control_1_3redlinestimulus23.png,TMT_Control,3,Feedback_last,0,2,2,2,0,25,25,25,,,,,,,,,,,,,,,,,,,,,,,,,,,,,,,,,,,,,,,,,,,,,,,1,1,41.718910499999765,None,['3'],0,[-0.026054500005557202],41.718910499999765,None,,001,2022_May_10_1109,TMT_fmri,2021.2.3,122.71384113973052,
TMTstop-Control_1_4.xlsx,78:104,1,['2'],2,TMTstop-control_1_4.png,TMTstop-control_1_4.png,TMTstop-control_1_4.png,TMT_Control,4,76,0,3,3,3,0,0,0,0,,,,,,,,,,,,,,,,,,,,,,,,,,,,,,,,,,,,,,,,,,,,,,,5,0,45.8254930999974,None,"['1', '2', '3', '1', '2']",1,"[0.6066414999950211, 0.72680049999326, 0.819014499997138, 0.9909106999984942, 1.0112761000054888]",45.8254930999974,None,,001,2022_May_10_1109,TMT_fmri,2021.2.3,122.71384113973052,
TMTstop-Control_1_4.xlsx,78:104,2,['1'],1,TMTstop-control_1_4.png,TMTstop-control_1_4firstgreen.png,TMTstop-control_1_4firstred.png,TMT_Control,4,77,0,3,3,3,0,1,1,1,,,,,,,,,,,,,,,,,,,,,,,,,,,,,,,,,,,,,,,,,,,,,,,2,0,47.03845989999536,None,"['3', '1']",1,"[-0.0531982000102289, 0.06601840000075754]",47.03845989999536,None,,001,2022_May_10_1109,TMT_fmri,2021.2.3,122.71384113973052,
TMTstop-Control_1_4.xlsx,78:104,3,['3'],3,TMTstop-control_1_4linestimulus0.png,TMTstop-control_1_4greenlinestimulus0.png,TMTstop-control_1_4redlinestimulus0.png,TMT_Control,4,78,0,3,3,3,0,2,2,2,,,,,,,,,,,,,,,,,,,,,,,,,,,,,,,,,,,,,,,,,,,,,,,2,0,47.30388760000642,None,"['2', '3']",1,"[-0.09813159999612253, 0.0020790999988093972]",47.30388760000642,None,,001,2022_May_10_1109,TMT_fmri,2021.2.3,122.71384113973052,
TMTstop-Control_1_4.xlsx,78:104,4,['1'],1,TMTstop-control_1_4linestimulus1.png,TMTstop-control_1_4greenlinestimulus1.png,TMTstop-control_1_4redlinestimulus1.png,TMT_Control,4,79,0,3,3,3,0,3,3,3,,,,,,,,,,,,,,,,,,,,,,,,,,,,,,,,,,,,,,,,,,,,,,,1,1,47.44555879999825,None,['1'],1,[-0.01800830000138376],47.44555879999825,None,,001,2022_May_10_1109,TMT_fmri,2021.2.3,122.71384113973052,
TMTstop-Control_1_4.xlsx,78:104,5,['3'],3,TMTstop-control_1_4linestimulus2.png,TMTstop-control_1_4greenlinestimulus2.png,TMTstop-control_1_4redlinestimulus2.png,TMT_Control,4,80,0,3,3,3,0,4,4,4,,,,,,,,,,,,,,,,,,,,,,,,,,,,,,,,,,,,,,,,,,,,,,,2,0,47.582433400006266,None,"['2', '3']",1,"[-0.10577509998984169, 0.012656900013098493]",47.582433400006266,None,,001,2022_May_10_1109,TMT_fmri,2021.2.3,122.71384113973052,
TMTstop-Control_1_4.xlsx,78:104,6,['1'],1,TMTstop-control_1_4linestimulus3.png,TMTstop-control_1_4greenlinestimulus3.png,TMTstop-control_1_4redlinestimulus3.png,TMT_Control,4,81,0,3,3,3,0,5,5,5,,,,,,,,,,,,,,,,,,,,,,,,,,,,,,,,,,,,,,,,,,,,,,,1,1,47.70805210000253,None,['1'],1,[0.015591999996104278],47.70805210000253,None,,001,2022_May_10_1109,TMT_fmri,2021.2.3,122.71384113973052,
TMTstop-Control_1_4.xlsx,78:104,7,['3'],3,TMTstop-control_1_4linestimulus4.png,TMTstop-control_1_4greenlinestimulus4.png,TMTstop-control_1_4redlinestimulus4.png,TMT_Control,4,82,0,3,3,3,0,6,6,6,,,,,,,,,,,,,,,,,,,,,,,,,,,,,,,,,,,,,,,,,,,,,,,2,0,47.833436300003086,None,"['2', '3']",1,"[-0.0530566999950679, 0.05949510000937153]",47.833436300003086,None,,001,2022_May_10_1109,TMT_fmri,2021.2.3,122.71384113973052,
TMTstop-Control_1_4.xlsx,78:104,8,['1'],1,TMTstop-control_1_4linestimulus4.png,TMTstop-control_1_4greenlinestimulus5.png,TMTstop-control_1_4redlinestimulus5.png,TMT_Control,4,83,0,3,3,3,0,7,7,7,,,,,,,,,,,,,,,,,,,,,,,,,,,,,,,,,,,,,,,,,,,,,,,1,1,48.087957600000664,None,['1'],1,[-0.04720640000596177],48.087957600000664,None,,001,2022_May_10_1109,TMT_fmri,2021.2.3,122.71384113973052,
TMTstop-Control_1_4.xlsx,78:104,9,['3'],3,TMTstop-control_1_4linestimulus6.png,TMTstop-control_1_4greenlinestimulus6.png,TMTstop-control_1_4redlinestimulus6.png,TMT_Control,4,84,0,3,3,3,0,8,8,8,,,,,,,,,,,,,,,,,,,,,,,,,,,,,,,,,,,,,,,,,,,,,,,2,0,48.21620700000494,None,"['2', '3']",1,"[-0.09718339999380987, 0.018573000008473173]",48.21620700000494,None,,001,2022_May_10_1109,TMT_fmri,2021.2.3,122.71384113973052,
TMTstop-Control_1_4.xlsx,78:104,10,['2'],2,TMTstop-control_1_4linestimulus7.png,TMTstop-control_1_4greenlinestimulus7.png,TMTstop-control_1_4redlinestimulus7.png,TMT_Control,4,85,0,3,3,3,0,9,9,9,,,,,,,,,,,,,,,,,,,,,,,,,,,,,,,,,,,,,,,,,,,,,,,2,0,48.34407859999919,None,"['1', '2']",1,"[0.027690399991115555, 0.15901509999821428]",48.34407859999919,None,,001,2022_May_10_1109,TMT_fmri,2021.2.3,122.71384113973052,
TMTstop-Control_1_4.xlsx,78:104,11,['1'],1,TMTstop-control_1_4linestimulus8.png,TMTstop-control_1_4greenlinestimulus8.png,TMTstop-control_1_4redlinestimulus8.png,TMT_Control,4,86,0,3,3,3,0,10,10,10,,,,,,,,,,,,,,,,,,,,,,,,,,,,,,,,,,,,,,,,,,,,,,,1,1,48.65862170000037,None,['1'],1,[0.004625199988367967],48.65862170000037,None,,001,2022_May_10_1109,TMT_fmri,2021.2.3,122.71384113973052,
TMTstop-Control_1_4.xlsx,78:104,12,['3'],3,TMTstop-control_1_4linestimulus9.png,TMTstop-control_1_4greenlinestimulus9.png,TMTstop-control_1_4redlinestimulus9.png,TMT_Control,4,87,0,3,3,3,0,11,11,11,,,,,,,,,,,,,,,,,,,,,,,,,,,,,,,,,,,,,,,,,,,,,,,1,1,48.78641060000518,None,['3'],1,[0.09102170000551268],48.78641060000518,None,,001,2022_May_10_1109,TMT_fmri,2021.2.3,122.71384113973052,
TMTstop-Control_1_4.xlsx,78:104,13,['2'],2,TMTstop-control_1_4linestimulus10.png,TMTstop-control_1_4greenlinestimulus10.png,TMTstop-control_1_4redlinestimulus10.png,TMT_Control,4,88,0,3,3,3,0,12,12,12,,,,,,,,,,,,,,,,,,,,,,,,,,,,,,,,,,,,,,,,,,,,,,,2,0,49.05260330000601,None,"['1', '2']",1,"[-0.033961399996769615, 0.0651545000000624]",49.05260330000601,None,,001,2022_May_10_1109,TMT_fmri,2021.2.3,122.71384113973052,
TMTstop-Control_1_4.xlsx,78:104,14,['3'],3,TMTstop-control_1_4linestimulus11.png,TMTstop-control_1_4greenlinestimulus11.png,TMTstop-control_1_4redlinestimulus11.png,TMT_Control,4,89,0,3,3,3,0,13,13,13,,,,,,,,,,,,,,,,,,,,,,,,,,,,,,,,,,,,,,,,,,,,,,,1,1,49.24452550000569,None,['3'],1,[-0.04787410001154058],49.24452550000569,None,,001,2022_May_10_1109,TMT_fmri,2021.2.3,122.71384113973052,
TMTstop-Control_1_4.xlsx,78:104,15,['2'],2,TMTstop-control_1_4linestimulus12.png,TMTstop-control_1_4greenlinestimulus12.png,TMTstop-control_1_4redlinestimulus12.png,TMT_Control,4,90,0,3,3,3,0,14,14,14,,,,,,,,,,,,,,,,,,,,,,,,,,,,,,,,,,,,,,,,,,,,,,,2,0,49.37257190000673,None,"['1', '2']",1,"[-0.0238596000126563, 0.0690347999916412]",49.37257190000673,None,,001,2022_May_10_1109,TMT_fmri,2021.2.3,122.71384113973052,
TMTstop-Control_1_4.xlsx,78:104,16,['1'],1,TMTstop-control_1_4linestimulus13.png,TMTstop-control_1_4greenlinestimulus13.png,TMTstop-control_1_4redlinestimulus13.png,TMT_Control,4,91,0,3,3,3,0,15,15,15,,,,,,,,,,,,,,,,,,,,,,,,,,,,,,,,,,,,,,,,,,,,,,,2,0,49.638947900006315,None,"['3', '1']",1,"[-0.09991900000022724, 0.06554909999249503]",49.638947900006315,None,,001,2022_May_10_1109,TMT_fmri,2021.2.3,122.71384113973052,
TMTstop-Control_1_4.xlsx,78:104,17,['3'],3,TMTstop-control_1_4linestimulus14.png,TMTstop-control_1_4greenlinestimulus14.png,TMTstop-control_1_4redlinestimulus14.png,TMT_Control,4,92,0,3,3,3,0,16,16,16,,,,,,,,,,,,,,,,,,,,,,,,,,,,,,,,,,,,,,,,,,,,,,,2,0,49.84157140000025,None,"['2', '3']",1,"[-0.05709000000206288, 0.02922390001185704]",49.84157140000025,None,,001,2022_May_10_1109,TMT_fmri,2021.2.3,122.71384113973052,
TMTstop-Control_1_4.xlsx,78:104,18,['1'],1,TMTstop-control_1_4linestimulus15.png,TMTstop-control_1_4greenlinestimulus15.png,TMTstop-control_1_4redlinestimulus15.png,TMT_Control,4,93,0,3,3,3,0,17,17,17,,,,,,,,,,,,,,,,,,,,,,,,,,,,,,,,,,,,,,,,,,,,,,,1,1,49.98314090000349,None,['1'],1,[0.04330639999534469],49.98314090000349,None,,001,2022_May_10_1109,TMT_fmri,2021.2.3,122.71384113973052,
TMTstop-Control_1_4.xlsx,78:104,19,['2'],2,TMTstop-control_1_4linestimulus16.png,TMTstop-control_1_4greenlinestimulus16.png,TMTstop-control_1_4redlinestimulus16.png,TMT_Control,4,94,0,3,3,3,0,18,18,18,,,,,,,,,,,,,,,,,,,,,,,,,,,,,,,,,,,,,,,,,,,,,,,1,1,50.1244766000018,None,['2'],1,[-0.0017466999997850507],50.1244766000018,None,,001,2022_May_10_1109,TMT_fmri,2021.2.3,122.71384113973052,
TMTstop-Control_1_4.xlsx,78:104,20,['1'],1,TMTstop-control_1_4linestimulus17.png,TMTstop-control_1_4greenlinestimulus17.png,TMTstop-control_1_4redlinestimulus17.png,TMT_Control,4,95,0,3,3,3,0,19,19,19,,,,,,,,,,,,,,,,,,,,,,,,,,,,,,,,,,,,,,,,,,,,,,,2,0,50.251214500007336,None,"['3', '1']",1,"[-0.01745159999700263, 0.10216080000100192]",50.251214500007336,None,,001,2022_May_10_1109,TMT_fmri,2021.2.3,122.71384113973052,
TMTstop-Control_1_4.xlsx,78:104,21,['2'],2,TMTstop-control_1_4linestimulus18.png,TMTstop-control_1_4greenlinestimulus18.png,TMTstop-control_1_4redlinestimulus18.png,TMT_Control,4,96,0,3,3,3,0,20,20,20,,,,,,,,,,,,,,,,,,,,,,,,,,,,,,,,,,,,,,,,,,,,,,,2,0,50.51918370000203,None,"['1', '2']",1,"[0.16262669999559876, 0.2349363999965135]",50.51918370000203,None,,001,2022_May_10_1109,TMT_fmri,2021.2.3,122.71384113973052,
TMTstop-Control_1_4.xlsx,78:104,22,['1'],1,TMTstop-control_1_4linestimulus19.png,TMTstop-control_1_4greenlinestimulus19.png,TMTstop-control_1_4redlinestimulus19.png,TMT_Control,4,97,0,3,3,3,0,21,21,21,,,,,,,,,,,,,,,,,,,,,,,,,,,,,,,,,,,,,,,,,,,,,,,2,0,50.921412800002145,None,"['3', '1']",1,"[-0.0658399000094505, 0.047207600000547245]",50.921412800002145,None,,001,2022_May_10_1109,TMT_fmri,2021.2.3,122.71384113973052,
TMTstop-Control_1_4.xlsx,78:104,23,['2'],2,TMTstop-control_1_4linestimulus20.png,TMTstop-control_1_4greenlinestimulus20.png,TMTstop-control_1_4redlinestimulus20.png,TMT_Control,4,98,0,3,3,3,0,22,22,22,,,,,,,,,,,,,,,,,,,,,,,,,,,,,,,,,,,,,,,,,,,,,,,1,1,51.046501000004355,None,['2'],1,[0.02237389999208972],51.046501000004355,None,,001,2022_May_10_1109,TMT_fmri,2021.2.3,122.71384113973052,
TMTstop-Control_1_4.xlsx,78:104,24,['1'],1,TMTstop-control_1_4linestimulus21.png,TMTstop-control_1_4greenlinestimulus21.png,TMTstop-control_1_4redlinestimulus21.png,TMT_Control,4,99,0,3,3,3,0,23,23,23,,,,,,,,,,,,,,,,,,,,,,,,,,,,,,,,,,,,,,,,,,,,,,,2,0,51.18692779999401,None,"['3', '1']",1,"[-0.04220250000071246, 0.12238109999452718]",51.18692779999401,None,,001,2022_May_10_1109,TMT_fmri,2021.2.3,122.71384113973052,
TMTstop-Control_1_4.xlsx,78:104,25,['2'],2,TMTstop-control_1_4linestimulus22.png,TMTstop-control_1_4greenlinestimulus22.png,TMTstop-control_1_4redlinestimulus22.png,TMT_Control,4,100,0,3,3,3,0,24,24,24,,,,,,,,,,,,,,,,,,,,,,,,,,,,,,,,,,,,,,,,,,,,,,,1,1,51.45141940000758,None,['2'],1,[-0.04313639999600127],51.45141940000758,None,,001,2022_May_10_1109,TMT_fmri,2021.2.3,122.71384113973052,
TMTstop-Control_1_4.xlsx,78:104,None,None,None,TMTstop-control_1_4linestimulus23.png,TMTstop-control_1_4greenlinestimulus23.png,TMTstop-control_1_4redlinestimulus23.png,TMT_Control,4,Feedback_last,0,3,3,3,0,25,25,25,,,,,,,,,,,,,,,,,,,,,,,,,,,,,,,,,,,,,,,,,,,,,,,4,0,51.57832960000087,None,"['3', '1', '2', '3']",0,"[-0.09949040001083631, 0.00969029999396298, 0.07376689999364316, 0.22944079998706002]",51.57832960000087,None,,001,2022_May_10_1109,TMT_fmri,2021.2.3,122.71384113973052,
TMTstop-A_1_1.xlsx,0:26,1,['1'],1,TMTstop-A_1_1.png,TMTstop-A_1_1.png,TMTstop-A_1_1.png,TMT_A,1,1,,,,,,,,,0,0,0,0,0,0,0,0,,,,,,,,,,,,,,,,,,,,,,,,,,,,,,,,,,,,,,,1,1,65.76077740000619,None,['1'],1,[0.5189274999866029],65.76077740000619,None,,001,2022_May_10_1109,TMT_fmri,2021.2.3,122.71384113973052,
TMTstop-A_1_1.xlsx,0:26,2,['3'],3,TMTstop-A_1_1.png,TMTstop-A_1_1firstgreen.png,TMTstop-A_1_1firstred.png,TMT_A,1,2,,,,,,,,,0,0,0,0,0,1,1,1,,,,,,,,,,,,,,,,,,,,,,,,,,,,,,,,,,,,,,,2,0,66.44969910000509,None,"['2', '3']",1,"[-0.08017549999931362, 0.035397700004978105]",66.44969910000509,None,,001,2022_May_10_1109,TMT_fmri,2021.2.3,122.71384113973052,
TMTstop-A_1_1.xlsx,0:26,3,['1'],1,TMTstop-A_1_1linestimulus0.png,TMTstop-A_1_1greenlinestimulus0.png,TMTstop-A_1_1redlinestimulus0.png,TMT_A,1,3,,,,,,,,,0,0,0,0,0,2,2,2,,,,,,,,,,,,,,,,,,,,,,,,,,,,,,,,,,,,,,,1,1,66.59140010000556,None,['1'],1,[0.054592000000411645],66.59140010000556,None,,001,2022_May_10_1109,TMT_fmri,2021.2.3,122.71384113973052,
TMTstop-A_1_1.xlsx,0:26,4,['3'],3,TMTstop-A_1_1linestimulus1.png,TMTstop-A_1_1greenlinestimulus1.png,TMTstop-A_1_1redlinestimulus1.png,TMT_A,1,4,,,,,,,,,0,0,0,0,0,3,3,3,,,,,,,,,,,,,,,,,,,,,,,,,,,,,,,,,,,,,,,2,0,66.73371770000085,None,"['2', '3']",1,"[-0.026907999999821186, 0.10779140000522602]",66.73371770000085,None,,001,2022_May_10_1109,TMT_fmri,2021.2.3,122.71384113973052,
TMTstop-A_1_1.xlsx,0:26,5,['1'],1,TMTstop-A_1_1linestimulus2.png,TMTstop-A_1_1greenlinestimulus2.png,TMTstop-A_1_1redlinestimulus2.png,TMT_A,1,5,,,,,,,,,0,0,0,0,0,4,4,4,,,,,,,,,,,,,,,,,,,,,,,,,,,,,,,,,,,,,,,1,1,67.01650420000078,None,['1'],1,[-0.054666600000928156],67.01650420000078,None,,001,2022_May_10_1109,TMT_fmri,2021.2.3,122.71384113973052,
TMTstop-A_1_1.xlsx,0:26,6,['3'],3,TMTstop-A_1_1linestimulus3.png,TMTstop-A_1_1greenlinestimulus3.png,TMTstop-A_1_1redlinestimulus3.png,TMT_A,1,6,,,,,,,,,0,0,0,0,0,5,5,5,,,,,,,,,,,,,,,,,,,,,,,,,,,,,,,,,,,,,,,2,0,67.14221600000747,None,"['2', '3']",1,"[-0.10239189999992959, 0.004281000001356006]",67.14221600000747,None,,001,2022_May_10_1109,TMT_fmri,2021.2.3,122.71384113973052,
TMTstop-A_1_1.xlsx,0:26,7,['1'],1,TMTstop-A_1_1linestimulus4.png,TMTstop-A_1_1greenlinestimulus4.png,TMTstop-A_1_1redlinestimulus4.png,TMT_A,1,7,,,,,,,,,0,0,0,0,0,6,6,6,,,,,,,,,,,,,,,,,,,,,,,,,,,,,,,,,,,,,,,1,1,67.26782700000331,None,['1'],1,[0.017231900012120605],67.26782700000331,None,,001,2022_May_10_1109,TMT_fmri,2021.2.3,122.71384113973052,
TMTstop-A_1_1.xlsx,0:26,8,['2'],2,TMTstop-A_1_1linestimulus5.png,TMTstop-A_1_1greenlinestimulus5.png,TMTstop-A_1_1redlinestimulus5.png,TMT_A,1,8,,,,,,,,,0,0,0,0,0,7,7,7,,,,,,,,,,,,,,,,,,,,,,,,,,,,,,,,,,,,,,,1,1,67.40031369999633,None,['2'],1,[-0.0573448999930406],67.40031369999633,None,,001,2022_May_10_1109,TMT_fmri,2021.2.3,122.71384113973052,
TMTstop-A_1_1.xlsx,0:26,9,['3'],3,TMTstop-A_1_1linestimulus6.png,TMTstop-A_1_1greenlinestimulus6.png,TMTstop-A_1_1redlinestimulus6.png,TMT_A,1,9,,,,,,,,,0,0,0,0,0,8,8,8,,,,,,,,,,,,,,,,,,,,,,,,,,,,,,,,,,,,,,,1,1,67.53470069999457,None,['3'],1,[-0.08117229999334086],67.53470069999457,None,,001,2022_May_10_1109,TMT_fmri,2021.2.3,122.71384113973052,
TMTstop-A_1_1.xlsx,0:26,10,['1'],1,TMTstop-A_1_1linestimulus7.png,TMTstop-A_1_1greenlinestimulus7.png,TMTstop-A_1_1redlinestimulus7.png,TMT_A,1,10,,,,,,,,,0,0,0,0,0,9,9,9,,,,,,,,,,,,,,,,,,,,,,,,,,,,,,,,,,,,,,,1,1,67.6605375000072,None,['1'],1,[-0.06430029998591635],67.6605375000072,None,,001,2022_May_10_1109,TMT_fmri,2021.2.3,122.71384113973052,
TMTstop-A_1_1.xlsx,0:26,11,['3'],3,TMTstop-A_1_1linestimulus8.png,TMTstop-A_1_1greenlinestimulus8.png,TMTstop-A_1_1redlinestimulus8.png,TMT_A,1,11,,,,,,,,,0,0,0,0,0,10,10,10,,,,,,,,,,,,,,,,,,,,,,,,,,,,,,,,,,,,,,,2,0,67.78725959999429,None,"['2', '3']",1,"[-0.09713340000598691, -0.00657389999832958]",67.78725959999429,None,,001,2022_May_10_1109,TMT_fmri,2021.2.3,122.71384113973052,
TMTstop-A_1_1.xlsx,0:26,12,['2'],2,TMTstop-A_1_1linestimulus9.png,TMTstop-A_1_1greenlinestimulus9.png,TMTstop-A_1_1redlinestimulus9.png,TMT_A,1,12,,,,,,,,,0,0,0,0,0,11,11,11,,,,,,,,,,,,,,,,,,,,,,,,,,,,,,,,,,,,,,,2,0,67.9110204000026,None,"['1', '2']",1,"[0.059558300010394305, 0.10514290000719484]",67.9110204000026,None,,001,2022_May_10_1109,TMT_fmri,2021.2.3,122.71384113973052,
TMTstop-A_1_1.xlsx,0:26,13,['1'],1,TMTstop-A_1_1linestimulus10.png,TMTstop-A_1_1greenlinestimulus10.png,TMTstop-A_1_1redlinestimulus10.png,TMT_A,1,13,,,,,,,,,0,0,0,0,0,12,12,12,,,,,,,,,,,,,,,,,,,,,,,,,,,,,,,,,,,,,,,2,0,68.1791310999979,None,"['3', '1']",1,"[-0.048957499995594844, 0.09923000000708271]",68.1791310999979,None,,001,2022_May_10_1109,TMT_fmri,2021.2.3,122.71384113973052,
TMTstop-A_1_1.xlsx,0:26,14,['2'],2,TMTstop-A_1_1linestimulus11.png,TMTstop-A_1_1greenlinestimulus11.png,TMTstop-A_1_1redlinestimulus11.png,TMT_A,1,14,,,,,,,,,0,0,0,0,0,13,13,13,,,,,,,,,,,,,,,,,,,,,,,,,,,,,,,,,,,,,,,4,0,68.45643279999786,None,"['2', '3', '1', '2']",1,"[-0.10798429998976644, -0.007101499999407679, 0.12508189999789465, 0.18917220000003]",68.45643279999786,None,,001,2022_May_10_1109,TMT_fmri,2021.2.3,122.71384113973052,
TMTstop-A_1_1.xlsx,0:26,15,['1'],1,TMTstop-A_1_1linestimulus12.png,TMTstop-A_1_1greenlinestimulus12.png,TMTstop-A_1_1redlinestimulus12.png,TMT_A,1,15,,,,,,,,,0,0,0,0,0,14,14,14,,,,,,,,,,,,,,,,,,,,,,,,,,,,,,,,,,,,,,,2,0,68.84699570000521,None,"['3', '1']",1,"[-0.10241130000213161, 0.029027700002188794]",68.84699570000521,None,,001,2022_May_10_1109,TMT_fmri,2021.2.3,122.71384113973052,
TMTstop-A_1_1.xlsx,0:26,16,['2'],2,TMTstop-A_1_1linestimulus13.png,TMTstop-A_1_1greenlinestimulus13.png,TMTstop-A_1_1redlinestimulus13.png,TMT_A,1,16,,,,,,,,,0,0,0,0,0,15,15,15,,,,,,,,,,,,,,,,,,,,,,,,,,,,,,,,,,,,,,,1,1,68.97479930000554,None,['2'],1,[-0.02620290000049863],68.97479930000554,None,,001,2022_May_10_1109,TMT_fmri,2021.2.3,122.71384113973052,
TMTstop-A_1_1.xlsx,0:26,17,['1'],1,TMTstop-A_1_1linestimulus14.png,TMTstop-A_1_1greenlinestimulus14.png,TMTstop-A_1_1redlinestimulus14.png,TMT_A,1,17,,,,,,,,,0,0,0,0,0,16,16,16,,,,,,,,,,,,,,,,,,,,,,,,,,,,,,,,,,,,,,,2,0,69.1146127999964,None,"['3', '1']",1,"[-0.07393230000161566, 0.047890399990137666]",69.1146127999964,None,,001,2022_May_10_1109,TMT_fmri,2021.2.3,122.71384113973052,
TMTstop-A_1_1.xlsx,0:26,18,['3'],3,TMTstop-A_1_1linestimulus15.png,TMTstop-A_1_1greenlinestimulus15.png,TMTstop-A_1_1redlinestimulus15.png,TMT_A,1,18,,,,,,,,,0,0,0,0,0,17,17,17,,,,,,,,,,,,,,,,,,,,,,,,,,,,,,,,,,,,,,,3,0,69.24200529999507,None,"['1', '2', '3']",1,"[0.1779954999947222, 0.26172809999843594, 0.37660909999976866]",69.24200529999507,None,,001,2022_May_10_1109,TMT_fmri,2021.2.3,122.71384113973052,
TMTstop-A_1_1.xlsx,0:26,19,['2'],2,TMTstop-A_1_1linestimulus16.png,TMTstop-A_1_1greenlinestimulus16.png,TMTstop-A_1_1redlinestimulus16.png,TMT_A,1,19,,,,,,,,,0,0,0,0,0,18,18,18,,,,,,,,,,,,,,,,,,,,,,,,,,,,,,,,,,,,,,,2,0,69.77223050000612,None,"['1', '2']",1,"[-0.011507100003655069, 0.07173949999560136]",69.77223050000612,None,,001,2022_May_10_1109,TMT_fmri,2021.2.3,122.71384113973052,
TMTstop-A_1_1.xlsx,0:26,20,['3'],3,TMTstop-A_1_1linestimulus17.png,TMTstop-A_1_1greenlinestimulus17.png,TMTstop-A_1_1redlinestimulus17.png,TMT_A,1,20,,,,,,,,,0,0,0,0,0,19,19,19,,,,,,,,,,,,,,,,,,,,,,,,,,,,,,,,,,,,,,,1,1,69.97593329999654,None,['3'],1,[-0.03808240000216756],69.97593329999654,None,,001,2022_May_10_1109,TMT_fmri,2021.2.3,122.71384113973052,
TMTstop-A_1_1.xlsx,0:26,21,['1'],1,TMTstop-A_1_1linestimulus18.png,TMTstop-A_1_1greenlinestimulus18.png,TMTstop-A_1_1redlinestimulus18.png,TMT_A,1,21,,,,,,,,,0,0,0,0,0,20,20,20,,,,,,,,,,,,,,,,,,,,,,,,,,,,,,,,,,,,,,,1,1,70.10310069999832,None,['1'],1,[-0.03967939999711234],70.10310069999832,None,,001,2022_May_10_1109,TMT_fmri,2021.2.3,122.71384113973052,
TMTstop-A_1_1.xlsx,0:26,22,['3'],3,TMTstop-A_1_1linestimulus19.png,TMTstop-A_1_1greenlinestimulus19.png,TMTstop-A_1_1redlinestimulus19.png,TMT_A,1,22,,,,,,,,,0,0,0,0,0,21,21,21,,,,,,,,,,,,,,,,,,,,,,,,,,,,,,,,,,,,,,,2,0,70.24409029999515,None,"['2', '3']",1,"[-0.09402109999791719, -0.012466799991670996]",70.24409029999515,None,,001,2022_May_10_1109,TMT_fmri,2021.2.3,122.71384113973052,
TMTstop-A_1_1.xlsx,0:26,23,['1'],1,TMTstop-A_1_1linestimulus20.png,TMTstop-A_1_1greenlinestimulus20.png,TMTstop-A_1_1redlinestimulus20.png,TMT_A,1,23,,,,,,,,,0,0,0,0,0,22,22,22,,,,,,,,,,,,,,,,,,,,,,,,,,,,,,,,,,,,,,,1,1,70.38409560000582,None,['1'],1,[-0.018389699995168485],70.38409560000582,None,,001,2022_May_10_1109,TMT_fmri,2021.2.3,122.71384113973052,
TMTstop-A_1_1.xlsx,0:26,24,['3'],3,TMTstop-A_1_1linestimulus21.png,TMTstop-A_1_1greenlinestimulus21.png,TMTstop-A_1_1redlinestimulus21.png,TMT_A,1,24,,,,,,,,,0,0,0,0,0,23,23,23,,,,,,,,,,,,,,,,,,,,,,,,,,,,,,,,,,,,,,,2,0,70.52217290000408,None,"['2', '3']",1,"[-0.09305139999196399, 0.026664800010621548]",70.52217290000408,None,,001,2022_May_10_1109,TMT_fmri,2021.2.3,122.71384113973052,
TMTstop-A_1_1.xlsx,0:26,25,['1'],1,TMTstop-A_1_1linestimulus22.png,TMTstop-A_1_1greenlinestimulus22.png,TMTstop-A_1_1redlinestimulus22.png,TMT_A,1,25,,,,,,,,,0,0,0,0,0,24,24,24,,,,,,,,,,,,,,,,,,,,,,,,,,,,,,,,,,,,,,,1,1,70.65006689999427,None,['1'],1,[0.021190800005570054],70.65006689999427,None,,001,2022_May_10_1109,TMT_fmri,2021.2.3,122.71384113973052,
TMTstop-A_1_1.xlsx,0:26,None,None,None,TMTstop-A_1_1linestimulus23.png,TMTstop-A_1_1greenlinestimulus23.png,TMTstop-A_1_1redlinestimulus23.png,TMT_A,1,Feedback_last,,,,,,,,,0,0,0,0,0,25,25,25,,,,,,,,,,,,,,,,,,,,,,,,,,,,,,,,,,,,,,,4,0,70.78753669999423,None,"['2', '3', '1', '2']",0,"[-0.04181200001039542, 0.060484399989945814, 0.1705602000001818, 0.26034969999454916]",70.78753669999423,None,,001,2022_May_10_1109,TMT_fmri,2021.2.3,122.71384113973052,
TMTstop-A_1_2.xlsx,26:52,1,['1'],1,TMTstop-A_1_2.png,TMTstop-A_1_2.png,TMTstop-A_1_2.png,TMT_A,2,26,,,,,,,,,0,1,1,1,0,0,0,0,,,,,,,,,,,,,,,,,,,,,,,,,,,,,,,,,,,,,,,1,1,74.95212109999557,None,['1'],1,[0.46131539999623783],74.95212109999557,None,,001,2022_May_10_1109,TMT_fmri,2021.2.3,122.71384113973052,
TMTstop-A_1_2.xlsx,26:52,2,['3'],3,TMTstop-A_1_2.png,TMTstop-A_1_2firstgreen.png,TMTstop-A_1_2firstred.png,TMT_A,2,27,,,,,,,,,0,1,1,1,0,1,1,1,,,,,,,,,,,,,,,,,,,,,,,,,,,,,,,,,,,,,,,2,0,75.55897070000356,None,"['2', '3']",1,"[-0.060767199989641085, 0.040275899998960085]",75.55897070000356,None,,001,2022_May_10_1109,TMT_fmri,2021.2.3,122.71384113973052,
TMTstop-A_1_2.xlsx,26:52,3,['1'],1,TMTstop-A_1_2linestimulus0.png,TMTstop-A_1_2greenlinestimulus0.png,TMTstop-A_1_2redlinestimulus0.png,TMT_A,2,28,,,,,,,,,0,1,1,1,0,2,2,2,,,,,,,,,,,,,,,,,,,,,,,,,,,,,,,,,,,,,,,1,1,75.68601499999932,None,['1'],1,[0.05397360000642948],75.68601499999932,None,,001,2022_May_10_1109,TMT_fmri,2021.2.3,122.71384113973052,
TMTstop-A_1_2.xlsx,26:52,4,['2'],2,TMTstop-A_1_2linestimulus1.png,TMTstop-A_1_2greenlinestimulus1.png,TMTstop-A_1_2redlinestimulus1.png,TMT_A,2,29,,,,,,,,,0,1,1,1,0,3,3,3,,,,,,,,,,,,,,,,,,,,,,,,,,,,,,,,,,,,,,,1,1,75.82728189999762,None,['2'],1,[-0.026654499990399927],75.82728189999762,None,,001,2022_May_10_1109,TMT_fmri,2021.2.3,122.71384113973052,
TMTstop-A_1_2.xlsx,26:52,5,['1'],1,TMTstop-A_1_2linestimulus2.png,TMTstop-A_1_2greenlinestimulus2.png,TMTstop-A_1_2redlinestimulus2.png,TMT_A,2,30,,,,,,,,,0,1,1,1,0,4,4,4,,,,,,,,,,,,,,,,,,,,,,,,,,,,,,,,,,,,,,,2,0,75.95315109999501,None,"['3', '1']",1,"[-0.037195900004007854, 0.062339299998711795]",75.95315109999501,None,,001,2022_May_10_1109,TMT_fmri,2021.2.3,122.71384113973052,
TMTstop-A_1_2.xlsx,26:52,6,['3'],3,TMTstop-A_1_2linestimulus3.png,TMTstop-A_1_2greenlinestimulus3.png,TMTstop-A_1_2redlinestimulus3.png,TMT_A,2,31,,,,,,,,,0,1,1,1,0,5,5,5,,,,,,,,,,,,,,,,,,,,,,,,,,,,,,,,,,,,,,,2,0,76.22133030000259,None,"['2', '3']",1,"[-0.11767029999464285, -0.021065999986603856]",76.22133030000259,None,,001,2022_May_10_1109,TMT_fmri,2021.2.3,122.71384113973052,
TMTstop-A_1_2.xlsx,26:52,7,['2'],2,TMTstop-A_1_2linestimulus4.png,TMTstop-A_1_2greenlinestimulus4.png,TMTstop-A_1_2redlinestimulus4.png,TMT_A,2,32,,,,,,,,,0,1,1,1,0,6,6,6,,,,,,,,,,,,,,,,,,,,,,,,,,,,,,,,,,,,,,,2,0,76.34571439999854,None,"['1', '2']",1,"[-0.03177339999820106, 0.06093900000269059]",76.34571439999854,None,,001,2022_May_10_1109,TMT_fmri,2021.2.3,122.71384113973052,
TMTstop-A_1_2.xlsx,26:52,8,['1'],1,TMTstop-A_1_2linestimulus5.png,TMTstop-A_1_2greenlinestimulus5.png,TMTstop-A_1_2redlinestimulus5.png,TMT_A,2,33,,,,,,,,,0,1,1,1,0,7,7,7,,,,,,,,,,,,,,,,,,,,,,,,,,,,,,,,,,,,,,,2,0,76.53738940000767,None,"['3', '1']",1,"[-0.01639190000423696, 0.11031699999875855]",76.53738940000767,None,,001,2022_May_10_1109,TMT_fmri,2021.2.3,122.71384113973052,
TMTstop-A_1_2.xlsx,26:52,9,['3'],3,TMTstop-A_1_2linestimulus6.png,TMTstop-A_1_2greenlinestimulus6.png,TMTstop-A_1_2redlinestimulus6.png,TMT_A,2,34,,,,,,,,,0,1,1,1,0,8,8,8,,,,,,,,,,,,,,,,,,,,,,,,,,,,,,,,,,,,,,,2,0,76.78832780000812,None,"['2', '3']",1,"[-0.08880959999805782, -0.003153999990900047]",76.78832780000812,None,,001,2022_May_10_1109,TMT_fmri,2021.2.3,122.71384113973052,
TMTstop-A_1_2.xlsx,26:52,10,['2'],2,TMTstop-A_1_2linestimulus7.png,TMTstop-A_1_2greenlinestimulus7.png,TMTstop-A_1_2redlinestimulus7.png,TMT_A,2,35,,,,,,,,,0,1,1,1,0,9,9,9,,,,,,,,,,,,,,,,,,,,,,,,,,,,,,,,,,,,,,,3,0,76.92893280000135,None,"['1', '1', '2']",1,"[-0.004833099999814294, 0.1546097000100417, 0.15930179999850225]",76.92893280000135,None,,001,2022_May_10_1109,TMT_fmri,2021.2.3,122.71384113973052,
TMTstop-A_1_2.xlsx,26:52,11,['1'],1,TMTstop-A_1_2linestimulus8.png,TMTstop-A_1_2greenlinestimulus8.png,TMTstop-A_1_2redlinestimulus8.png,TMT_A,2,36,,,,,,,,,0,1,1,1,0,10,10,10,,,,,,,,,,,,,,,,,,,,,,,,,,,,,,,,,,,,,,,2,0,77.1975223000045,None,"['3', '1']",1,"[0.03242470000986941, 0.17632199999934528]",77.1975223000045,None,,001,2022_May_10_1109,TMT_fmri,2021.2.3,122.71384113973052,
TMTstop-A_1_2.xlsx,26:52,12,['2'],2,TMTstop-A_1_2linestimulus9.png,TMTstop-A_1_2greenlinestimulus9.png,TMTstop-A_1_2redlinestimulus9.png,TMT_A,2,37,,,,,,,,,0,1,1,1,0,11,11,11,,,,,,,,,,,,,,,,,,,,,,,,,,,,,,,,,,,,,,,1,1,77.46127770000021,None,['2'],1,[-0.03471649999846704],77.46127770000021,None,,001,2022_May_10_1109,TMT_fmri,2021.2.3,122.71384113973052,
TMTstop-A_1_2.xlsx,26:52,13,['1'],1,TMTstop-A_1_2linestimulus10.png,TMTstop-A_1_2greenlinestimulus10.png,TMTstop-A_1_2redlinestimulus10.png,TMT_A,2,38,,,,,,,,,0,1,1,1,0,12,12,12,,,,,,,,,,,,,,,,,,,,,,,,,,,,,,,,,,,,,,,5,0,77.5880266000022,None,"['3', '1', '2', '3', '1']",1,"[-0.04677500000980217, 0.0918762999936007, 0.14233249999233522, 0.25153659998613875, 0.3852108999999473]",77.5880266000022,None,,001,2022_May_10_1109,TMT_fmri,2021.2.3,122.71384113973052,
TMTstop-A_1_2.xlsx,26:52,14,['3'],3,TMTstop-A_1_2linestimulus11.png,TMTstop-A_1_2greenlinestimulus11.png,TMTstop-A_1_2redlinestimulus11.png,TMT_A,2,39,,,,,,,,,0,1,1,1,0,13,13,13,,,,,,,,,,,,,,,,,,,,,,,,,,,,,,,,,,,,,,,2,0,78.10816279999563,None,"['2', '3']",1,"[-0.03365470000426285, 0.06547099999443162]",78.10816279999563,None,,001,2022_May_10_1109,TMT_fmri,2021.2.3,122.71384113973052,
TMTstop-A_1_2.xlsx,26:52,15,['1'],1,TMTstop-A_1_2linestimulus12.png,TMTstop-A_1_2greenlinestimulus12.png,TMTstop-A_1_2redlinestimulus12.png,TMT_A,2,40,,,,,,,,,0,1,1,1,0,14,14,14,,,,,,,,,,,,,,,,,,,,,,,,,,,,,,,,,,,,,,,1,1,78.37497570000414,None,['1'],1,[-0.06668329999956768],78.37497570000414,None,,001,2022_May_10_1109,TMT_fmri,2021.2.3,122.71384113973052,
TMTstop-A_1_2.xlsx,26:52,16,['3'],3,TMTstop-A_1_2linestimulus13.png,TMTstop-A_1_2greenlinestimulus13.png,TMTstop-A_1_2redlinestimulus13.png,TMT_A,2,41,,,,,,,,,0,1,1,1,0,15,15,15,,,,,,,,,,,,,,,,,,,,,,,,,,,,,,,,,,,,,,,2,0,78.51681549999921,None,"['2', '3']",1,"[-0.13602430000901222, -0.02891640001325868]",78.51681549999921,None,,001,2022_May_10_1109,TMT_fmri,2021.2.3,122.71384113973052,
TMTstop-A_1_2.xlsx,26:52,17,['1'],1,TMTstop-A_1_2linestimulus14.png,TMTstop-A_1_2greenlinestimulus14.png,TMTstop-A_1_2redlinestimulus14.png,TMT_A,2,42,,,,,,,,,0,1,1,1,0,16,16,16,,,,,,,,,,,,,,,,,,,,,,,,,,,,,,,,,,,,,,,1,1,78.64245349999692,None,['1'],1,[-0.041182900007697754],78.64245349999692,None,,001,2022_May_10_1109,TMT_fmri,2021.2.3,122.71384113973052,
TMTstop-A_1_2.xlsx,26:52,18,['2'],2,TMTstop-A_1_2linestimulus15.png,TMTstop-A_1_2greenlinestimulus15.png,TMTstop-A_1_2redlinestimulus15.png,TMT_A,2,43,,,,,,,,,0,1,1,1,0,17,17,17,,,,,,,,,,,,,,,,,,,,,,,,,,,,,,,,,,,,,,,1,1,78.76789230000577,None,['2'],1,[-0.07952990000194404],78.76789230000577,None,,001,2022_May_10_1109,TMT_fmri,2021.2.3,122.71384113973052,
TMTstop-A_1_2.xlsx,26:52,19,['1'],1,TMTstop-A_1_2linestimulus16.png,TMTstop-A_1_2greenlinestimulus16.png,TMTstop-A_1_2redlinestimulus16.png,TMT_A,2,44,,,,,,,,,0,1,1,1,0,18,18,18,,,,,,,,,,,,,,,,,,,,,,,,,,,,,,,,,,,,,,,2,0,78.9071924000018,None,"['3', '1']",1,"[-0.12233059998834506, -0.0028393999964464456]",78.9071924000018,None,,001,2022_May_10_1109,TMT_fmri,2021.2.3,122.71384113973052,
TMTstop-A_1_2.xlsx,26:52,20,['2'],2,TMTstop-A_1_2linestimulus17.png,TMTstop-A_1_2greenlinestimulus17.png,TMTstop-A_1_2redlinestimulus17.png,TMT_A,2,45,,,,,,,,,0,1,1,1,0,19,19,19,,,,,,,,,,,,,,,,,,,,,,,,,,,,,,,,,,,,,,,1,1,79.04704910000146,None,['2'],1,[-0.07874029999948107],79.04704910000146,None,,001,2022_May_10_1109,TMT_fmri,2021.2.3,122.71384113973052,
TMTstop-A_1_2.xlsx,26:52,21,['3'],3,TMTstop-A_1_2linestimulus18.png,TMTstop-A_1_2greenlinestimulus18.png,TMTstop-A_1_2redlinestimulus18.png,TMT_A,2,46,,,,,,,,,0,1,1,1,0,20,20,20,,,,,,,,,,,,,,,,,,,,,,,,,,,,,,,,,,,,,,,1,1,79.18737630000396,None,['3'],1,[-0.10643359999812674],79.18737630000396,None,,001,2022_May_10_1109,TMT_fmri,2021.2.3,122.71384113973052,
TMTstop-A_1_2.xlsx,26:52,22,['2'],2,TMTstop-A_1_2linestimulus19.png,TMTstop-A_1_2greenlinestimulus19.png,TMTstop-A_1_2redlinestimulus19.png,TMT_A,2,47,,,,,,,,,0,1,1,1,0,21,21,21,,,,,,,,,,,,,,,,,,,,,,,,,,,,,,,,,,,,,,,2,0,79.31272390000231,None,"['1', '2']",1,"[-0.09647789999144152, -0.025401399994734675]",79.31272390000231,None,,001,2022_May_10_1109,TMT_fmri,2021.2.3,122.71384113973052,
TMTstop-A_1_2.xlsx,26:52,23,['3'],3,TMTstop-A_1_2linestimulus20.png,TMTstop-A_1_2greenlinestimulus20.png,TMTstop-A_1_2redlinestimulus20.png,TMT_A,2,48,,,,,,,,,0,1,1,1,0,22,22,22,,,,,,,,,,,,,,,,,,,,,,,,,,,,,,,,,,,,,,,1,1,79.45431650000683,None,['3'],1,[-0.06432140000106301],79.45431650000683,None,,001,2022_May_10_1109,TMT_fmri,2021.2.3,122.71384113973052,
TMTstop-A_1_2.xlsx,26:52,24,['2'],2,TMTstop-A_1_2linestimulus21.png,TMTstop-A_1_2greenlinestimulus21.png,TMTstop-A_1_2redlinestimulus21.png,TMT_A,2,49,,,,,,,,,0,1,1,1,0,23,23,23,,,,,,,,,,,,,,,,,,,,,,,,,,,,,,,,,,,,,,,2,0,79.58320700000331,None,"['1', '2']",1,"[-0.06243009999161586, -0.006042099994374439]",79.58320700000331,None,,001,2022_May_10_1109,TMT_fmri,2021.2.3,122.71384113973052,
TMTstop-A_1_2.xlsx,26:52,25,['3'],3,TMTstop-A_1_2linestimulus22.png,TMTstop-A_1_2greenlinestimulus22.png,TMTstop-A_1_2redlinestimulus22.png,TMT_A,2,50,,,,,,,,,0,1,1,1,0,24,24,24,,,,,,,,,,,,,,,,,,,,,,,,,,,,,,,,,,,,,,,1,1,79.71076669999456,None,['3'],1,[-0.01011409999046009],79.71076669999456,None,,001,2022_May_10_1109,TMT_fmri,2021.2.3,122.71384113973052,
TMTstop-A_1_2.xlsx,26:52,None,None,None,TMTstop-A_1_2linestimulus23.png,TMTstop-A_1_2greenlinestimulus23.png,TMTstop-A_1_2redlinestimulus23.png,TMT_A,2,Feedback_last,,,,,,,,,0,1,1,1,0,25,25,25,,,,,,,,,,,,,,,,,,,,,,,,,,,,,,,,,,,,,,,5,0,79.8524480000051,None,"['1', '2', '3', '1', '2']",0,"[-0.03487840000889264, 0.026117699992028065, 0.15487889999349136, 0.27432820000103675, 0.36680009998963214]",79.8524480000051,None,,001,2022_May_10_1109,TMT_fmri,2021.2.3,122.71384113973052,
TMTstop-A_1_3.xlsx,52:78,1,['1'],1,TMTstop-A_1_3.png,TMTstop-A_1_3.png,TMTstop-A_1_3.png,TMT_A,3,51,,,,,,,,,0,2,2,2,0,0,0,0,,,,,,,,,,,,,,,,,,,,,,,,,,,,,,,,,,,,,,,1,1,83.98859100000118,None,['1'],1,[1.081296400006977],83.98859100000118,None,,001,2022_May_10_1109,TMT_fmri,2021.2.3,122.71384113973052,
TMTstop-A_1_3.xlsx,52:78,2,['3'],3,TMTstop-A_1_3.png,TMTstop-A_1_3firstgreen.png,TMTstop-A_1_3firstred.png,TMT_A,3,52,,,,,,,,,0,2,2,2,0,1,1,1,,,,,,,,,,,,,,,,,,,,,,,,,,,,,,,,,,,,,,,2,0,85.20652289999998,None,"['2', '3']",1,"[0.8539132999867434, 1.7111752999917371]",85.20652289999998,None,,001,2022_May_10_1109,TMT_fmri,2021.2.3,122.71384113973052,
TMTstop-A_1_3.xlsx,52:78,3,['2'],2,TMTstop-A_1_3linestimulus0.png,TMTstop-A_1_3greenlinestimulus0.png,TMTstop-A_1_3redlinestimulus0.png,TMT_A,3,53,,,,,,,,,0,2,2,2,0,2,2,2,,,,,,,,,,,,,,,,,,,,,,,,,,,,,,,,,,,,,,,1,1,87.01269060000777,None,['2'],1,[0.8017399999953341],87.01269060000777,None,,001,2022_May_10_1109,TMT_fmri,2021.2.3,122.71384113973052,
TMTstop-A_1_3.xlsx,52:78,4,['3'],3,TMTstop-A_1_3linestimulus1.png,TMTstop-A_1_3greenlinestimulus1.png,TMTstop-A_1_3redlinestimulus1.png,TMT_A,3,54,,,,,,,,,0,2,2,2,0,3,3,3,,,,,,,,,,,,,,,,,,,,,,,,,,,,,,,,,,,,,,,1,1,87.93665200000396,None,['3'],1,[1.2453477999952156],87.93665200000396,None,,001,2022_May_10_1109,TMT_fmri,2021.2.3,122.71384113973052,
TMTstop-A_1_3.xlsx,52:78,5,['2'],2,TMTstop-A_1_3linestimulus2.png,TMTstop-A_1_3greenlinestimulus2.png,TMTstop-A_1_3redlinestimulus2.png,TMT_A,3,55,,,,,,,,,0,2,2,2,0,4,4,4,,,,,,,,,,,,,,,,,,,,,,,,,,,,,,,,,,,,,,,1,1,89.27865789999487,None,['2'],1,[0.3471884000027785],89.27865789999487,None,,001,2022_May_10_1109,TMT_fmri,2021.2.3,122.71384113973052,
TMTstop-A_1_3.xlsx,52:78,6,['1'],1,TMTstop-A_1_3linestimulus3.png,TMTstop-A_1_3greenlinestimulus3.png,TMTstop-A_1_3redlinestimulus3.png,TMT_A,3,56,,,,,,,,,0,2,2,2,0,5,5,5,,,,,,,,,,,,,,,,,,,,,,,,,,,,,,,,,,,,,,,1,1,89.70314320000762,None,['1'],1,[0.34476820001145825],89.70314320000762,None,,001,2022_May_10_1109,TMT_fmri,2021.2.3,122.71384113973052,
TMTstop-A_1_3.xlsx,52:78,7,['3'],3,TMTstop-A_1_3linestimulus4.png,TMTstop-A_1_3greenlinestimulus4.png,TMTstop-A_1_3redlinestimulus4.png,TMT_A,3,57,,,,,,,,,0,2,2,2,0,6,6,6,,,,,,,,,,,,,,,,,,,,,,,,,,,,,,,,,,,,,,,2,0,90.20830290000595,None,"['2', '3']",1,"[0.032441000003018416, 0.09237960001337342]",90.20830290000595,None,,001,2022_May_10_1109,TMT_fmri,2021.2.3,122.71384113973052,
TMTstop-A_1_3.xlsx,52:78,8,['1'],1,TMTstop-A_1_3linestimulus5.png,TMTstop-A_1_3greenlinestimulus5.png,TMTstop-A_1_3redlinestimulus5.png,TMT_A,3,58,,,,,,,,,0,2,2,2,0,7,7,7,,,,,,,,,,,,,,,,,,,,,,,,,,,,,,,,,,,,,,,1,1,90.38711850000254,None,['1'],1,[0.07146520000242162],90.38711850000254,None,,001,2022_May_10_1109,TMT_fmri,2021.2.3,122.71384113973052,
TMTstop-A_1_3.xlsx,52:78,9,['3'],3,TMTstop-A_1_3linestimulus6.png,TMTstop-A_1_3greenlinestimulus6.png,TMTstop-A_1_3redlinestimulus6.png,TMT_A,3,59,,,,,,,,,0,2,2,2,0,8,8,8,,,,,,,,,,,,,,,,,,,,,,,,,,,,,,,,,,,,,,,2,0,90.54544060000626,None,"['2', '3']",1,"[-0.03425000001152512, 0.07723709999118]",90.54544060000626,None,,001,2022_May_10_1109,TMT_fmri,2021.2.3,122.71384113973052,
TMTstop-A_1_3.xlsx,52:78,10,['2'],2,TMTstop-A_1_3linestimulus7.png,TMTstop-A_1_3greenlinestimulus7.png,TMTstop-A_1_3redlinestimulus7.png,TMT_A,3,60,,,,,,,,,0,2,2,2,0,9,9,9,,,,,,,,,,,,,,,,,,,,,,,,,,,,,,,,,,,,,,,2,0,90.71228779999365,None,"['1', '2']",1,"[0.027805400008219294, 0.10273179999785498]",90.71228779999365,None,,001,2022_May_10_1109,TMT_fmri,2021.2.3,122.71384113973052,
TMTstop-A_1_3.xlsx,52:78,11,['3'],3,TMTstop-A_1_3linestimulus8.png,TMTstop-A_1_3greenlinestimulus8.png,TMTstop-A_1_3redlinestimulus8.png,TMT_A,3,61,,,,,,,,,0,2,2,2,0,10,10,10,,,,,,,,,,,,,,,,,,,,,,,,,,,,,,,,,,,,,,,1,1,90.9115213000041,None,['3'],1,[0.018864199999370612],90.9115213000041,None,,001,2022_May_10_1109,TMT_fmri,2021.2.3,122.71384113973052,
TMTstop-A_1_3.xlsx,52:78,12,['2'],2,TMTstop-A_1_3linestimulus9.png,TMTstop-A_1_3greenlinestimulus9.png,TMTstop-A_1_3redlinestimulus9.png,TMT_A,3,62,,,,,,,,,0,2,2,2,0,11,11,11,,,,,,,,,,,,,,,,,,,,,,,,,,,,,,,,,,,,,,,2,0,91.02893739999854,None,"['1', '2']",1,"[0.036914900003466755, 0.13369780000357423]",91.02893739999854,None,,001,2022_May_10_1109,TMT_fmri,2021.2.3,122.71384113973052,
TMTstop-A_1_3.xlsx,52:78,13,['1'],1,TMTstop-A_1_3linestimulus10.png,TMTstop-A_1_3greenlinestimulus10.png,TMTstop-A_1_3redlinestimulus10.png,TMT_A,3,63,,,,,,,,,0,2,2,2,0,12,12,12,,,,,,,,,,,,,,,,,,,,,,,,,,,,,,,,,,,,,,,2,0,91.2453758000047,None,"['3', '1']",1,"[0.044435299991164356, 0.17491960000188556]",91.2453758000047,None,,001,2022_May_10_1109,TMT_fmri,2021.2.3,122.71384113973052,
TMTstop-A_1_3.xlsx,52:78,14,['2'],2,TMTstop-A_1_3linestimulus11.png,TMTstop-A_1_3greenlinestimulus11.png,TMTstop-A_1_3redlinestimulus11.png,TMT_A,3,64,,,,,,,,,0,2,2,2,0,13,13,13,,,,,,,,,,,,,,,,,,,,,,,,,,,,,,,,,,,,,,,1,1,91.51281519999611,None,['2'],1,[-0.006012600002577528],91.51281519999611,None,,001,2022_May_10_1109,TMT_fmri,2021.2.3,122.71384113973052,
TMTstop-A_1_3.xlsx,52:78,15,['3'],3,TMTstop-A_1_3linestimulus12.png,TMTstop-A_1_3greenlinestimulus12.png,TMTstop-A_1_3redlinestimulus12.png,TMT_A,3,65,,,,,,,,,0,2,2,2,0,14,14,14,,,,,,,,,,,,,,,,,,,,,,,,,,,,,,,,,,,,,,,1,1,91.59594590000052,None,['3'],1,[-0.0012569000100484118],91.59594590000052,None,,001,2022_May_10_1109,TMT_fmri,2021.2.3,122.71384113973052,
TMTstop-A_1_3.xlsx,52:78,16,['2'],2,TMTstop-A_1_3linestimulus13.png,TMTstop-A_1_3greenlinestimulus13.png,TMTstop-A_1_3redlinestimulus13.png,TMT_A,3,66,,,,,,,,,0,2,2,2,0,15,15,15,,,,,,,,,,,,,,,,,,,,,,,,,,,,,,,,,,,,,,,2,0,91.67912460000662,None,"['1', '2']",1,"[0.07563479999953415, 0.1652102000080049]",91.67912460000662,None,,001,2022_May_10_1109,TMT_fmri,2021.2.3,122.71384113973052,
TMTstop-A_1_3.xlsx,52:78,17,['3'],3,TMTstop-A_1_3linestimulus14.png,TMTstop-A_1_3greenlinestimulus14.png,TMTstop-A_1_3redlinestimulus14.png,TMT_A,3,67,,,,,,,,,0,2,2,2,0,16,16,16,,,,,,,,,,,,,,,,,,,,,,,,,,,,,,,,,,,,,,,1,1,92.03822210000362,None,['3'],1,[-0.1145840999961365],92.03822210000362,None,,001,2022_May_10_1109,TMT_fmri,2021.2.3,122.71384113973052,
TMTstop-A_1_3.xlsx,52:78,18,['2'],2,TMTstop-A_1_3linestimulus15.png,TMTstop-A_1_3greenlinestimulus15.png,TMTstop-A_1_3redlinestimulus15.png,TMT_A,3,68,,,,,,,,,0,2,2,2,0,17,17,17,,,,,,,,,,,,,,,,,,,,,,,,,,,,,,,,,,,,,,,2,0,92.16056340000068,None,"['1', '2']",1,"[-0.11014250000880565, -0.0417135000025155]",92.16056340000068,None,,001,2022_May_10_1109,TMT_fmri,2021.2.3,122.71384113973052,
TMTstop-A_1_3.xlsx,52:78,19,['3'],3,TMTstop-A_1_3linestimulus16.png,TMTstop-A_1_3greenlinestimulus16.png,TMTstop-A_1_3redlinestimulus16.png,TMT_A,3,69,,,,,,,,,0,2,2,2,0,18,18,18,,,,,,,,,,,,,,,,,,,,,,,,,,,,,,,,,,,,,,,1,1,92.28776039999502,None,['3'],1,[-0.07131329999538139],92.28776039999502,None,,001,2022_May_10_1109,TMT_fmri,2021.2.3,122.71384113973052,
TMTstop-A_1_3.xlsx,52:78,20,['1'],1,TMTstop-A_1_3linestimulus17.png,TMTstop-A_1_3greenlinestimulus17.png,TMTstop-A_1_3redlinestimulus17.png,TMT_A,3,70,,,,,,,,,0,2,2,2,0,19,19,19,,,,,,,,,,,,,,,,,,,,,,,,,,,,,,,,,,,,,,,4,0,92.41863549999835,None,"['1', '2', '3', '1']",1,"[-0.08198699999775272, 9.809999028220773e-05, 0.09531029999197926, 0.22079310000117403]",92.41863549999835,None,,001,2022_May_10_1109,TMT_fmri,2021.2.3,122.71384113973052,
TMTstop-A_1_3.xlsx,52:78,21,['2'],2,TMTstop-A_1_3linestimulus18.png,TMTstop-A_1_3greenlinestimulus18.png,TMTstop-A_1_3redlinestimulus18.png,TMT_A,3,71,,,,,,,,,0,2,2,2,0,20,20,20,,,,,,,,,,,,,,,,,,,,,,,,,,,,,,,,,,,,,,,4,0,92.82497289999446,None,"['2', '3', '1', '2']",1,"[-0.11296719999518245, -0.0221078999893507, 0.1086933000042336, 0.17501810000976548]",92.82497289999446,None,,001,2022_May_10_1109,TMT_fmri,2021.2.3,122.71384113973052,
TMTstop-A_1_3.xlsx,52:78,22,['3'],3,TMTstop-A_1_3linestimulus19.png,TMTstop-A_1_3greenlinestimulus19.png,TMTstop-A_1_3redlinestimulus19.png,TMT_A,3,72,,,,,,,,,0,2,2,2,0,21,21,21,,,,,,,,,,,,,,,,,,,,,,,,,,,,,,,,,,,,,,,1,1,93.10839880000276,None,['3'],1,[-0.006744300000718795],93.10839880000276,None,,001,2022_May_10_1109,TMT_fmri,2021.2.3,122.71384113973052,
TMTstop-A_1_3.xlsx,52:78,23,['2'],2,TMTstop-A_1_3linestimulus20.png,TMTstop-A_1_3greenlinestimulus20.png,TMTstop-A_1_3redlinestimulus20.png,TMT_A,3,73,,,,,,,,,0,2,2,2,0,22,22,22,,,,,,,,,,,,,,,,,,,,,,,,,,,,,,,,,,,,,,,2,0,93.24413900000218,None,"['1', '2']",1,"[-0.014287200014223345, 0.04500399999960791]",93.24413900000218,None,,001,2022_May_10_1109,TMT_fmri,2021.2.3,122.71384113973052,
TMTstop-A_1_3.xlsx,52:78,24,['1'],1,TMTstop-A_1_3linestimulus21.png,TMTstop-A_1_3greenlinestimulus21.png,TMTstop-A_1_3redlinestimulus21.png,TMT_A,3,74,,,,,,,,,0,2,2,2,0,23,23,23,,,,,,,,,,,,,,,,,,,,,,,,,,,,,,,,,,,,,,,2,0,93.37125989999913,None,"['3', '1']",1,"[0.029700899991439655, 0.15217719999782275]",93.37125989999913,None,,001,2022_May_10_1109,TMT_fmri,2021.2.3,122.71384113973052,
TMTstop-A_1_3.xlsx,52:78,25,['2'],2,TMTstop-A_1_3linestimulus22.png,TMTstop-A_1_3greenlinestimulus22.png,TMTstop-A_1_3redlinestimulus22.png,TMT_A,3,75,,,,,,,,,0,2,2,2,0,24,24,24,,,,,,,,,,,,,,,,,,,,,,,,,,,,,,,,,,,,,,,1,1,93.63757120000082,None,['2'],1,[-0.03166819999751169],93.63757120000082,None,,001,2022_May_10_1109,TMT_fmri,2021.2.3,122.71384113973052,
TMTstop-A_1_3.xlsx,52:78,None,None,None,TMTstop-A_1_3linestimulus23.png,TMTstop-A_1_3greenlinestimulus23.png,TMTstop-A_1_3redlinestimulus23.png,TMT_A,3,Feedback_last,,,,,,,,,0,2,2,2,0,25,25,25,,,,,,,,,,,,,,,,,,,,,,,,,,,,,,,,,,,,,,,3,0,93.77489980000246,None,"['3', '1', '2']",0,"[-0.05848590000823606, 0.08238029999483842, 0.17042349999246653]",93.77489980000246,None,,001,2022_May_10_1109,TMT_fmri,2021.2.3,122.71384113973052,
TMTstop-B_1_1.xlsx,0:26,1,['3'],3,TMTstop-B_1_1.png,TMTstop-B_1_1.png,TMTstop-B_1_1.png,TMT_B,1,1,,,,,,,,,,,,,,,,,0,0,0,0,0,0,0,0,,,,,,,,,,,,,,,,,,,,,,,,,,,,,,,5,0,107.85629840000183,None,"['1', '1', '2', '1', '3']",1,"[1.5785233000060543, 2.0223849000030896, 2.2467633000051137, 2.255849599998328, 2.390571199997794]",107.85629840000183,None,,001,2022_May_10_1109,TMT_fmri,2021.2.3,122.71384113973052,
TMTstop-B_1_1.xlsx,0:26,A,['1'],1,TMTstop-B_1_1.png,TMTstop-B_1_1firstgreen.png,TMTstop-B_1_1firstred.png,TMT_B,1,2,,,,,,,,,,,,,,,,,0,0,0,0,0,1,1,1,,,,,,,,,,,,,,,,,,,,,,,,,,,,,,,1,1,110.40008859999944,None,['1'],1,[0.01646440000331495],110.40008859999944,None,,001,2022_May_10_1109,TMT_fmri,2021.2.3,122.71384113973052,
TMTstop-B_1_1.xlsx,0:26,2,['3'],3,TMTstop-B_1_1linestimulus0.png,TMTstop-B_1_1greenlinestimulus0.png,TMTstop-B_1_1redlinestimulus0.png,TMT_B,1,3,,,,,,,,,,,,,,,,,0,0,0,0,0,2,2,2,,,,,,,,,,,,,,,,,,,,,,,,,,,,,,,2,0,110.52495229999477,None,"['2', '3']",1,"[-0.008526899997377768, 0.08266790000197943]",110.52495229999477,None,,001,2022_May_10_1109,TMT_fmri,2021.2.3,122.71384113973052,
TMTstop-B_1_1.xlsx,0:26,B,['2'],2,TMTstop-B_1_1linestimulus1.png,TMTstop-B_1_1greenlinestimulus1.png,TMTstop-B_1_1redlinestimulus1.png,TMT_B,1,4,,,,,,,,,,,,,,,,,0,0,0,0,0,3,3,3,,,,,,,,,,,,,,,,,,,,,,,,,,,,,,,2,0,110.80750569999509,None,"['1', '2']",1,"[-0.0346616000024369, 0.03418990000500344]",110.80750569999509,None,,001,2022_May_10_1109,TMT_fmri,2021.2.3,122.71384113973052,
TMTstop-B_1_1.xlsx,0:26,3,['1'],1,TMTstop-B_1_1linestimulus2.png,TMTstop-B_1_1greenlinestimulus2.png,TMTstop-B_1_1redlinestimulus2.png,TMT_B,1,5,,,,,,,,,,,,,,,,,0,0,0,0,0,4,4,4,,,,,,,,,,,,,,,,,,,,,,,,,,,,,,,2,0,111.00837890000548,None,"['3', '1']",1,"[-0.052837900002487004, 0.09172849998867605]",111.00837890000548,None,,001,2022_May_10_1109,TMT_fmri,2021.2.3,122.71384113973052,
TMTstop-B_1_1.xlsx,0:26,C,['3'],3,TMTstop-B_1_1linestimulus3.png,TMTstop-B_1_1greenlinestimulus3.png,TMTstop-B_1_1redlinestimulus3.png,TMT_B,1,6,,,,,,,,,,,,,,,,,0,0,0,0,0,5,5,5,,,,,,,,,,,,,,,,,,,,,,,,,,,,,,,2,0,111.2610638000042,None,"['2', '3']",1,"[-0.11168109999562148, 0.029374199992162175]",111.2610638000042,None,,001,2022_May_10_1109,TMT_fmri,2021.2.3,122.71384113973052,
TMTstop-B_1_1.xlsx,0:26,4,['2'],2,TMTstop-B_1_1linestimulus4.png,TMTstop-B_1_1greenlinestimulus4.png,TMTstop-B_1_1redlinestimulus4.png,TMT_B,1,7,,,,,,,,,,,,,,,,,0,0,0,0,0,6,6,6,,,,,,,,,,,,,,,,,,,,,,,,,,,,,,,2,0,111.38951100000122,None,"['1', '2']",1,"[0.22522210000897758, 0.3311268000106793]",111.38951100000122,None,,001,2022_May_10_1109,TMT_fmri,2021.2.3,122.71384113973052,
TMTstop-B_1_1.xlsx,0:26,D,['1'],1,TMTstop-B_1_1linestimulus5.png,TMTstop-B_1_1greenlinestimulus5.png,TMTstop-B_1_1redlinestimulus5.png,TMT_B,1,8,,,,,,,,,,,,,,,,,0,0,0,0,0,7,7,7,,,,,,,,,,,,,,,,,,,,,,,,,,,,,,,2,0,111.91277789999731,None,"['3', '1']",1,"[-0.07428689999505877, 0.07994710000639316]",111.91277789999731,None,,001,2022_May_10_1109,TMT_fmri,2021.2.3,122.71384113973052,
TMTstop-B_1_1.xlsx,0:26,5,['3'],3,TMTstop-B_1_1linestimulus6.png,TMTstop-B_1_1greenlinestimulus6.png,TMTstop-B_1_1redlinestimulus6.png,TMT_B,1,9,,,,,,,,,,,,,,,,,0,0,0,0,0,8,8,8,,,,,,,,,,,,,,,,,,,,,,,,,,,,,,,2,0,112.17120290000457,None,"['2', '3']",1,"[-0.05219069999293424, 0.20571660000132397]",112.17120290000457,None,,001,2022_May_10_1109,TMT_fmri,2021.2.3,122.71384113973052,
TMTstop-B_1_1.xlsx,0:26,E,['1'],1,TMTstop-B_1_1linestimulus7.png,TMTstop-B_1_1greenlinestimulus7.png,TMTstop-B_1_1redlinestimulus7.png,TMT_B,1,10,,,,,,,,,,,,,,,,,0,0,0,0,0,9,9,9,,,,,,,,,,,,,,,,,,,,,,,,,,,,,,,1,1,112.55427199999394,None,['1'],1,[-0.08804109999618959],112.55427199999394,None,,001,2022_May_10_1109,TMT_fmri,2021.2.3,122.71384113973052,
TMTstop-B_1_1.xlsx,0:26,6,['3'],3,TMTstop-B_1_1linestimulus8.png,TMTstop-B_1_1greenlinestimulus8.png,TMTstop-B_1_1redlinestimulus8.png,TMT_B,1,11,,,,,,,,,,,,,,,,,0,0,0,0,0,10,10,10,,,,,,,,,,,,,,,,,,,,,,,,,,,,,,,1,1,112.68075689999387,None,['3'],1,[0.11109479999868199],112.68075689999387,None,,001,2022_May_10_1109,TMT_fmri,2021.2.3,122.71384113973052,
TMTstop-B_1_1.xlsx,0:26,F,['1'],1,TMTstop-B_1_1linestimulus9.png,TMTstop-B_1_1greenlinestimulus9.png,TMTstop-B_1_1redlinestimulus9.png,TMT_B,1,12,,,,,,,,,,,,,,,,,0,0,0,0,0,11,11,11,,,,,,,,,,,,,,,,,,,,,,,,,,,,,,,1,1,112.94906729999639,None,['1'],1,[0.011343700010911562],112.94906729999639,None,,001,2022_May_10_1109,TMT_fmri,2021.2.3,122.71384113973052,
TMTstop-B_1_1.xlsx,0:26,7,['3'],3,TMTstop-B_1_1linestimulus10.png,TMTstop-B_1_1greenlinestimulus10.png,TMTstop-B_1_1redlinestimulus10.png,TMT_B,1,13,,,,,,,,,,,,,,,,,0,0,0,0,0,12,12,12,,,,,,,,,,,,,,,,,,,,,,,,,,,,,,,2,0,113.07381170000008,None,"['2', '3']",1,"[-0.0340009000065038, 0.07942739999270998]",113.07381170000008,None,,001,2022_May_10_1109,TMT_fmri,2021.2.3,122.71384113973052,
TMTstop-B_1_1.xlsx,0:26,G,['2'],2,TMTstop-B_1_1linestimulus11.png,TMTstop-B_1_1greenlinestimulus11.png,TMTstop-B_1_1redlinestimulus11.png,TMT_B,1,14,,,,,,,,,,,,,,,,,0,0,0,0,0,13,13,13,,,,,,,,,,,,,,,,,,,,,,,,,,,,,,,2,0,113.27518589999818,None,"['1', '2']",1,"[0.03973559998848941, 0.08959169998706784]",113.27518589999818,None,,001,2022_May_10_1109,TMT_fmri,2021.2.3,122.71384113973052,
TMTstop-B_1_1.xlsx,0:26,8,['3'],3,TMTstop-B_1_1linestimulus12.png,TMTstop-B_1_1greenlinestimulus12.png,TMTstop-B_1_1redlinestimulus12.png,TMT_B,1,15,,,,,,,,,,,,,,,,,0,0,0,0,0,14,14,14,,,,,,,,,,,,,,,,,,,,,,,,,,,,,,,1,1,113.52731560000393,None,['3'],1,[-0.0010660999978426844],113.52731560000393,None,,001,2022_May_10_1109,TMT_fmri,2021.2.3,122.71384113973052,
TMTstop-B_1_1.xlsx,0:26,H,['1'],1,TMTstop-B_1_1linestimulus13.png,TMTstop-B_1_1greenlinestimulus13.png,TMTstop-B_1_1redlinestimulus13.png,TMT_B,1,16,,,,,,,,,,,,,,,,,0,0,0,0,0,15,15,15,,,,,,,,,,,,,,,,,,,,,,,,,,,,,,,1,1,113.66680930000439,None,['1'],1,[-0.0026879999932134524],113.66680930000439,None,,001,2022_May_10_1109,TMT_fmri,2021.2.3,122.71384113973052,
TMTstop-B_1_1.xlsx,0:26,9,['3'],3,TMTstop-B_1_1linestimulus14.png,TMTstop-B_1_1greenlinestimulus14.png,TMTstop-B_1_1redlinestimulus14.png,TMT_B,1,17,,,,,,,,,,,,,,,,,0,0,0,0,0,16,16,16,,,,,,,,,,,,,,,,,,,,,,,,,,,,,,,2,0,113.80590249999659,None,"['2', '3']",1,"[-0.09251950000179932, 0.12264620000496507]",113.80590249999659,None,,001,2022_May_10_1109,TMT_fmri,2021.2.3,122.71384113973052,
TMTstop-B_1_1.xlsx,0:26,I,['2'],2,TMTstop-B_1_1linestimulus15.png,TMTstop-B_1_1greenlinestimulus15.png,TMTstop-B_1_1redlinestimulus15.png,TMT_B,1,18,,,,,,,,,,,,,,,,,0,0,0,0,0,17,17,17,,,,,,,,,,,,,,,,,,,,,,,,,,,,,,,2,0,114.07105949999823,None,"['1', '2']",1,"[-0.05545690000872128, 0.05365170000004582]",114.07105949999823,None,,001,2022_May_10_1109,TMT_fmri,2021.2.3,122.71384113973052,
TMTstop-B_1_1.xlsx,0:26,10,['3'],3,TMTstop-B_1_1linestimulus16.png,TMTstop-B_1_1greenlinestimulus16.png,TMTstop-B_1_1redlinestimulus16.png,TMT_B,1,19,,,,,,,,,,,,,,,,,0,0,0,0,0,18,18,18,,,,,,,,,,,,,,,,,,,,,,,,,,,,,,,3,0,114.32712170000013,None,"['1', '2', '3']",1,"[-0.0026500999956624582, 0.0032267000060528517, 0.152749800006859]",114.32712170000013,None,,001,2022_May_10_1109,TMT_fmri,2021.2.3,122.71384113973052,
TMTstop-B_1_1.xlsx,0:26,J,['2'],2,TMTstop-B_1_1linestimulus17.png,TMTstop-B_1_1greenlinestimulus17.png,TMTstop-B_1_1redlinestimulus17.png,TMT_B,1,20,,,,,,,,,,,,,,,,,0,0,0,0,0,19,19,19,,,,,,,,,,,,,,,,,,,,,,,,,,,,,,,2,0,114.58753020000586,None,"['1', '2']",1,"[0.020665600008214824, 0.10470530000748113]",114.58753020000586,None,,001,2022_May_10_1109,TMT_fmri,2021.2.3,122.71384113973052,
TMTstop-B_1_1.xlsx,0:26,11,['1'],1,TMTstop-B_1_1linestimulus18.png,TMTstop-B_1_1greenlinestimulus18.png,TMTstop-B_1_1redlinestimulus18.png,TMT_B,1,21,,,,,,,,,,,,,,,,,0,0,0,0,0,20,20,20,,,,,,,,,,,,,,,,,,,,,,,,,,,,,,,2,0,114.83811270000297,None,"['3', '1']",1,"[-0.04877560000750236, 0.06837419999646954]",114.83811270000297,None,,001,2022_May_10_1109,TMT_fmri,2021.2.3,122.71384113973052,
TMTstop-B_1_1.xlsx,0:26,K,['2'],2,TMTstop-B_1_1linestimulus19.png,TMTstop-B_1_1greenlinestimulus19.png,TMTstop-B_1_1redlinestimulus19.png,TMT_B,1,22,,,,,,,,,,,,,,,,,0,0,0,0,0,21,21,21,,,,,,,,,,,,,,,,,,,,,,,,,,,,,,,4,0,115.09250080000493,None,"['2', '3', '1', '2']",1,"[-0.10353589999431279, -0.010392600001068786, 0.11313060000247788, 0.22658650000812486]",115.09250080000493,None,,001,2022_May_10_1109,TMT_fmri,2021.2.3,122.71384113973052,
TMTstop-B_1_1.xlsx,0:26,12,['1'],1,TMTstop-B_1_1linestimulus20.png,TMTstop-B_1_1greenlinestimulus20.png,TMTstop-B_1_1redlinestimulus20.png,TMT_B,1,23,,,,,,,,,,,,,,,,,0,0,0,0,0,22,22,22,,,,,,,,,,,,,,,,,,,,,,,,,,,,,,,2,0,115.50027380000392,None,"['3', '1']",1,"[-0.1024665000004461, 0.04062529999646358]",115.50027380000392,None,,001,2022_May_10_1109,TMT_fmri,2021.2.3,122.71384113973052,
TMTstop-B_1_1.xlsx,0:26,L,['2'],2,TMTstop-B_1_1linestimulus21.png,TMTstop-B_1_1greenlinestimulus21.png,TMTstop-B_1_1redlinestimulus21.png,TMT_B,1,24,,,,,,,,,,,,,,,,,0,0,0,0,0,23,23,23,,,,,,,,,,,,,,,,,,,,,,,,,,,,,,,1,1,115.64059340000676,None,['2'],1,[-0.009547199995722622],115.64059340000676,None,,001,2022_May_10_1109,TMT_fmri,2021.2.3,122.71384113973052,
TMTstop-B_1_1.xlsx,0:26,13,['1'],1,TMTstop-B_1_1linestimulus22.png,TMTstop-B_1_1greenlinestimulus22.png,TMTstop-B_1_1redlinestimulus22.png,TMT_B,1,25,,,,,,,,,,,,,,,,,0,0,0,0,0,24,24,24,,,,,,,,,,,,,,,,,,,,,,,,,,,,,,,2,0,115.76728410000214,None,"['3', '1']",1,"[-0.03983439999865368, 0.08288220000395086]",115.76728410000214,None,,001,2022_May_10_1109,TMT_fmri,2021.2.3,122.71384113973052,
TMTstop-B_1_1.xlsx,0:26,None,None,None,TMTstop-B_1_1linestimulus23.png,TMTstop-B_1_1greenlinestimulus23.png,TMTstop-B_1_1redlinestimulus23.png,TMT_B,1,Feedback_last,,,,,,,,,,,,,,,,,0,0,0,0,0,25,25,25,,,,,,,,,,,,,,,,,,,,,,,,,,,,,,,4,0,116.03379129999666,None,"['2', '3', '1', '2']",0,"[-0.10485309999785386, 0.0288964999926975, 0.17835159999958705, 0.2539275000017369]",116.03379129999666,None,,001,2022_May_10_1109,TMT_fmri,2021.2.3,122.71384113973052,
TMTstop-B_1_2.xlsx,26:52,1,['1'],1,TMTstop-B_1_2.png,TMTstop-B_1_2.png,TMTstop-B_1_2.png,TMT_B,2,26,,,,,,,,,,,,,,,,,0,1,1,1,0,0,0,0,,,,,,,,,,,,,,,,,,,,,,,,,,,,,,,1,1,120.20257730000594,None,['1'],1,[0.5012760999961756],120.20257730000594,None,,001,2022_May_10_1109,TMT_fmri,2021.2.3,122.71384113973052,
TMTstop-B_1_2.xlsx,26:52,A,['2'],2,TMTstop-B_1_2.png,TMTstop-B_1_2firstgreen.png,TMTstop-B_1_2firstred.png,TMT_B,2,27,,,,,,,,,,,,,,,,,0,1,1,1,0,1,1,1,,,,,,,,,,,,,,,,,,,,,,,,,,,,,,,1,1,120.85953940000036,None,['2'],1,[-0.08427690000098664],120.85953940000036,None,,001,2022_May_10_1109,TMT_fmri,2021.2.3,122.71384113973052,
TMTstop-B_1_2.xlsx,26:52,2,['1'],1,TMTstop-B_1_2linestimulus0.png,TMTstop-B_1_2greenlinestimulus0.png,TMTstop-B_1_2redlinestimulus0.png,TMT_B,2,28,,,,,,,,,,,,,,,,,0,1,1,1,0,2,2,2,,,,,,,,,,,,,,,,,,,,,,,,,,,,,,,2,0,121.00101870000071,None,"['3', '1']",1,"[-0.1263691999920411, 0.020842099998844787]",121.00101870000071,None,,001,2022_May_10_1109,TMT_fmri,2021.2.3,122.71384113973052,
TMTstop-B_1_2.xlsx,26:52,B,['2'],2,TMTstop-B_1_2linestimulus1.png,TMTstop-B_1_2greenlinestimulus1.png,TMTstop-B_1_2redlinestimulus1.png,TMT_B,2,29,,,,,,,,,,,,,,,,,0,1,1,1,0,3,3,3,,,,,,,,,,,,,,,,,,,,,,,,,,,,,,,1,1,121.14384869999776,None,['2'],1,[-0.03353709999646526],121.14384869999776,None,,001,2022_May_10_1109,TMT_fmri,2021.2.3,122.71384113973052,
TMTstop-B_1_2.xlsx,26:52,3,['1'],1,TMTstop-B_1_2linestimulus2.png,TMTstop-B_1_2greenlinestimulus2.png,TMTstop-B_1_2redlinestimulus2.png,TMT_B,2,30,,,,,,,,,,,,,,,,,0,1,1,1,0,4,4,4,,,,,,,,,,,,,,,,,,,,,,,,,,,,,,,5,0,121.28042419999838,None,"['3', '1', '2', '3', '1']",1,"[-0.0785974000027636, 0.048359499996877275, 0.13213640000321902, 0.22217619999719318, 0.3653123999974923]",121.28042419999838,None,,001,2022_May_10_1109,TMT_fmri,2021.2.3,122.71384113973052,
TMTstop-B_1_2.xlsx,26:52,C,['3'],3,TMTstop-B_1_2linestimulus3.png,TMTstop-B_1_2greenlinestimulus3.png,TMTstop-B_1_2redlinestimulus3.png,TMT_B,2,31,,,,,,,,,,,,,,,,,0,1,1,1,0,5,5,5,,,,,,,,,,,,,,,,,,,,,,,,,,,,,,,2,0,121.81073490000563,None,"['2', '3']",1,"[-0.09509769998840056, 0.048240100004477426]",121.81073490000563,None,,001,2022_May_10_1109,TMT_fmri,2021.2.3,122.71384113973052,
TMTstop-B_1_2.xlsx,26:52,4,['2'],2,TMTstop-B_1_2linestimulus4.png,TMTstop-B_1_2greenlinestimulus4.png,TMTstop-B_1_2redlinestimulus4.png,TMT_B,2,32,,,,,,,,,,,,,,,,,0,1,1,1,0,6,6,6,,,,,,,,,,,,,,,,,,,,,,,,,,,,,,,2,0,122.0772752000048,None,"['1', '2']",1,"[-0.043231700008618645, -0.0042138999997405335]",122.0772752000048,None,,001,2022_May_10_1109,TMT_fmri,2021.2.3,122.71384113973052,
TMTstop-B_1_2.xlsx,26:52,D,['1'],1,TMTstop-B_1_2linestimulus5.png,TMTstop-B_1_2greenlinestimulus5.png,TMTstop-B_1_2redlinestimulus5.png,TMT_B,2,33,,,,,,,,,,,,,,,,,0,1,1,1,0,7,7,7,,,,,,,,,,,,,,,,,,,,,,,,,,,,,,,2,0,122.21473019999394,None,"['3', '1']",1,"[0.03745450000860728, 0.25094140000874177]",122.21473019999394,None,,001,2022_May_10_1109,TMT_fmri,2021.2.3,122.71384113973052,
TMTstop-B_1_2.xlsx,26:52,5,['2'],2,TMTstop-B_1_2linestimulus6.png,TMTstop-B_1_2greenlinestimulus6.png,TMTstop-B_1_2redlinestimulus6.png,TMT_B,2,34,,,,,,,,,,,,,,,,,0,1,1,1,0,8,8,8,,,,,,,,,,,,,,,,,,,,,,,,,,,,,,,1,1,122.60848150000675,None,['2'],1,[-0.05413760000374168],122.60848150000675,None,,001,2022_May_10_1109,TMT_fmri,2021.2.3,122.71384113973052,
TMTstop-B_1_2.xlsx,26:52,E,['3'],3,TMTstop-B_1_2linestimulus7.png,TMTstop-B_1_2greenlinestimulus7.png,TMTstop-B_1_2redlinestimulus7.png,TMT_B,2,35,,,,,,,,,,,,,,,,,0,1,1,1,0,9,9,9,,,,,,,,,,,,,,,,,,,,,,,,,,,,,,,1,1,122.73355610000726,None,['3'],1,[-0.02531190001172945],122.73355610000726,None,,001,2022_May_10_1109,TMT_fmri,2021.2.3,122.71384113973052,
TMTstop-B_1_2.xlsx,26:52,6,['1'],1,TMTstop-B_1_2linestimulus8.png,TMTstop-B_1_2greenlinestimulus8.png,TMTstop-B_1_2redlinestimulus8.png,TMT_B,2,36,,,,,,,,,,,,,,,,,0,1,1,1,0,10,10,10,,,,,,,,,,,,,,,,,,,,,,,,,,,,,,,1,1,122.85828610000317,None,['1'],1,[0.04016730000148527],122.85828610000317,None,,001,2022_May_10_1109,TMT_fmri,2021.2.3,122.71384113973052,
TMTstop-B_1_2.xlsx,26:52,F,['3'],3,TMTstop-B_1_2linestimulus9.png,TMTstop-B_1_2greenlinestimulus9.png,TMTstop-B_1_2redlinestimulus9.png,TMT_B,2,37,,,,,,,,,,,,,,,,,0,1,1,1,0,11,11,11,,,,,,,,,,,,,,,,,,,,,,,,,,,,,,,2,0,123.12291849999747,None,"['2', '3']",1,"[-0.09150539999245666, -0.04497309999715071]",123.12291849999747,None,,001,2022_May_10_1109,TMT_fmri,2021.2.3,122.71384113973052,
TMTstop-B_1_2.xlsx,26:52,7,['1'],1,TMTstop-B_1_2linestimulus10.png,TMTstop-B_1_2greenlinestimulus10.png,TMTstop-B_1_2redlinestimulus10.png,TMT_B,2,38,,,,,,,,,,,,,,,,,0,1,1,1,0,12,12,12,,,,,,,,,,,,,,,,,,,,,,,,,,,,,,,1,1,123.25001820000762,None,['1'],1,[0.009526299996650778],123.25001820000762,None,,001,2022_May_10_1109,TMT_fmri,2021.2.3,122.71384113973052,
TMTstop-B_1_2.xlsx,26:52,G,['2'],2,TMTstop-B_1_2linestimulus11.png,TMTstop-B_1_2greenlinestimulus11.png,TMTstop-B_1_2redlinestimulus11.png,TMT_B,2,39,,,,,,,,,,,,,,,,,0,1,1,1,0,13,13,13,,,,,,,,,,,,,,,,,,,,,,,,,,,,,,,1,1,123.37498480000068,None,['2'],1,[-0.014681400003610179],123.37498480000068,None,,001,2022_May_10_1109,TMT_fmri,2021.2.3,122.71384113973052,
TMTstop-B_1_2.xlsx,26:52,8,['1'],1,TMTstop-B_1_2linestimulus12.png,TMTstop-B_1_2greenlinestimulus12.png,TMTstop-B_1_2redlinestimulus12.png,TMT_B,2,40,,,,,,,,,,,,,,,,,0,1,1,1,0,14,14,14,,,,,,,,,,,,,,,,,,,,,,,,,,,,,,,2,0,123.50019020000764,None,"['3', '1']",1,"[-0.05223830000613816, 0.16770249999535736]",123.50019020000764,None,,001,2022_May_10_1109,TMT_fmri,2021.2.3,122.71384113973052,
TMTstop-B_1_2.xlsx,26:52,H,['2'],2,TMTstop-B_1_2linestimulus13.png,TMTstop-B_1_2greenlinestimulus13.png,TMTstop-B_1_2redlinestimulus13.png,TMT_B,2,41,,,,,,,,,,,,,,,,,0,1,1,1,0,15,15,15,,,,,,,,,,,,,,,,,,,,,,,,,,,,,,,1,1,123.75422859999526,None,['2'],1,[0.0005907000013394281],123.75422859999526,None,,001,2022_May_10_1109,TMT_fmri,2021.2.3,122.71384113973052,
TMTstop-B_1_2.xlsx,26:52,9,['3'],3,TMTstop-B_1_2linestimulus14.png,TMTstop-B_1_2greenlinestimulus14.png,TMTstop-B_1_2redlinestimulus14.png,TMT_B,2,42,,,,,,,,,,,,,,,,,0,1,1,1,0,16,16,16,,,,,,,,,,,,,,,,,,,,,,,,,,,,,,,1,1,123.8784222999966,None,['3'],1,[-0.016607900004601106],123.8784222999966,None,,001,2022_May_10_1109,TMT_fmri,2021.2.3,122.71384113973052,
TMTstop-B_1_2.xlsx,26:52,I,['1'],1,TMTstop-B_1_2linestimulus15.png,TMTstop-B_1_2greenlinestimulus15.png,TMTstop-B_1_2redlinestimulus15.png,TMT_B,2,43,,,,,,,,,,,,,,,,,0,1,1,1,0,17,17,17,,,,,,,,,,,,,,,,,,,,,,,,,,,,,,,1,1,124.00633420000668,None,['1'],1,[0.0014802000077906996],124.00633420000668,None,,001,2022_May_10_1109,TMT_fmri,2021.2.3,122.71384113973052,
TMTstop-B_1_2.xlsx,26:52,10,['2'],2,TMTstop-B_1_2linestimulus16.png,TMTstop-B_1_2greenlinestimulus16.png,TMTstop-B_1_2redlinestimulus16.png,TMT_B,2,44,,,,,,,,,,,,,,,,,0,1,1,1,0,18,18,18,,,,,,,,,,,,,,,,,,,,,,,,,,,,,,,1,1,124.13365760000306,None,['2'],1,[-0.06662940001115203],124.13365760000306,None,,001,2022_May_10_1109,TMT_fmri,2021.2.3,122.71384113973052,
TMTstop-B_1_2.xlsx,26:52,J,['1'],1,TMTstop-B_1_2linestimulus17.png,TMTstop-B_1_2greenlinestimulus17.png,TMTstop-B_1_2redlinestimulus17.png,TMT_B,2,45,,,,,,,,,,,,,,,,,0,1,1,1,0,19,19,19,,,,,,,,,,,,,,,,,,,,,,,,,,,,,,,2,0,124.276125400007,None,"['3', '1']",1,"[-0.09412439999869093, 0.06798590000835247]",124.276125400007,None,,001,2022_May_10_1109,TMT_fmri,2021.2.3,122.71384113973052,
TMTstop-B_1_2.xlsx,26:52,11,['3'],3,TMTstop-B_1_2linestimulus18.png,TMTstop-B_1_2greenlinestimulus18.png,TMTstop-B_1_2redlinestimulus18.png,TMT_B,2,46,,,,,,,,,,,,,,,,,0,1,1,1,0,20,20,20,,,,,,,,,,,,,,,,,,,,,,,,,,,,,,,2,0,124.53120979999949,None,"['2', '3']",1,"[-0.07818849998875521, -0.006190100000821985]",124.53120979999949,None,,001,2022_May_10_1109,TMT_fmri,2021.2.3,122.71384113973052,
TMTstop-B_1_2.xlsx,26:52,K,['2'],2,TMTstop-B_1_2linestimulus19.png,TMTstop-B_1_2greenlinestimulus19.png,TMTstop-B_1_2redlinestimulus19.png,TMT_B,2,47,,,,,,,,,,,,,,,,,0,1,1,1,0,21,21,21,,,,,,,,,,,,,,,,,,,,,,,,,,,,,,,2,0,124.65788280000561,None,"['1', '2']",1,"[0.2958890000008978, 0.3937614000024041]",124.65788280000561,None,,001,2022_May_10_1109,TMT_fmri,2021.2.3,122.71384113973052,
TMTstop-B_1_2.xlsx,26:52,12,['1'],1,TMTstop-B_1_2linestimulus20.png,TMTstop-B_1_2greenlinestimulus20.png,TMTstop-B_1_2redlinestimulus20.png,TMT_B,2,48,,,,,,,,,,,,,,,,,0,1,1,1,0,22,22,22,,,,,,,,,,,,,,,,,,,,,,,,,,,,,,,5,0,125.19113550000475,None,"['3', '1', '2', '3', '1']",1,"[-0.057214200001908466, 0.07503929999074899, 0.14249379999819212, 0.27055879999534227, 0.4052672999969218]",125.19113550000475,None,,001,2022_May_10_1109,TMT_fmri,2021.2.3,122.71384113973052,
TMTstop-B_1_2.xlsx,26:52,L,['2'],2,TMTstop-B_1_2linestimulus21.png,TMTstop-B_1_2greenlinestimulus21.png,TMTstop-B_1_2redlinestimulus21.png,TMT_B,2,49,,,,,,,,,,,,,,,,,0,1,1,1,0,23,23,23,,,,,,,,,,,,,,,,,,,,,,,,,,,,,,,1,1,125.72527450000052,None,['2'],1,[0.04426100000273436],125.72527450000052,None,,001,2022_May_10_1109,TMT_fmri,2021.2.3,122.71384113973052,
TMTstop-B_1_2.xlsx,26:52,13,['1'],1,TMTstop-B_1_2linestimulus22.png,TMTstop-B_1_2greenlinestimulus22.png,TMTstop-B_1_2redlinestimulus22.png,TMT_B,2,50,,,,,,,,,,,,,,,,,0,1,1,1,0,24,24,24,,,,,,,,,,,,,,,,,,,,,,,,,,,,,,,1,1,125.86528680000629,None,['1'],1,[0.28172060000360943],125.86528680000629,None,,001,2022_May_10_1109,TMT_fmri,2021.2.3,122.71384113973052,
TMTstop-B_1_2.xlsx,26:52,None,None,None,TMTstop-B_1_2linestimulus23.png,TMTstop-B_1_2greenlinestimulus23.png,TMTstop-B_1_2redlinestimulus23.png,TMT_B,2,Feedback_last,,,,,,,,,,,,,,,,,0,1,1,1,0,25,25,25,,,,,,,,,,,,,,,,,,,,,,,,,,,,,,,2,0,126.2567229999986,None,"['2', '3']",0,"[-0.05858899999293499, 0.09501889999955893]",126.2567229999986,None,,001,2022_May_10_1109,TMT_fmri,2021.2.3,122.71384113973052,
TMTstop-Control_1_5.xlsx,104:130,1,['3'],3,TMTstop-control_1_5.png,TMTstop-control_1_5.png,TMTstop-control_1_5.png,TMT_Control,5,101,,,,,,,,,,,,,,,,,,,,,,,,,0,0,0,0,0,0,0,0,,,,,,,,,,,,,,,,,,,,,,,3,0,140.40012639999622,None,"['1', '2', '3']",1,"[0.48097540000162553, 0.5670608999935212, 0.6682571999990614]",140.40012639999622,None,,001,2022_May_10_1109,TMT_fmri,2021.2.3,122.71384113973052,
TMTstop-Control_1_5.xlsx,104:130,2,['2'],2,TMTstop-control_1_5.png,TMTstop-control_1_5firstgreen.png,TMTstop-control_1_5firstred.png,TMT_Control,5,102,,,,,,,,,,,,,,,,,,,,,,,,,0,0,0,0,0,1,1,1,,,,,,,,,,,,,,,,,,,,,,,2,0,141.20870899999863,None,"['1', '2']",1,"[-0.0014787999971304089, 0.07135220000054687]",141.20870899999863,None,,001,2022_May_10_1109,TMT_fmri,2021.2.3,122.71384113973052,
TMTstop-Control_1_5.xlsx,104:130,3,['1'],1,TMTstop-control_1_5linestimulus0.png,TMTstop-control_1_5greenlinestimulus0.png,TMTstop-control_1_5redlinestimulus0.png,TMT_Control,5,103,,,,,,,,,,,,,,,,,,,,,,,,,0,0,0,0,0,2,2,2,,,,,,,,,,,,,,,,,,,,,,,2,0,141.4727872999938,None,"['3', '1']",1,"[-0.061850300000514835, 0.05965989999822341]",141.4727872999938,None,,001,2022_May_10_1109,TMT_fmri,2021.2.3,122.71384113973052,
TMTstop-Control_1_5.xlsx,104:130,4,['3'],3,TMTstop-control_1_5linestimulus1.png,TMTstop-control_1_5greenlinestimulus1.png,TMTstop-control_1_5redlinestimulus1.png,TMT_Control,5,104,,,,,,,,,,,,,,,,,,,,,,,,,0,0,0,0,0,3,3,3,,,,,,,,,,,,,,,,,,,,,,,2,0,141.67303160000301,None,"['2', '3']",1,"[-0.07362989999819547, 0.0331929000094533]",141.67303160000301,None,,001,2022_May_10_1109,TMT_fmri,2021.2.3,122.71384113973052,
TMTstop-Control_1_5.xlsx,104:130,5,['1'],1,TMTstop-control_1_5linestimulus2.png,TMTstop-control_1_5greenlinestimulus2.png,TMTstop-control_1_5redlinestimulus2.png,TMT_Control,5,105,,,,,,,,,,,,,,,,,,,,,,,,,0,0,0,0,0,4,4,4,,,,,,,,,,,,,,,,,,,,,,,1,1,141.80038519999653,None,['1'],1,[0.046980300001450814],141.80038519999653,None,,001,2022_May_10_1109,TMT_fmri,2021.2.3,122.71384113973052,
TMTstop-Control_1_5.xlsx,104:130,6,['2'],2,TMTstop-control_1_5linestimulus3.png,TMTstop-control_1_5greenlinestimulus3.png,TMTstop-control_1_5redlinestimulus3.png,TMT_Control,5,106,,,,,,,,,,,,,,,,,,,,,,,,,0,0,0,0,0,5,5,5,,,,,,,,,,,,,,,,,,,,,,,1,1,141.94481260000612,None,['2'],1,[-0.006294599996181205],141.94481260000612,None,,001,2022_May_10_1109,TMT_fmri,2021.2.3,122.71384113973052,
TMTstop-Control_1_5.xlsx,104:130,7,['3'],3,TMTstop-control_1_5linestimulus4.png,TMTstop-control_1_5greenlinestimulus4.png,TMTstop-control_1_5redlinestimulus4.png,TMT_Control,5,107,,,,,,,,,,,,,,,,,,,,,,,,,0,0,0,0,0,6,6,6,,,,,,,,,,,,,,,,,,,,,,,1,1,142.06467170000542,None,['3'],1,[-0.01504189999832306],142.06467170000542,None,,001,2022_May_10_1109,TMT_fmri,2021.2.3,122.71384113973052,
TMTstop-Control_1_5.xlsx,104:130,8,['2'],2,TMTstop-control_1_5linestimulus4.png,TMTstop-control_1_5greenlinestimulus5.png,TMTstop-control_1_5redlinestimulus5.png,TMT_Control,5,108,,,,,,,,,,,,,,,,,,,,,,,,,0,0,0,0,0,7,7,7,,,,,,,,,,,,,,,,,,,,,,,2,0,142.1892641000013,None,"['1', '2']",1,"[0.009976999994250946, 0.10769469999650028]",142.1892641000013,None,,001,2022_May_10_1109,TMT_fmri,2021.2.3,122.71384113973052,
TMTstop-Control_1_5.xlsx,104:130,9,['1'],1,TMTstop-control_1_5linestimulus6.png,TMTstop-control_1_5greenlinestimulus6.png,TMTstop-control_1_5redlinestimulus6.png,TMT_Control,5,109,,,,,,,,,,,,,,,,,,,,,,,,,0,0,0,0,0,8,8,8,,,,,,,,,,,,,,,,,,,,,,,2,0,142.39460430000327,None,"['3', '1']",1,"[0.03923600001144223, 0.3761957000097027]",142.39460430000327,None,,001,2022_May_10_1109,TMT_fmri,2021.2.3,122.71384113973052,
TMTstop-Control_1_5.xlsx,104:130,10,['2'],2,TMTstop-control_1_5linestimulus7.png,TMTstop-control_1_5greenlinestimulus7.png,TMTstop-control_1_5redlinestimulus7.png,TMT_Control,5,110,,,,,,,,,,,,,,,,,,,,,,,,,0,0,0,0,0,9,9,9,,,,,,,,,,,,,,,,,,,,,,,1,1,142.84468140000536,None,['2'],1,[-0.01165130001027137],142.84468140000536,None,,001,2022_May_10_1109,TMT_fmri,2021.2.3,122.71384113973052,
TMTstop-Control_1_5.xlsx,104:130,11,['1'],1,TMTstop-control_1_5linestimulus8.png,TMTstop-control_1_5greenlinestimulus8.png,TMTstop-control_1_5redlinestimulus8.png,TMT_Control,5,111,,,,,,,,,,,,,,,,,,,,,,,,,0,0,0,0,0,10,10,10,,,,,,,,,,,,,,,,,,,,,,,2,0,142.9195755999972,None,"['3', '1']",1,"[0.06516160001046956, 0.22361020000244025]",142.9195755999972,None,,001,2022_May_10_1109,TMT_fmri,2021.2.3,122.71384113973052,
TMTstop-Control_1_5.xlsx,104:130,12,['3'],3,TMTstop-control_1_5linestimulus9.png,TMTstop-control_1_5greenlinestimulus9.png,TMTstop-control_1_5redlinestimulus9.png,TMT_Control,5,112,,,,,,,,,,,,,,,,,,,,,,,,,0,0,0,0,0,11,11,11,,,,,,,,,,,,,,,,,,,,,,,2,0,143.24542279999878,None,"['2', '3']",1,"[-0.023431199995684437, 0.12470460000622552]",143.24542279999878,None,,001,2022_May_10_1109,TMT_fmri,2021.2.3,122.71384113973052,
TMTstop-Control_1_5.xlsx,104:130,13,['2'],2,TMTstop-control_1_5linestimulus10.png,TMTstop-control_1_5greenlinestimulus10.png,TMTstop-control_1_5redlinestimulus10.png,TMT_Control,5,113,,,,,,,,,,,,,,,,,,,,,,,,,0,0,0,0,0,12,12,12,,,,,,,,,,,,,,,,,,,,,,,2,0,143.4448388000019,None,"['1', '2']",1,"[0.030058200005441904, 0.1253679000074044]",143.4448388000019,None,,001,2022_May_10_1109,TMT_fmri,2021.2.3,122.71384113973052,
TMTstop-Control_1_5.xlsx,104:130,14,['3'],3,TMTstop-control_1_5linestimulus11.png,TMTstop-control_1_5greenlinestimulus11.png,TMTstop-control_1_5redlinestimulus11.png,TMT_Control,5,114,,,,,,,,,,,,,,,,,,,,,,,,,0,0,0,0,0,13,13,13,,,,,,,,,,,,,,,,,,,,,,,1,1,143.64484629999788,None,['3'],1,[0.029153399998904206],143.64484629999788,None,,001,2022_May_10_1109,TMT_fmri,2021.2.3,122.71384113973052,
TMTstop-Control_1_5.xlsx,104:130,15,['1'],1,TMTstop-control_1_5linestimulus12.png,TMTstop-control_1_5greenlinestimulus12.png,TMTstop-control_1_5redlinestimulus12.png,TMT_Control,5,115,,,,,,,,,,,,,,,,,,,,,,,,,0,0,0,0,0,14,14,14,,,,,,,,,,,,,,,,,,,,,,,1,1,143.7616670999996,None,['1'],1,[0.03754710000066552],143.7616670999996,None,,001,2022_May_10_1109,TMT_fmri,2021.2.3,122.71384113973052,
