NumberLetter,corrAns,Correct,StimFile,Correct_StimFile,False_StimFile,Version,Paper,TrialNumber_Version,Round,Block,n,Stim.started_mean,Stim.started_raw,Stim.started_std,Stim.stopped_raw,key_resp_2.corr_mean,key_resp_2.corr_raw,key_resp_2.corr_std,key_resp_2.keys_raw,key_resp_2.rt_raw,key_resp_2.started_mean,key_resp_2.started_raw,key_resp_2.started_std,key_resp_2.stopped_raw,order
1,['3'],3,TMTstop-B_1_1.png,TMTstop-B_1_1.png,TMTstop-B_1_1.png,TMT_B,1,1,1,3,1.0,156.53213500976562,156.53213500976562,0.0,,1.0,1.0,0.0,1,2,3,0.5562648000050103,0.638794999998936,0.7794400999991922,156.53213500976562,156.53213500976562,0.0,,0.0
A,['1'],1,TMTstop-B_1_1.png,TMTstop-B_1_1firstgreen.png,TMTstop-B_1_1firstred.png,TMT_B,1,2,None,3,1.0,157.3740234375,157.3740234375,0.0,,1.0,1.0,0.0,1,0.12213110000448069,157.3740234375,157.3740234375,0.0,,1.0
2,['3'],3,TMTstop-B_1_1linestimulus0.png,TMTstop-B_1_1greenlinestimulus0.png,TMTstop-B_1_1redlinestimulus0.png,TMT_B,1,3,None,3,1.0,157.56109619140625,157.56109619140625,0.0,,1.0,1.0,0.0,2,3,-0.01960460000555031,0.14388450000114972,157.56109619140625,157.56109619140625,0.0,,2.0
B,['2'],2,TMTstop-B_1_1linestimulus1.png,TMTstop-B_1_1greenlinestimulus1.png,TMTstop-B_1_1redlinestimulus1.png,TMT_B,1,4,None,3,1.0,157.75413513183594,157.75413513183594,0.0,,1.0,1.0,0.0,1,2,0.15002790000289679,0.1756710000045132,157.75413513183594,157.75413513183594,0.0,,3.0
3,['1'],1,TMTstop-B_1_1linestimulus2.png,TMTstop-B_1_1greenlinestimulus2.png,TMTstop-B_1_1redlinestimulus2.png,TMT_B,1,5,None,3,1.0,157.99517822265625,157.99517822265625,0.0,,1.0,1.0,0.0,3,1,2,3,1,0.08807249999517808,0.3073502999977791,0.32583019999583485,0.48407700000097975,0.6532103999998071,157.99517822265625,157.99517822265625,0.0,,4.0
C,['3'],3,TMTstop-B_1_1linestimulus3.png,TMTstop-B_1_1greenlinestimulus3.png,TMTstop-B_1_1redlinestimulus3.png,TMT_B,1,6,None,3,1.0,158.70010375976562,158.70010375976562,0.0,,1.0,1.0,0.0,2,3,0.0052829000051133335,0.14656720000493806,158.70010375976562,158.70010375976562,0.0,,5.0
4,['2'],2,TMTstop-B_1_1linestimulus4.png,TMTstop-B_1_1greenlinestimulus4.png,TMTstop-B_1_1redlinestimulus4.png,TMT_B,1,7,None,3,1.0,158.94024658203125,158.94024658203125,0.0,,1.0,1.0,0.0,1,2,0.09310749999713153,0.14293109999562148,158.94024658203125,158.94024658203125,0.0,,6.0
D,['1'],1,TMTstop-B_1_1linestimulus5.png,TMTstop-B_1_1greenlinestimulus5.png,TMTstop-B_1_1redlinestimulus5.png,TMT_B,1,8,None,3,1.0,159.146484375,159.146484375,0.0,,1.0,1.0,0.0,3,1,0.06188339999789605,0.2545962000003783,159.146484375,159.146484375,0.0,,7.0
5,['3'],3,TMTstop-B_1_1linestimulus6.png,TMTstop-B_1_1greenlinestimulus6.png,TMTstop-B_1_1redlinestimulus6.png,TMT_B,1,9,None,3,1.0,159.45896911621094,159.45896911621094,0.0,,1.0,1.0,0.0,2,3,-0.031430299997737166,0.12352230000396958,159.45896911621094,159.45896911621094,0.0,,8.0
E,['1'],1,TMTstop-B_1_1linestimulus7.png,TMTstop-B_1_1greenlinestimulus7.png,TMTstop-B_1_1redlinestimulus7.png,TMT_B,1,10,None,3,1.0,159.65933227539062,159.65933227539062,0.0,,1.0,1.0,0.0,1,0.09755949999816949,159.65933227539062,159.65933227539062,0.0,,9.0
6,['3'],3,TMTstop-B_1_1linestimulus8.png,TMTstop-B_1_1greenlinestimulus8.png,TMTstop-B_1_1redlinestimulus8.png,TMT_B,1,11,None,3,1.0,159.80995178222656,159.80995178222656,0.0,,1.0,1.0,0.0,2,3,-0.011111899999377783,0.13994890000321902,159.80995178222656,159.80995178222656,0.0,,10.0
F,['1'],1,TMTstop-B_1_1linestimulus9.png,TMTstop-B_1_1greenlinestimulus9.png,TMTstop-B_1_1redlinestimulus9.png,TMT_B,1,12,None,3,1.0,160.02313232421875,160.02313232421875,0.0,,1.0,1.0,0.0,1,0.08858169999439269,160.02313232421875,160.02313232421875,0.0,,11.0
7,['3'],3,TMTstop-B_1_1linestimulus10.png,TMTstop-B_1_1greenlinestimulus10.png,TMTstop-B_1_1redlinestimulus10.png,TMT_B,1,13,None,3,1.0,160.17324829101562,160.17324829101562,0.0,,1.0,1.0,0.0,2,3,-0.03176839999650838,0.12148220000381116,160.17324829101562,160.17324829101562,0.0,,12.0
G,['2'],2,TMTstop-B_1_1linestimulus11.png,TMTstop-B_1_1greenlinestimulus11.png,TMTstop-B_1_1redlinestimulus11.png,TMT_B,1,14,None,3,1.0,160.3866729736328,160.3866729736328,0.0,,1.0,1.0,0.0,1,2,0.05353760000434704,0.11685399999987567,160.3866729736328,160.3866729736328,0.0,,13.0
8,['3'],3,TMTstop-B_1_1linestimulus12.png,TMTstop-B_1_1greenlinestimulus12.png,TMTstop-B_1_1redlinestimulus12.png,TMT_B,1,15,None,3,1.0,160.5598602294922,160.5598602294922,0.0,,1.0,1.0,0.0,3,0.09537139999883948,160.5598602294922,160.5598602294922,0.0,,14.0
H,['1'],1,TMTstop-B_1_1linestimulus13.png,TMTstop-B_1_1greenlinestimulus13.png,TMTstop-B_1_1redlinestimulus13.png,TMT_B,1,16,None,3,1.0,160.71009826660156,160.71009826660156,0.0,,1.0,1.0,0.0,1,0.09971289999521105,160.71009826660156,160.71009826660156,0.0,,15.0
9,['3'],3,TMTstop-B_1_1linestimulus14.png,TMTstop-B_1_1greenlinestimulus14.png,TMTstop-B_1_1redlinestimulus14.png,TMT_B,1,17,None,3,1.0,160.86842346191406,160.86842346191406,0.0,,1.0,1.0,0.0,2,3,-0.015398799994727597,0.1393504000006942,160.86842346191406,160.86842346191406,0.0,,16.0
I,['2'],2,TMTstop-B_1_1linestimulus15.png,TMTstop-B_1_1greenlinestimulus15.png,TMTstop-B_1_1redlinestimulus15.png,TMT_B,1,18,None,3,1.0,161.0819549560547,161.0819549560547,0.0,,1.0,1.0,0.0,1,2,0.09498910000547767,0.1420012000016868,161.0819549560547,161.0819549560547,0.0,,17.0
10,['3'],3,TMTstop-B_1_1linestimulus16.png,TMTstop-B_1_1greenlinestimulus16.png,TMTstop-B_1_1redlinestimulus16.png,TMT_B,1,19,None,3,1.0,161.2821807861328,161.2821807861328,0.0,,1.0,1.0,0.0,3,0.12452299999858951,161.2821807861328,161.2821807861328,0.0,,18.0
J,['2'],2,TMTstop-B_1_1linestimulus17.png,TMTstop-B_1_1greenlinestimulus17.png,TMTstop-B_1_1redlinestimulus17.png,TMT_B,1,20,None,3,1.0,161.47349548339844,161.47349548339844,0.0,,1.0,1.0,0.0,1,2,0.090232599999581,0.14256919999752427,161.47349548339844,161.47349548339844,0.0,,19.0
11,['1'],1,TMTstop-B_1_1linestimulus18.png,TMTstop-B_1_1greenlinestimulus18.png,TMTstop-B_1_1redlinestimulus18.png,TMT_B,1,21,None,3,1.0,161.71421813964844,161.71421813964844,0.0,,1.0,1.0,0.0,3,1,0.09558160000597127,0.24537880000571022,161.71421813964844,161.71421813964844,0.0,,20.0
K,['2'],2,TMTstop-B_1_1linestimulus19.png,TMTstop-B_1_1greenlinestimulus19.png,TMTstop-B_1_1redlinestimulus19.png,TMT_B,1,22,None,3,1.0,162.02708435058594,162.02708435058594,0.0,,1.0,1.0,0.0,2,-0.017015500001434702,162.02708435058594,162.02708435058594,0.0,,21.0
12,['1'],1,TMTstop-B_1_1linestimulus20.png,TMTstop-B_1_1greenlinestimulus20.png,TMTstop-B_1_1redlinestimulus20.png,TMT_B,1,23,None,3,1.0,162.07652282714844,162.07652282714844,0.0,,1.0,1.0,0.0,3,1,0.11384669999824837,0.2694006999954581,162.07652282714844,162.07652282714844,0.0,,22.0
L,['2'],2,TMTstop-B_1_1linestimulus21.png,TMTstop-B_1_1greenlinestimulus21.png,TMTstop-B_1_1redlinestimulus21.png,TMT_B,1,24,None,3,1.0,162.4065399169922,162.4065399169922,0.0,,1.0,1.0,0.0,2,0.004811499995412305,162.4065399169922,162.4065399169922,0.0,,23.0
13,['1'],1,TMTstop-B_1_1linestimulus22.png,TMTstop-B_1_1greenlinestimulus22.png,TMTstop-B_1_1redlinestimulus22.png,TMT_B,1,25,None,3,1.0,162.47976684570312,162.47976684570312,0.0,,1.0,1.0,0.0,3,1,0.10253010000451468,0.26839960000506835,162.47976684570312,162.47976684570312,0.0,,24.0
None,None,None,TMTstop-B_1_1linestimulus23.png,TMTstop-B_1_1greenlinestimulus23.png,TMTstop-B_1_1redlinestimulus23.png,TMT_B,1,Feedback_last,None,3,1.0,162.80929565429688,162.80929565429688,0.0,,0.0,0.0,0.0,2,3,0.0036959000062779523,0.15931790000468027,162.80929565429688,162.80929565429688,0.0,,25.0

extraInfo
participant,
session,001
date,2022_May_23_1222
expName,TMT_fmri
psychopyVersion,2021.2.3
frameRate,59.98821831237917
﻿NumberLetter,corrAns,Correct,StimFile,Correct_StimFile,False_StimFile,Version,Paper,TrialNumber_Version,Round,Block,n,Stim.started_mean,Stim.started_raw,Stim.started_std,Stim.stopped_raw,key_resp_2.corr_mean,key_resp_2.corr_raw,key_resp_2.corr_std,key_resp_2.keys_raw,key_resp_2.rt_raw,key_resp_2.started_mean,key_resp_2.started_raw,key_resp_2.started_std,key_resp_2.stopped_raw,order
1,['1'],1,TMTstop-B_1_2.png,TMTstop-B_1_2.png,TMTstop-B_1_2.png,TMT_B,2,26,None,3,1.0,166.91741943359375,166.91741943359375,0.0,,1.0,1.0,0.0,1,0.45121719999588095,166.91741943359375,166.91741943359375,0.0,,0.0
A,['2'],2,TMTstop-B_1_2.png,TMTstop-B_1_2firstgreen.png,TMTstop-B_1_2firstred.png,TMT_B,2,27,None,3,1.0,167.42660522460938,167.42660522460938,0.0,,1.0,1.0,0.0,2,0.03926599999977043,167.42660522460938,167.42660522460938,0.0,,1.0
2,['1'],1,TMTstop-B_1_2linestimulus0.png,TMTstop-B_1_2greenlinestimulus0.png,TMTstop-B_1_2redlinestimulus0.png,TMT_B,2,28,None,3,1.0,167.5263214111328,167.5263214111328,0.0,,1.0,1.0,0.0,3,1,0.049642099998891354,0.21530930000153603,167.5263214111328,167.5263214111328,0.0,,2.0
B,['2'],2,TMTstop-B_1_2linestimulus1.png,TMTstop-B_1_2greenlinestimulus1.png,TMTstop-B_1_2redlinestimulus1.png,TMT_B,2,29,None,3,1.0,167.82199096679688,167.82199096679688,0.0,,1.0,1.0,0.0,2,-0.03114419999474194,167.82199096679688,167.82199096679688,0.0,,3.0
3,['1'],1,TMTstop-B_1_2linestimulus2.png,TMTstop-B_1_2greenlinestimulus2.png,TMTstop-B_1_2redlinestimulus2.png,TMT_B,2,30,None,3,1.0,167.8719482421875,167.8719482421875,0.0,,1.0,1.0,0.0,3,1,0.032915800002228934,0.18575540000165347,167.8719482421875,167.8719482421875,0.0,,4.0
C,['3'],3,TMTstop-B_1_2linestimulus3.png,TMTstop-B_1_2greenlinestimulus3.png,TMTstop-B_1_2redlinestimulus3.png,TMT_B,2,31,None,3,1.0,168.11236572265625,168.11236572265625,0.0,,1.0,1.0,0.0,2,3,-0.022601300006499514,0.11396959999547107,168.11236572265625,168.11236572265625,0.0,,5.0
4,['2'],2,TMTstop-B_1_2linestimulus4.png,TMTstop-B_1_2greenlinestimulus4.png,TMTstop-B_1_2redlinestimulus4.png,TMT_B,2,32,None,3,1.0,168.31256103515625,168.31256103515625,0.0,,1.0,1.0,0.0,1,2,0.07880760000261944,0.14586789999884786,168.31256103515625,168.31256103515625,0.0,,6.0
D,['1'],1,TMTstop-B_1_2linestimulus5.png,TMTstop-B_1_2greenlinestimulus5.png,TMTstop-B_1_2redlinestimulus5.png,TMT_B,2,33,None,3,1.0,168.5458221435547,168.5458221435547,0.0,,1.0,1.0,0.0,3,1,0.03274369999417104,0.17625659999612253,168.5458221435547,168.5458221435547,0.0,,7.0
5,['2'],2,TMTstop-B_1_2linestimulus6.png,TMTstop-B_1_2greenlinestimulus6.png,TMTstop-B_1_2redlinestimulus6.png,TMT_B,2,34,None,3,1.0,168.80421447753906,168.80421447753906,0.0,,1.0,1.0,0.0,2,-0.044161899997561704,168.80421447753906,168.80421447753906,0.0,,8.0
E,['3'],3,TMTstop-B_1_2linestimulus7.png,TMTstop-B_1_2greenlinestimulus7.png,TMTstop-B_1_2redlinestimulus7.png,TMT_B,2,35,None,3,1.0,168.85397338867188,168.85397338867188,0.0,,1.0,1.0,0.0,3,0.04980709999654209,168.85397338867188,168.85397338867188,0.0,,9.0
6,['1'],1,TMTstop-B_1_2linestimulus8.png,TMTstop-B_1_2greenlinestimulus8.png,TMTstop-B_1_2redlinestimulus8.png,TMT_B,2,36,None,3,1.0,168.9537353515625,168.9537353515625,0.0,,1.0,1.0,0.0,1,0.09401159999833908,168.9537353515625,168.9537353515625,0.0,,10.0
F,['3'],3,TMTstop-B_1_2linestimulus9.png,TMTstop-B_1_2greenlinestimulus9.png,TMTstop-B_1_2redlinestimulus9.png,TMT_B,2,37,None,3,1.0,169.10452270507812,169.10452270507812,0.0,,1.0,1.0,0.0,2,3,-0.01104230000055395,0.14868869999918388,169.10452270507812,169.10452270507812,0.0,,11.0
7,['1'],1,TMTstop-B_1_2linestimulus10.png,TMTstop-B_1_2greenlinestimulus10.png,TMTstop-B_1_2redlinestimulus10.png,TMT_B,2,38,None,3,1.0,169.34947204589844,169.34947204589844,0.0,,1.0,1.0,0.0,1,0.06255850000161445,169.34947204589844,169.34947204589844,0.0,,12.0
G,['2'],2,TMTstop-B_1_2linestimulus11.png,TMTstop-B_1_2greenlinestimulus11.png,TMTstop-B_1_2redlinestimulus11.png,TMT_B,2,39,None,3,1.0,169.46607971191406,169.46607971191406,0.0,,1.0,1.0,0.0,2,-0.016987700000754558,169.46607971191406,169.46607971191406,0.0,,13.0
8,['1'],1,TMTstop-B_1_2linestimulus12.png,TMTstop-B_1_2greenlinestimulus12.png,TMTstop-B_1_2redlinestimulus12.png,TMT_B,2,40,None,3,1.0,169.5230255126953,169.5230255126953,0.0,,1.0,1.0,0.0,3,1,2,3,1,0.07617169999866746,0.48160900000220863,0.48825480000232346,0.6939899999997579,0.8413029000003007,169.5230255126953,169.5230255126953,0.0,,14.0
H,['2'],2,TMTstop-B_1_2linestimulus13.png,TMTstop-B_1_2greenlinestimulus13.png,TMTstop-B_1_2redlinestimulus13.png,TMT_B,2,41,None,3,1.0,170.4176788330078,170.4176788330078,0.0,,1.0,1.0,0.0,2,0.008346800001163501,170.4176788330078,170.4176788330078,0.0,,15.0
9,['3'],3,TMTstop-B_1_2linestimulus14.png,TMTstop-B_1_2greenlinestimulus14.png,TMTstop-B_1_2redlinestimulus14.png,TMT_B,2,42,None,3,1.0,170.5012969970703,170.5012969970703,0.0,,1.0,1.0,0.0,3,0.04721369999606395,170.5012969970703,170.5012969970703,0.0,,16.0
I,['1'],1,TMTstop-B_1_2linestimulus15.png,TMTstop-B_1_2greenlinestimulus15.png,TMTstop-B_1_2redlinestimulus15.png,TMT_B,2,43,None,3,1.0,170.60140991210938,170.60140991210938,0.0,,1.0,1.0,0.0,1,0.09913950000191107,170.60140991210938,170.60140991210938,0.0,,17.0
10,['2'],2,TMTstop-B_1_2linestimulus16.png,TMTstop-B_1_2greenlinestimulus16.png,TMTstop-B_1_2redlinestimulus16.png,TMT_B,2,44,None,3,1.0,170.75164794921875,170.75164794921875,0.0,,1.0,1.0,0.0,2,0.008140800004184712,170.75164794921875,170.75164794921875,0.0,,18.0
J,['1'],1,TMTstop-B_1_2linestimulus17.png,TMTstop-B_1_2greenlinestimulus17.png,TMTstop-B_1_2redlinestimulus17.png,TMT_B,2,45,None,3,1.0,170.8183135986328,170.8183135986328,0.0,,1.0,1.0,0.0,3,1,0.07246699999814155,0.2232425999973202,170.8183135986328,170.8183135986328,0.0,,19.0
11,['3'],3,TMTstop-B_1_2linestimulus18.png,TMTstop-B_1_2greenlinestimulus18.png,TMTstop-B_1_2redlinestimulus18.png,TMT_B,2,46,None,3,1.0,171.10800170898438,171.10800170898438,0.0,,1.0,1.0,0.0,2,3,-0.037875699999858625,0.14370909999706782,171.10800170898438,171.10800170898438,0.0,,20.0
K,['2'],2,TMTstop-B_1_2linestimulus19.png,TMTstop-B_1_2greenlinestimulus19.png,TMTstop-B_1_2redlinestimulus19.png,TMT_B,2,47,None,3,1.0,171.30819702148438,171.30819702148438,0.0,,1.0,1.0,0.0,1,2,0.08215239999844925,0.1156390999967698,171.30819702148438,171.30819702148438,0.0,,21.0
12,['1'],1,TMTstop-B_1_2linestimulus20.png,TMTstop-B_1_2greenlinestimulus20.png,TMTstop-B_1_2redlinestimulus20.png,TMT_B,2,48,None,3,1.0,171.51312255859375,171.51312255859375,0.0,,1.0,1.0,0.0,3,1,0.07798650000040652,0.21210699999937788,171.51312255859375,171.51312255859375,0.0,,22.0
L,['2'],2,TMTstop-B_1_2linestimulus21.png,TMTstop-B_1_2greenlinestimulus21.png,TMTstop-B_1_2redlinestimulus21.png,TMT_B,2,49,None,3,1.0,171.8074188232422,171.8074188232422,0.0,,1.0,1.0,0.0,2,-0.029449399997247383,171.8074188232422,171.8074188232422,0.0,,23.0
13,['1'],1,TMTstop-B_1_2linestimulus22.png,TMTstop-B_1_2greenlinestimulus22.png,TMTstop-B_1_2redlinestimulus22.png,TMT_B,2,50,None,3,1.0,171.85699462890625,171.85699462890625,0.0,,1.0,1.0,0.0,3,1,0.0841943999985233,0.25974590000259923,171.85699462890625,171.85699462890625,0.0,,24.0
None,None,None,TMTstop-B_1_2linestimulus23.png,TMTstop-B_1_2greenlinestimulus23.png,TMTstop-B_1_2redlinestimulus23.png,TMT_B,2,Feedback_last,None,3,1.0,172.20132446289062,172.20132446289062,0.0,,0.0,0.0,0.0,2,3,1,2,3,1,2,-0.04311009999946691,0.17879860000539338,0.3893690000040806,0.4326693000039086,0.635631100005412,0.7957836000059615,0.8546372999990126,172.20132446289062,172.20132446289062,0.0,,25.0

extraInfo
participant,
session,001
date,2022_May_23_1222
expName,TMT_fmri
psychopyVersion,2021.2.3
frameRate,59.98821831237917
