Block_file,Condition_rows,NumberLetter,corrAns,Correct,StimFile,Correct_StimFile,False_StimFile,Block,TrialNumber_session,restartpractice.thisRepN,restartpractice.thisTrialN,restartpractice.thisN,restartpractice.thisIndex,trials_practice.thisRepN,trials_practice.thisTrialN,trials_practice.thisN,trials_practice.thisIndex,Blocks_loop.thisRepN,Blocks_loop.thisTrialN,Blocks_loop.thisN,Blocks_loop.thisIndex,trials.thisRepN,trials.thisTrialN,trials.thisN,trials.thisIndex,Attempts,First_attempt,Stim.started,Stim.stopped,key_resp_2.keys,key_resp_2.corr,key_resp_2.rt,key_resp_2.started,key_resp_2.stopped,participant,session,date,expName,psychopyVersion,frameRate,
TMTstop-A_1_1.xlsx,0:26,1,['2'],2,TMTstop-A_1_1.png,TMTstop-A_1_1.png,TMTstop-A_1_1.png,1,1,,,,,,,,,0,0,0,0,0,0,0,0,1,1,20.408400300191715,None,['2'],1,[0.4050658999476582],20.408400300191715,None,,001,2022_Feb_02_1448,TMTAstop-A,2021.2.3,144.95610722651287,
TMTstop-A_1_1.xlsx,0:26,2,['1'],1,TMTstop-A_1_1.png,TMTstop-A_1_1firstgreen.png,TMTstop-A_1_1firstred.png,1,2,,,,,,,,,0,0,0,0,0,1,1,1,2,1,20.894434000132605,None,"['3', '1']",1,"[0.16504519991576672, 0.17012430005706847]",20.894434000132605,None,,001,2022_Feb_02_1448,TMTAstop-A,2021.2.3,144.95610722651287,
TMTstop-A_1_1.xlsx,0:26,3,['2'],2,TMTstop-A_1_1linestimulus0.png,TMTstop-A_1_1greenlinestimulus0.png,TMTstop-A_1_1redlinestimulus0.png,1,3,,,,,,,,,0,0,0,0,0,2,2,2,1,1,21.137424500193447,None,['2'],1,[0.0878700998146087],21.137424500193447,None,,001,2022_Feb_02_1448,TMTAstop-A,2021.2.3,144.95610722651287,
TMTstop-A_1_1.xlsx,0:26,4,['3'],3,TMTstop-A_1_1linestimulus1.png,TMTstop-A_1_1greenlinestimulus1.png,TMTstop-A_1_1redlinestimulus1.png,1,4,,,,,,,,,0,0,0,0,0,3,3,3,1,1,21.300968500087038,None,['3'],1,[0.04309950000606477],21.300968500087038,None,,001,2022_Feb_02_1448,TMTAstop-A,2021.2.3,144.95610722651287,
TMTstop-A_1_1.xlsx,0:26,5,['2'],2,TMTstop-A_1_1linestimulus2.png,TMTstop-A_1_1greenlinestimulus2.png,TMTstop-A_1_1redlinestimulus2.png,1,5,,,,,,,,,0,0,0,0,0,4,4,4,2,1,21.421720900107175,None,"['1', '2']",1,"[0.07534940005280077, 0.14262669999152422]",21.421720900107175,None,,001,2022_Feb_02_1448,TMTAstop-A,2021.2.3,144.95610722651287,
TMTstop-A_1_1.xlsx,0:26,6,['3'],3,TMTstop-A_1_1linestimulus3.png,TMTstop-A_1_1greenlinestimulus3.png,TMTstop-A_1_1redlinestimulus3.png,1,6,,,,,,,,,0,0,0,0,0,5,5,5,1,1,21.65805700002238,None,['3'],1,[0.021236100001260638],21.65805700002238,None,,001,2022_Feb_02_1448,TMTAstop-A,2021.2.3,144.95610722651287,
TMTstop-A_1_1.xlsx,0:26,7,['2'],2,TMTstop-A_1_1linestimulus4.png,TMTstop-A_1_1greenlinestimulus4.png,TMTstop-A_1_1redlinestimulus4.png,1,7,,,,,,,,,0,0,0,0,0,6,6,6,2,1,21.76334060006775,None,"['1', '2']",1,"[0.05452420003712177, 0.15357149997726083]",21.76334060006775,None,,001,2022_Feb_02_1448,TMTAstop-A,2021.2.3,144.95610722651287,
TMTstop-A_1_1.xlsx,0:26,8,['1'],1,TMTstop-A_1_1linestimulus5.png,TMTstop-A_1_1greenlinestimulus5.png,TMTstop-A_1_1redlinestimulus5.png,1,8,,,,,,,,,0,0,0,0,0,7,7,7,2,1,22.020463300170377,None,"['3', '1']",1,"[-0.0016002999618649483, 0.14750860002823174]",22.020463300170377,None,,001,2022_Feb_02_1448,TMTAstop-A,2021.2.3,144.95610722651287,
TMTstop-A_1_1.xlsx,0:26,9,['2'],2,TMTstop-A_1_1linestimulus6.png,TMTstop-A_1_1greenlinestimulus6.png,TMTstop-A_1_1redlinestimulus6.png,1,9,,,,,,,,,0,0,0,0,0,8,8,8,1,1,22.269669300178066,None,['2'],1,[0.013820899883285165],22.269669300178066,None,,001,2022_Feb_02_1448,TMTAstop-A,2021.2.3,144.95610722651287,
TMTstop-A_1_1.xlsx,0:26,10,['1'],1,TMTstop-A_1_1linestimulus7.png,TMTstop-A_1_1greenlinestimulus7.png,TMTstop-A_1_1redlinestimulus7.png,1,10,,,,,,,,,0,0,0,0,0,9,9,9,2,1,22.37031100015156,None,"['3', '1']",1,"[-0.006395499920472503, 0.14173809997737408]",22.37031100015156,None,,001,2022_Feb_02_1448,TMTAstop-A,2021.2.3,144.95610722651287,
TMTstop-A_1_1.xlsx,0:26,11,['2'],2,TMTstop-A_1_1linestimulus8.png,TMTstop-A_1_1greenlinestimulus8.png,TMTstop-A_1_1redlinestimulus8.png,1,11,,,,,,,,,0,0,0,0,0,10,10,10,1,1,22.60954700014554,None,['2'],1,[0.012302899966016412],22.60954700014554,None,,001,2022_Feb_02_1448,TMTAstop-A,2021.2.3,144.95610722651287,
TMTstop-A_1_1.xlsx,0:26,12,['3'],3,TMTstop-A_1_1linestimulus9.png,TMTstop-A_1_1greenlinestimulus9.png,TMTstop-A_1_1redlinestimulus9.png,1,12,,,,,,,,,0,0,0,0,0,11,11,11,1,1,22.693474899977446,None,['3'],1,[0.015558300074189901],22.693474899977446,None,,001,2022_Feb_02_1448,TMTAstop-A,2021.2.3,144.95610722651287,
TMTstop-A_1_1.xlsx,0:26,13,['2'],2,TMTstop-A_1_1linestimulus10.png,TMTstop-A_1_1greenlinestimulus10.png,TMTstop-A_1_1redlinestimulus10.png,1,13,,,,,,,,,0,0,0,0,0,12,12,12,2,1,22.796805000165477,None,"['1', '2']",1,"[0.05798229994252324, 0.1654730001464486]",22.796805000165477,None,,001,2022_Feb_02_1448,TMTAstop-A,2021.2.3,144.95610722651287,
TMTstop-A_1_1.xlsx,0:26,14,['3'],3,TMTstop-A_1_1linestimulus11.png,TMTstop-A_1_1greenlinestimulus11.png,TMTstop-A_1_1redlinestimulus11.png,1,14,,,,,,,,,0,0,0,0,0,13,13,13,1,1,23.061152700101957,None,['3'],1,[-0.015183799900114536],23.061152700101957,None,,001,2022_Feb_02_1448,TMTAstop-A,2021.2.3,144.95610722651287,
TMTstop-A_1_1.xlsx,0:26,15,['1'],1,TMTstop-A_1_1linestimulus12.png,TMTstop-A_1_1greenlinestimulus12.png,TMTstop-A_1_1redlinestimulus12.png,1,15,,,,,,,,,0,0,0,0,0,14,14,14,1,1,23.14439949998632,None,['1'],1,[0.04000929999165237],23.14439949998632,None,,001,2022_Feb_02_1448,TMTAstop-A,2021.2.3,144.95610722651287,
TMTstop-A_1_1.xlsx,0:26,16,['3'],3,TMTstop-A_1_1linestimulus13.png,TMTstop-A_1_1greenlinestimulus13.png,TMTstop-A_1_1redlinestimulus13.png,1,16,,,,,,,,,0,0,0,0,0,15,15,15,2,1,23.264114000136033,None,"['2', '3']",1,"[0.020839500008150935, 0.12317689997144043]",23.264114000136033,None,,001,2022_Feb_02_1448,TMTAstop-A,2021.2.3,144.95610722651287,
TMTstop-A_1_1.xlsx,0:26,17,['2'],2,TMTstop-A_1_1linestimulus14.png,TMTstop-A_1_1greenlinestimulus14.png,TMTstop-A_1_1redlinestimulus14.png,1,17,,,,,,,,,0,0,0,0,0,16,16,16,2,1,23.492112500127405,None,"['1', '2']",1,"[0.05066299997270107, 0.12405149987898767]",23.492112500127405,None,,001,2022_Feb_02_1448,TMTAstop-A,2021.2.3,144.95610722651287,
TMTstop-A_1_1.xlsx,0:26,18,['3'],3,TMTstop-A_1_1linestimulus15.png,TMTstop-A_1_1greenlinestimulus15.png,TMTstop-A_1_1redlinestimulus15.png,1,18,,,,,,,,,0,0,0,0,0,17,17,17,1,1,23.721050900174305,None,['3'],1,[0.019751499872654676],23.721050900174305,None,,001,2022_Feb_02_1448,TMTAstop-A,2021.2.3,144.95610722651287,
TMTstop-A_1_1.xlsx,0:26,19,['1'],1,TMTstop-A_1_1linestimulus16.png,TMTstop-A_1_1greenlinestimulus16.png,TMTstop-A_1_1redlinestimulus16.png,1,19,,,,,,,,,0,0,0,0,0,18,18,18,1,1,23.824890300165862,None,['1'],1,[0.07414279994554818],23.824890300165862,None,,001,2022_Feb_02_1448,TMTAstop-A,2021.2.3,144.95610722651287,
TMTstop-A_1_1.xlsx,0:26,20,['3'],3,TMTstop-A_1_1linestimulus17.png,TMTstop-A_1_1greenlinestimulus17.png,TMTstop-A_1_1redlinestimulus17.png,1,20,,,,,,,,,0,0,0,0,0,19,19,19,2,1,23.985023300163448,None,"['2', '3']",1,"[-0.01867649983614683, 0.10296780010685325]",23.985023300163448,None,,001,2022_Feb_02_1448,TMTAstop-A,2021.2.3,144.95610722651287,
TMTstop-A_1_1.xlsx,0:26,21,['1'],1,TMTstop-A_1_1linestimulus18.png,TMTstop-A_1_1greenlinestimulus18.png,TMTstop-A_1_1redlinestimulus18.png,1,21,,,,,,,,,0,0,0,0,0,20,20,20,1,1,24.186223700176924,None,['1'],1,[0.042177600087597966],24.186223700176924,None,,001,2022_Feb_02_1448,TMTAstop-A,2021.2.3,144.95610722651287,
TMTstop-A_1_1.xlsx,0:26,22,['3'],3,TMTstop-A_1_1linestimulus19.png,TMTstop-A_1_1greenlinestimulus19.png,TMTstop-A_1_1redlinestimulus19.png,1,22,,,,,,,,,0,0,0,0,0,21,21,21,2,1,24.31777220009826,None,"['2', '3']",1,"[-0.00842920015566051, 0.1031407997943461]",24.31777220009826,None,,001,2022_Feb_02_1448,TMTAstop-A,2021.2.3,144.95610722651287,
TMTstop-A_1_1.xlsx,0:26,23,['1'],1,TMTstop-A_1_1linestimulus20.png,TMTstop-A_1_1greenlinestimulus20.png,TMTstop-A_1_1redlinestimulus20.png,1,23,,,,,,,,,0,0,0,0,0,22,22,22,1,1,24.526145600015298,None,['1'],1,[0.046785200014710426],24.526145600015298,None,,001,2022_Feb_02_1448,TMTAstop-A,2021.2.3,144.95610722651287,
TMTstop-A_1_1.xlsx,0:26,24,['2'],2,TMTstop-A_1_1linestimulus21.png,TMTstop-A_1_1greenlinestimulus21.png,TMTstop-A_1_1redlinestimulus21.png,1,24,,,,,,,,,0,0,0,0,0,23,23,23,1,1,24.660556300077587,None,['2'],1,[-0.03087749984115362],24.660556300077587,None,,001,2022_Feb_02_1448,TMTAstop-A,2021.2.3,144.95610722651287,
TMTstop-A_1_1.xlsx,0:26,25,['3'],3,TMTstop-A_1_1linestimulus22.png,TMTstop-A_1_1greenlinestimulus22.png,TMTstop-A_1_1redlinestimulus22.png,1,25,,,,,,,,,0,0,0,0,0,24,24,24,1,1,24.74125670013018,None,['3'],1,[0.03974400018341839],24.74125670013018,None,,001,2022_Feb_02_1448,TMTAstop-A,2021.2.3,144.95610722651287,
TMTstop-A_1_1.xlsx,0:26,None,None,None,TMTstop-A_1_1linestimulus23.png,TMTstop-A_1_1greenlinestimulus23.png,TMTstop-A_1_1redlinestimulus23.png,1,None,,,,,,,,,0,0,0,0,0,25,25,25,1,1,24.866268099984154,None,['1'],0,[0.06273509981110692],24.866268099984154,None,,001,2022_Feb_02_1448,TMTAstop-A,2021.2.3,144.95610722651287,
TMTstop-A_1_2.xlsx,26:52,1,['3'],3,TMTstop-A_1_2.png,TMTstop-A_1_2.png,TMTstop-A_1_2.png,2,26,,,,,,,,,0,1,1,1,0,0,0,0,2,1,29.012409100076184,None,"['2', '3']",1,"[3.228340000147, 3.793454500148073]",29.012409100076184,None,,001,2022_Feb_02_1448,TMTAstop-A,2021.2.3,144.95610722651287,
TMTstop-A_1_2.xlsx,26:52,2,['2'],2,TMTstop-A_1_2.png,TMTstop-A_1_2firstgreen.png,TMTstop-A_1_2firstred.png,2,27,,,,,,,,,0,1,1,1,0,1,1,1,2,1,32.893870500149205,None,"['1', '2']",1,"[4.555398100055754, 5.125377399846911]",32.893870500149205,None,,001,2022_Feb_02_1448,TMTAstop-A,2021.2.3,144.95610722651287,
TMTstop-A_1_2.xlsx,26:52,3,['3'],3,TMTstop-A_1_2linestimulus0.png,TMTstop-A_1_2greenlinestimulus0.png,TMTstop-A_1_2redlinestimulus0.png,2,28,,,,,,,,,0,1,1,1,0,2,2,2,1,1,38.088119600201026,None,['3'],1,[0.6016030998434871],38.088119600201026,None,,001,2022_Feb_02_1448,TMTAstop-A,2021.2.3,144.95610722651287,
TMTstop-A_1_2.xlsx,26:52,4,['1'],1,TMTstop-A_1_2linestimulus1.png,TMTstop-A_1_2greenlinestimulus1.png,TMTstop-A_1_2redlinestimulus1.png,2,29,,,,,,,,,0,1,1,1,0,3,3,3,0,1,38.76169529999606,None,None,0,,38.76169529999606,None,,001,2022_Feb_02_1448,TMTAstop-A,2021.2.3,144.95610722651287,
TMTstop-A_1_3.xlsx,52:78,1,['2'],2,TMTstop-A_1_3.png,TMTstop-A_1_3.png,TMTstop-A_1_3.png,3,51,,,,,,,,,0,2,2,2,0,0,0,0,1,1,42.09060170012526,None,['2'],1,[0.5591502001043409],42.09060170012526,None,,001,2022_Feb_02_1448,TMTAstop-A,2021.2.3,144.95610722651287,
TMTstop-A_1_3.xlsx,52:78,2,['1'],1,TMTstop-A_1_3.png,TMTstop-A_1_3firstgreen.png,TMTstop-A_1_3firstred.png,3,52,,,,,,,,,0,2,2,2,0,1,1,1,2,1,42.72169590019621,None,"['3', '1']",1,"[0.19791650003753603, 0.42618820001371205]",42.72169590019621,None,,001,2022_Feb_02_1448,TMTAstop-A,2021.2.3,144.95610722651287,
TMTstop-A_1_3.xlsx,52:78,3,['3'],3,TMTstop-A_1_3linestimulus0.png,TMTstop-A_1_3greenlinestimulus0.png,TMTstop-A_1_3redlinestimulus0.png,3,53,,,,,,,,,0,2,2,2,0,2,2,2,2,1,43.22736920020543,None,"['2', '3']",1,"[0.025818099966272712, 0.15789330005645752]",43.22736920020543,None,,001,2022_Feb_02_1448,TMTAstop-A,2021.2.3,144.95610722651287,
TMTstop-A_1_3.xlsx,52:78,4,['2'],2,TMTstop-A_1_3linestimulus1.png,TMTstop-A_1_3greenlinestimulus1.png,TMTstop-A_1_3redlinestimulus1.png,3,54,,,,,,,,,0,2,2,2,0,3,3,3,2,1,43.491515200119466,None,"['1', '2']",1,"[0.09787090006284416, 0.17410290008410811]",43.491515200119466,None,,001,2022_Feb_02_1448,TMTAstop-A,2021.2.3,144.95610722651287,
TMTstop-A_1_3.xlsx,52:78,5,['3'],3,TMTstop-A_1_3linestimulus2.png,TMTstop-A_1_3greenlinestimulus2.png,TMTstop-A_1_3redlinestimulus2.png,3,55,,,,,,,,,0,2,2,2,0,4,4,4,1,1,43.74159730016254,None,['3'],1,[0.029133799951523542],43.74159730016254,None,,001,2022_Feb_02_1448,TMTAstop-A,2021.2.3,144.95610722651287,
TMTstop-A_1_3.xlsx,52:78,6,['2'],2,TMTstop-A_1_3linestimulus3.png,TMTstop-A_1_3greenlinestimulus3.png,TMTstop-A_1_3redlinestimulus3.png,3,56,,,,,,,,,0,2,2,2,0,5,5,5,2,1,43.83806130010635,None,"['1', '2']",1,"[0.14667849987745285, 0.21287030004896224]",43.83806130010635,None,,001,2022_Feb_02_1448,TMTAstop-A,2021.2.3,144.95610722651287,
TMTstop-A_1_3.xlsx,52:78,7,['1'],1,TMTstop-A_1_3linestimulus4.png,TMTstop-A_1_3greenlinestimulus4.png,TMTstop-A_1_3redlinestimulus4.png,3,57,,,,,,,,,0,2,2,2,0,6,6,6,2,1,44.14373530005105,None,"['3', '1']",1,"[0.006066000089049339, 0.22690690006129444]",44.14373530005105,None,,001,2022_Feb_02_1448,TMTAstop-A,2021.2.3,144.95610722651287,
TMTstop-A_1_3.xlsx,52:78,8,['2'],2,TMTstop-A_1_3linestimulus5.png,TMTstop-A_1_3greenlinestimulus5.png,TMTstop-A_1_3redlinestimulus5.png,3,58,,,,,,,,,0,2,2,2,0,7,7,7,1,1,44.47770340018906,None,['2'],1,[-0.038964200066402555],44.47770340018906,None,,001,2022_Feb_02_1448,TMTAstop-A,2021.2.3,144.95610722651287,
TMTstop-A_1_3.xlsx,52:78,9,['3'],3,TMTstop-A_1_3linestimulus6.png,TMTstop-A_1_3greenlinestimulus6.png,TMTstop-A_1_3redlinestimulus6.png,3,59,,,,,,,,,0,2,2,2,0,8,8,8,1,1,44.560337600065395,None,['3'],1,[-0.010090199997648597],44.560337600065395,None,,001,2022_Feb_02_1448,TMTAstop-A,2021.2.3,144.95610722651287,
TMTstop-A_1_3.xlsx,52:78,10,['2'],2,TMTstop-A_1_3linestimulus7.png,TMTstop-A_1_3greenlinestimulus7.png,TMTstop-A_1_3redlinestimulus7.png,3,60,,,,,,,,,0,2,2,2,0,9,9,9,2,1,44.630334000103176,None,"['1', '2']",1,"[0.10595960007049143, 0.1567937999498099]",44.630334000103176,None,,001,2022_Feb_02_1448,TMTAstop-A,2021.2.3,144.95610722651287,
TMTstop-A_1_3.xlsx,52:78,11,['3'],3,TMTstop-A_1_3linestimulus8.png,TMTstop-A_1_3greenlinestimulus8.png,TMTstop-A_1_3redlinestimulus8.png,3,61,,,,,,,,,0,2,2,2,0,10,10,10,1,1,44.89344610017724,None,['3'],1,[0.01934850006364286],44.89344610017724,None,,001,2022_Feb_02_1448,TMTAstop-A,2021.2.3,144.95610722651287,
TMTstop-A_1_3.xlsx,52:78,12,['2'],2,TMTstop-A_1_3linestimulus9.png,TMTstop-A_1_3greenlinestimulus9.png,TMTstop-A_1_3redlinestimulus9.png,3,62,,,,,,,,,0,2,2,2,0,11,11,11,2,1,44.99350310000591,None,"['1', '2']",1,"[0.09547819988802075, 0.19597060000523925]",44.99350310000591,None,,001,2022_Feb_02_1448,TMTAstop-A,2021.2.3,144.95610722651287,
TMTstop-A_1_3.xlsx,52:78,13,['1'],1,TMTstop-A_1_3linestimulus10.png,TMTstop-A_1_3greenlinestimulus10.png,TMTstop-A_1_3redlinestimulus10.png,3,63,,,,,,,,,0,2,2,2,0,12,12,12,2,1,45.289697100175545,None,"['3', '1']",1,"[0.0020612000953406096, 0.1927965001668781]",45.289697100175545,None,,001,2022_Feb_02_1448,TMTAstop-A,2021.2.3,144.95610722651287,
TMTstop-A_1_3.xlsx,52:78,14,['2'],2,TMTstop-A_1_3linestimulus11.png,TMTstop-A_1_3greenlinestimulus11.png,TMTstop-A_1_3redlinestimulus11.png,3,64,,,,,,,,,0,2,2,2,0,13,13,13,1,1,45.58148520020768,None,['2'],1,[-0.031356000108644366],45.58148520020768,None,,001,2022_Feb_02_1448,TMTAstop-A,2021.2.3,144.95610722651287,
TMTstop-A_1_3.xlsx,52:78,15,['1'],1,TMTstop-A_1_3linestimulus12.png,TMTstop-A_1_3greenlinestimulus12.png,TMTstop-A_1_3redlinestimulus12.png,3,65,,,,,,,,,0,2,2,2,0,14,14,14,2,1,45.657673000125214,None,"['3', '1']",1,"[0.011470700148493052, 0.3004624000750482]",45.657673000125214,None,,001,2022_Feb_02_1448,TMTAstop-A,2021.2.3,144.95610722651287,
TMTstop-A_1_3.xlsx,52:78,16,['2'],2,TMTstop-A_1_3linestimulus13.png,TMTstop-A_1_3greenlinestimulus13.png,TMTstop-A_1_3redlinestimulus13.png,3,66,,,,,,,,,0,2,2,2,0,15,15,15,1,1,46.03944379999302,None,['2'],1,[-0.043103599920868874],46.03944379999302,None,,001,2022_Feb_02_1448,TMTAstop-A,2021.2.3,144.95610722651287,
TMTstop-A_1_3.xlsx,52:78,17,['3'],3,TMTstop-A_1_3linestimulus14.png,TMTstop-A_1_3greenlinestimulus14.png,TMTstop-A_1_3redlinestimulus14.png,3,67,,,,,,,,,0,2,2,2,0,16,16,16,1,1,46.1088370999787,None,['3'],1,[0.015585999935865402],46.1088370999787,None,,001,2022_Feb_02_1448,TMTAstop-A,2021.2.3,144.95610722651287,
TMTstop-A_1_3.xlsx,52:78,18,['2'],2,TMTstop-A_1_3linestimulus15.png,TMTstop-A_1_3greenlinestimulus15.png,TMTstop-A_1_3redlinestimulus15.png,3,68,,,,,,,,,0,2,2,2,0,17,17,17,2,1,46.206234600162134,None,"['1', '2']",1,"[0.1383245000615716, 0.188667600043118]",46.206234600162134,None,,001,2022_Feb_02_1448,TMTAstop-A,2021.2.3,144.95610722651287,
TMTstop-A_1_3.xlsx,52:78,19,['1'],1,TMTstop-A_1_3linestimulus16.png,TMTstop-A_1_3greenlinestimulus16.png,TMTstop-A_1_3redlinestimulus16.png,3,69,,,,,,,,,0,2,2,2,0,18,18,18,2,1,46.49798550014384,None,"['3', '1']",1,"[0.018568400060757995, 0.21459369990043342]",46.49798550014384,None,,001,2022_Feb_02_1448,TMTAstop-A,2021.2.3,144.95610722651287,
TMTstop-A_1_3.xlsx,52:78,20,['2'],2,TMTstop-A_1_3linestimulus17.png,TMTstop-A_1_3greenlinestimulus17.png,TMTstop-A_1_3redlinestimulus17.png,3,70,,,,,,,,,0,2,2,2,0,19,19,19,1,1,46.80336100002751,None,['2'],1,[0.0008515999652445316],46.80336100002751,None,,001,2022_Feb_02_1448,TMTAstop-A,2021.2.3,144.95610722651287,
TMTstop-A_1_3.xlsx,52:78,21,['3'],3,TMTstop-A_1_3linestimulus18.png,TMTstop-A_1_3greenlinestimulus18.png,TMTstop-A_1_3redlinestimulus18.png,3,71,,,,,,,,,0,2,2,2,0,20,20,20,1,1,46.87323180004023,None,['3'],1,[0.02937559993006289],46.87323180004023,None,,001,2022_Feb_02_1448,TMTAstop-A,2021.2.3,144.95610722651287,
TMTstop-A_1_3.xlsx,52:78,22,['1'],1,TMTstop-A_1_3linestimulus19.png,TMTstop-A_1_3greenlinestimulus19.png,TMTstop-A_1_3redlinestimulus19.png,3,72,,,,,,,,,0,2,2,2,0,21,21,21,1,1,46.98569110012613,None,['1'],1,[0.41158380010165274],46.98569110012613,None,,001,2022_Feb_02_1448,TMTAstop-A,2021.2.3,144.95610722651287,
TMTstop-A_1_3.xlsx,52:78,23,['3'],3,TMTstop-A_1_3linestimulus20.png,TMTstop-A_1_3greenlinestimulus20.png,TMTstop-A_1_3redlinestimulus20.png,3,73,,,,,,,,,0,2,2,2,0,22,22,22,2,1,47.48551909998059,None,"['2', '3']",1,"[-0.0048316000029444695, 0.08229069993831217]",47.48551909998059,None,,001,2022_Feb_02_1448,TMTAstop-A,2021.2.3,144.95610722651287,
TMTstop-A_1_3.xlsx,52:78,24,['1'],1,TMTstop-A_1_3linestimulus21.png,TMTstop-A_1_3greenlinestimulus21.png,TMTstop-A_1_3redlinestimulus21.png,3,74,,,,,,,,,0,2,2,2,0,23,23,23,1,1,47.650406000204384,None,['1'],1,[0.141716199927032],47.650406000204384,None,,001,2022_Feb_02_1448,TMTAstop-A,2021.2.3,144.95610722651287,
TMTstop-A_1_3.xlsx,52:78,25,['3'],3,TMTstop-A_1_3linestimulus22.png,TMTstop-A_1_3greenlinestimulus22.png,TMTstop-A_1_3redlinestimulus22.png,3,75,,,,,,,,,0,2,2,2,0,24,24,24,2,1,47.873828400159255,None,"['2', '3']",1,"[-0.04278120002709329, 0.0731542999856174]",47.873828400159255,None,,001,2022_Feb_02_1448,TMTAstop-A,2021.2.3,144.95610722651287,
TMTstop-A_1_3.xlsx,52:78,None,None,None,TMTstop-A_1_3linestimulus23.png,TMTstop-A_1_3greenlinestimulus23.png,TMTstop-A_1_3redlinestimulus23.png,3,None,,,,,,,,,0,2,2,2,0,25,25,25,0,1,48.03223030013032,None,None,1,,48.03223030013032,None,,001,2022_Feb_02_1448,TMTAstop-A,2021.2.3,144.95610722651287,
TMTstop-A_1_4.xlsx,78:104,1,['3'],3,TMTstop-A_1_4.png,TMTstop-A_1_4.png,TMTstop-A_1_4.png,4,76,,,,,,,,,0,3,3,3,0,0,0,0,2,1,52.14346699998714,None,"['2', '3']",1,"[1.4489294001832604, 1.627350800205022]",52.14346699998714,None,,001,2022_Feb_02_1448,TMTAstop-A,2021.2.3,144.95610722651287,
TMTstop-A_1_4.xlsx,78:104,2,['1'],1,TMTstop-A_1_4.png,TMTstop-A_1_4firstgreen.png,TMTstop-A_1_4firstred.png,4,77,,,,,,,,,0,3,3,3,0,1,1,1,1,1,53.865590600064024,None,['1'],1,[0.05012089991942048],53.865590600064024,None,,001,2022_Feb_02_1448,TMTAstop-A,2021.2.3,144.95610722651287,
TMTstop-A_1_4.xlsx,78:104,3,['3'],3,TMTstop-A_1_4linestimulus0.png,TMTstop-A_1_4greenlinestimulus0.png,TMTstop-A_1_4redlinestimulus0.png,4,78,,,,,,,,,0,3,3,3,0,2,2,2,2,1,53.99083310016431,None,"['2', '3']",1,"[0.031123199965804815, 0.11432010005228221]",53.99083310016431,None,,001,2022_Feb_02_1448,TMTAstop-A,2021.2.3,144.95610722651287,
,,,,,,,,,,,,,,,,,,,,,,,,,,0,1,,,,,,,,,,,,,,
