Block_file,Condition_rows,NumberLetter,corrAns,Correct,StimFile,Correct_StimFile,False_StimFile,Version,Block,TrialNumber_session,Blocks_TMTControl.thisRepN,Blocks_TMTControl.thisTrialN,Blocks_TMTControl.thisN,Blocks_TMTControl.thisIndex,trials_TMTControl.thisRepN,trials_TMTControl.thisTrialN,trials_TMTControl.thisN,trials_TMTControl.thisIndex,Blocks_TMTA.thisRepN,Blocks_TMTA.thisTrialN,Blocks_TMTA.thisN,Blocks_TMTA.thisIndex,trials_TMTA.thisRepN,trials_TMTA.thisTrialN,trials_TMTA.thisN,trials_TMTA.thisIndex,key_resp_7.keys,key_resp_7.rt,key_resp_7.started,key_resp_7.stopped,polygon_2.started,polygon_2.stopped,Attempts,First_attempt,Stim.started,Stim.stopped,key_resp_2.keys,key_resp_2.corr,key_resp_2.rt,key_resp_2.started,key_resp_2.stopped,participant,session,date,expName,psychopyVersion,frameRate,
,,,,,,,,,,,,,,,,,,,,,,,,,,,s,1.0523335999896517,10.899711200007005,None,,,,,,,,,,,,,001,2022_May_10_1059,TMT_fmri,2021.2.3,None,
TMTstop-Control_1_1.xlsx,0:26,1,['2'],2,TMTstop-control_1_1.png,TMTstop-control_1_1.png,TMTstop-control_1_1.png,TMT_Control,1,1,0,0,0,0,0,0,0,0,,,,,,,,,,,,,10.899711200007005,None,1,1,12.140767400007462,None,['2'],1,[1.799985599995125],12.140767400007462,None,,001,2022_May_10_1059,TMT_fmri,2021.2.3,None,
TMTstop-Control_1_1.xlsx,0:26,2,['1'],1,TMTstop-control_1_1.png,TMTstop-control_1_1firstgreen.png,TMTstop-control_1_1firstred.png,TMT_Control,1,2,0,0,0,0,0,1,1,1,,,,,,,,,,,,,,,15,0,14.040732100009336,None,"['2', '2', '3', '2', '3', '2', '3', '2', '2', '3', '2', '3', '2', '3', '1']",1,"[0.5563257000030717, 1.1815320000023348, 1.3651203000044916, 1.6175527000013972, 1.718308800001978, 2.4917425000021467, 2.667867500000284, 2.720818400004646, 3.1628898000053596, 3.259211399999913, 3.6254696999967564, 3.683047099999385, 4.072658999997657, 4.1895702000038, 5.273318499996094]",14.040732100009336,None,,001,2022_May_10_1059,TMT_fmri,2021.2.3,None,
TMTstop-Control_1_1.xlsx,0:26,3,['3'],3,TMTstop-control_1_1linestimulus0.png,TMTstop-control_1_1greenlinestimulus0.png,TMTstop-control_1_1redlinestimulus0.png,TMT_Control,1,3,0,0,0,0,0,2,2,2,,,,,,,,,,,,,,,2,0,19.491684500011615,None,"['2', '3']",1,"[0.1980819999880623, 0.9960927999927662]",19.491684500011615,None,,001,2022_May_10_1059,TMT_fmri,2021.2.3,None,
TMTstop-Control_1_1.xlsx,0:26,4,['1'],1,TMTstop-control_1_1linestimulus1.png,TMTstop-control_1_1greenlinestimulus1.png,TMTstop-control_1_1redlinestimulus1.png,TMT_Control,1,4,0,0,0,0,0,3,3,3,,,,,,,,,,,,,,,1,1,20.59320750000188,None,['1'],1,[0.5990265000000363],20.59320750000188,None,,001,2022_May_10_1059,TMT_fmri,2021.2.3,None,
TMTstop-Control_1_1.xlsx,0:26,5,['3'],3,TMTstop-control_1_1linestimulus2.png,TMTstop-control_1_1greenlinestimulus2.png,TMTstop-control_1_1redlinestimulus2.png,TMT_Control,1,5,0,0,0,0,0,4,4,4,,,,,,,,,,,,,,,1,1,21.379161500008195,None,['3'],1,[0.5827576000010595],21.379161500008195,None,,001,2022_May_10_1059,TMT_fmri,2021.2.3,None,
TMTstop-Control_1_1.xlsx,0:26,6,['1'],1,TMTstop-control_1_1linestimulus3.png,TMTstop-control_1_1greenlinestimulus3.png,TMTstop-control_1_1redlinestimulus3.png,TMT_Control,1,6,0,0,0,0,0,5,5,5,,,,,,,,,,,,,,,1,1,22.118574500011164,None,['1'],1,[0.32995500000834],22.118574500011164,None,,001,2022_May_10_1059,TMT_fmri,2021.2.3,None,
TMTstop-Control_1_1.xlsx,0:26,7,['2'],2,TMTstop-control_1_1linestimulus4.png,TMTstop-control_1_1greenlinestimulus4.png,TMTstop-control_1_1redlinestimulus4.png,TMT_Control,1,7,0,0,0,0,0,6,6,6,,,,,,,,,,,,,,,1,1,22.63471730001038,None,['2'],1,[0.2237930000119377],22.63471730001038,None,,001,2022_May_10_1059,TMT_fmri,2021.2.3,None,
TMTstop-Control_1_1.xlsx,0:26,8,['1'],1,TMTstop-control_1_1linestimulus4.png,TMTstop-control_1_1greenlinestimulus5.png,TMTstop-control_1_1redlinestimulus5.png,TMT_Control,1,8,0,0,0,0,0,7,7,7,,,,,,,,,,,,,,,1,1,23.02439730000333,None,['1'],1,[0.38088929999503307],23.02439730000333,None,,001,2022_May_10_1059,TMT_fmri,2021.2.3,None,
TMTstop-Control_1_1.xlsx,0:26,9,['3'],3,TMTstop-control_1_1linestimulus6.png,TMTstop-control_1_1greenlinestimulus6.png,TMTstop-control_1_1redlinestimulus6.png,TMT_Control,1,9,0,0,0,0,0,8,8,8,,,,,,,,,,,,,,,1,1,23.557594300000346,None,['3'],1,[0.31018719999701716],23.557594300000346,None,,001,2022_May_10_1059,TMT_fmri,2021.2.3,None,
TMTstop-Control_1_1.xlsx,0:26,10,['2'],2,TMTstop-control_1_1linestimulus7.png,TMTstop-control_1_1greenlinestimulus7.png,TMTstop-control_1_1redlinestimulus7.png,TMT_Control,1,10,0,0,0,0,0,9,9,9,,,,,,,,,,,,,,,1,1,23.966188899998087,None,['2'],1,[0.5453754000045592],23.966188899998087,None,,001,2022_May_10_1059,TMT_fmri,2021.2.3,None,
TMTstop-Control_1_1.xlsx,0:26,11,['1'],1,TMTstop-control_1_1linestimulus8.png,TMTstop-control_1_1greenlinestimulus8.png,TMTstop-control_1_1redlinestimulus8.png,TMT_Control,1,11,0,0,0,0,0,10,10,10,,,,,,,,,,,,,,,2,0,24.713846600003308,None,"['2', '1']",1,"[0.36221049999585375, 0.5223971999948844]",24.713846600003308,None,,001,2022_May_10_1059,TMT_fmri,2021.2.3,None,
TMTstop-Control_1_1.xlsx,0:26,12,['2'],2,TMTstop-control_1_1linestimulus9.png,TMTstop-control_1_1greenlinestimulus9.png,TMTstop-control_1_1redlinestimulus9.png,TMT_Control,1,12,0,0,0,0,0,11,11,11,,,,,,,,,,,,,,,3,0,25.385175100003835,None,"['3', '1', '2']",1,"[0.016941800000495277, 0.1475608999899123, 0.21180079999612644]",25.385175100003835,None,,001,2022_May_10_1059,TMT_fmri,2021.2.3,None,
TMTstop-Control_1_1.xlsx,0:26,13,['3'],3,TMTstop-control_1_1linestimulus10.png,TMTstop-control_1_1greenlinestimulus10.png,TMTstop-control_1_1redlinestimulus10.png,TMT_Control,1,13,0,0,0,0,0,12,12,12,,,,,,,,,,,,,,,1,1,25.79302190001181,None,['3'],1,[-0.09536369999113958],25.79302190001181,None,,001,2022_May_10_1059,TMT_fmri,2021.2.3,None,
TMTstop-Control_1_1.xlsx,0:26,14,['2'],2,TMTstop-control_1_1linestimulus11.png,TMTstop-control_1_1greenlinestimulus11.png,TMTstop-control_1_1redlinestimulus11.png,TMT_Control,1,14,0,0,0,0,0,13,13,13,,,,,,,,,,,,,,,2,0,25.92016190000868,None,"['1', '2']",1,"[-0.1067408999952022, -0.051240600005257875]",25.92016190000868,None,,001,2022_May_10_1059,TMT_fmri,2021.2.3,None,
TMTstop-Control_1_1.xlsx,0:26,15,['3'],3,TMTstop-control_1_1linestimulus12.png,TMTstop-control_1_1greenlinestimulus12.png,TMTstop-control_1_1redlinestimulus12.png,TMT_Control,1,15,0,0,0,0,0,14,14,14,,,,,,,,,,,,,,,1,1,26.045561100007035,None,['3'],1,[-0.08807399999932386],26.045561100007035,None,,001,2022_May_10_1059,TMT_fmri,2021.2.3,None,
TMTstop-Control_1_1.xlsx,0:26,16,['2'],2,TMTstop-control_1_1linestimulus13.png,TMTstop-control_1_1greenlinestimulus13.png,TMTstop-control_1_1redlinestimulus13.png,TMT_Control,1,16,0,0,0,0,0,15,15,15,,,,,,,,,,,,,,,2,0,26.174070100008976,None,"['1', '2']",1,"[-0.09638689999701455, -0.041135199993732385]",26.174070100008976,None,,001,2022_May_10_1059,TMT_fmri,2021.2.3,None,
TMTstop-Control_1_1.xlsx,0:26,17,['3'],3,TMTstop-control_1_1linestimulus14.png,TMTstop-control_1_1greenlinestimulus14.png,TMTstop-control_1_1redlinestimulus14.png,TMT_Control,1,17,0,0,0,0,0,16,16,16,,,,,,,,,,,,,,,1,1,26.29947379999794,None,['3'],1,[-0.079573299997719],26.29947379999794,None,,001,2022_May_10_1059,TMT_fmri,2021.2.3,None,
TMTstop-Control_1_1.xlsx,0:26,18,['2'],2,TMTstop-control_1_1linestimulus15.png,TMTstop-control_1_1greenlinestimulus15.png,TMTstop-control_1_1redlinestimulus15.png,TMT_Control,1,18,0,0,0,0,0,17,17,17,,,,,,,,,,,,,,,2,0,26.436967500005267,None,"['1', '2']",1,"[-0.08814560000610072, -0.048711300012655556]",26.436967500005267,None,,001,2022_May_10_1059,TMT_fmri,2021.2.3,None,
TMTstop-Control_1_1.xlsx,0:26,19,['1'],1,TMTstop-control_1_1linestimulus16.png,TMTstop-control_1_1greenlinestimulus16.png,TMTstop-control_1_1redlinestimulus16.png,TMT_Control,1,19,0,0,0,0,0,18,18,18,,,,,,,,,,,,,,,2,0,26.563629000011133,None,"['3', '1']",1,"[-0.09235999999509659, 0.03745170000183862]",26.563629000011133,None,,001,2022_May_10_1059,TMT_fmri,2021.2.3,None,
TMTstop-Control_1_1.xlsx,0:26,20,['3'],3,TMTstop-control_1_1linestimulus17.png,TMTstop-control_1_1greenlinestimulus17.png,TMTstop-control_1_1redlinestimulus17.png,TMT_Control,1,20,0,0,0,0,0,19,19,19,,,,,,,,,,,,,,,2,0,26.68655270000454,None,"['2', '3']",1,"[-0.04045179999957327, 0.042163499994785525]",26.68655270000454,None,,001,2022_May_10_1059,TMT_fmri,2021.2.3,None,
TMTstop-Control_1_1.xlsx,0:26,21,['1'],1,TMTstop-control_1_1linestimulus18.png,TMTstop-control_1_1greenlinestimulus18.png,TMTstop-control_1_1redlinestimulus18.png,TMT_Control,1,21,0,0,0,0,0,20,20,20,,,,,,,,,,,,,,,1,1,26.892848900009994,None,['1'],1,[-0.03899309999542311],26.892848900009994,None,,001,2022_May_10_1059,TMT_fmri,2021.2.3,None,
TMTstop-Control_1_1.xlsx,0:26,22,['2'],2,TMTstop-control_1_1linestimulus19.png,TMTstop-control_1_1greenlinestimulus19.png,TMTstop-control_1_1redlinestimulus19.png,TMT_Control,1,22,0,0,0,0,0,21,21,21,,,,,,,,,,,,,,,4,0,27.032891200011363,None,"['2', '3', '1', '2']",1,"[-0.13427310000406578, -0.05711969999538269, 0.07289130000572186, 0.10278349999862257]",27.032891200011363,None,,001,2022_May_10_1059,TMT_fmri,2021.2.3,None,
TMTstop-Control_1_1.xlsx,0:26,23,['3'],3,TMTstop-control_1_1linestimulus20.png,TMTstop-control_1_1greenlinestimulus20.png,TMTstop-control_1_1redlinestimulus20.png,TMT_Control,1,23,0,0,0,0,0,22,22,22,,,,,,,,,,,,,,,1,1,27.29992879999918,None,['3'],1,[-0.06599580000329297],27.29992879999918,None,,001,2022_May_10_1059,TMT_fmri,2021.2.3,None,
TMTstop-Control_1_1.xlsx,0:26,24,['2'],2,TMTstop-control_1_1linestimulus21.png,TMTstop-control_1_1greenlinestimulus21.png,TMTstop-control_1_1redlinestimulus21.png,TMT_Control,1,24,0,0,0,0,0,23,23,23,,,,,,,,,,,,,,,2,0,27.427818600001046,None,"['1', '2']",1,"[-0.06295500000123866, -0.03408610000042245]",27.427818600001046,None,,001,2022_May_10_1059,TMT_fmri,2021.2.3,None,
TMTstop-Control_1_1.xlsx,0:26,25,['1'],1,TMTstop-control_1_1linestimulus22.png,TMTstop-control_1_1greenlinestimulus22.png,TMTstop-control_1_1redlinestimulus22.png,TMT_Control,1,25,0,0,0,0,0,24,24,24,,,,,,,,,,,,,,,5,0,27.554680600005668,None,"['3', '1', '2', '3', '1']",1,"[-0.04657679999945685, 0.0808281000063289, 0.11441850000119302, 0.21618350000062492, 0.33352210000157356]",27.554680600005668,None,,001,2022_May_10_1059,TMT_fmri,2021.2.3,None,
TMTstop-Control_1_1.xlsx,0:26,None,None,None,TMTstop-control_1_1linestimulus23.png,TMTstop-control_1_1greenlinestimulus23.png,TMTstop-control_1_1redlinestimulus23.png,TMT_Control,1,Feedback_last,0,0,0,0,0,25,25,25,,,,,,,,,,,,,,,2,0,28.01060970000981,None,"['2', '3']",0,"[-0.05340579999028705, 0.03667200000199955]",28.01060970000981,None,,001,2022_May_10_1059,TMT_fmri,2021.2.3,None,
TMTstop-Control_1_2.xlsx,26:52,1,['2'],2,TMTstop-control_1_2.png,TMTstop-control_1_2.png,TMTstop-control_1_2.png,TMT_Control,2,26,0,1,1,1,0,0,0,0,,,,,,,,,,,,,,,11,0,32.25451260000409,None,"['1', '2', '3', '1', '2', '3', '1', '2', '3', '1', '2']",1,"[0.33686840000154916, 0.4660473000112688, 0.5071023000054993, 0.6730919999972684, 0.7298303999996278, 0.8224052000005031, 0.9512166000058642, 1.0159252000012202, 1.0920063000085065, 1.2128094000072451, 1.2807778999995207]",32.25451260000409,None,,001,2022_May_10_1059,TMT_fmri,2021.2.3,None,
TMTstop-Control_1_2.xlsx,26:52,2,['3'],3,TMTstop-control_1_2.png,TMTstop-control_1_2firstgreen.png,TMTstop-control_1_2firstred.png,TMT_Control,2,27,0,1,1,1,0,1,1,1,,,,,,,,,,,,,,,2,0,33.76588900000206,None,"['2', '3']",1,"[0.10112159998971038, 0.3395042999909492]",33.76588900000206,None,,001,2022_May_10_1059,TMT_fmri,2021.2.3,None,
TMTstop-Control_1_2.xlsx,26:52,3,['2'],2,TMTstop-control_1_2linestimulus0.png,TMTstop-control_1_2greenlinestimulus0.png,TMTstop-control_1_2redlinestimulus0.png,TMT_Control,2,28,0,1,1,1,0,2,2,2,,,,,,,,,,,,,,,2,0,34.30914340000891,None,"['1', '2']",1,"[-0.08740079999552108, -0.043861999991349876]",34.30914340000891,None,,001,2022_May_10_1059,TMT_fmri,2021.2.3,None,
TMTstop-Control_1_2.xlsx,26:52,4,['3'],3,TMTstop-control_1_2linestimulus1.png,TMTstop-control_1_2greenlinestimulus1.png,TMTstop-control_1_2redlinestimulus1.png,TMT_Control,2,29,0,1,1,1,0,3,3,3,,,,,,,,,,,,,,,1,1,34.449373399998876,None,['3'],1,[-0.05944230000022799],34.449373399998876,None,,001,2022_May_10_1059,TMT_fmri,2021.2.3,None,
TMTstop-Control_1_2.xlsx,26:52,5,['2'],2,TMTstop-control_1_2linestimulus2.png,TMTstop-control_1_2greenlinestimulus2.png,TMTstop-control_1_2redlinestimulus2.png,TMT_Control,2,30,0,1,1,1,0,4,4,4,,,,,,,,,,,,,,,2,0,34.590840300006676,None,"['1', '2']",1,"[-0.04826020001200959, -0.011180700006661937]",34.590840300006676,None,,001,2022_May_10_1059,TMT_fmri,2021.2.3,None,
TMTstop-Control_1_2.xlsx,26:52,6,['3'],3,TMTstop-control_1_2linestimulus3.png,TMTstop-control_1_2greenlinestimulus3.png,TMTstop-control_1_2redlinestimulus3.png,TMT_Control,2,31,0,1,1,1,0,5,5,5,,,,,,,,,,,,,,,1,1,34.71851270001207,None,['3'],1,[-0.026828400004887953],34.71851270001207,None,,001,2022_May_10_1059,TMT_fmri,2021.2.3,None,
TMTstop-Control_1_2.xlsx,26:52,7,['2'],2,TMTstop-control_1_2linestimulus4.png,TMTstop-control_1_2greenlinestimulus4.png,TMTstop-control_1_2redlinestimulus4.png,TMT_Control,2,32,0,1,1,1,0,6,6,6,,,,,,,,,,,,,,,2,0,34.845083899999736,None,"['1', '2']",1,"[-0.03770509999594651, 0.007691200007684529]",34.845083899999736,None,,001,2022_May_10_1059,TMT_fmri,2021.2.3,None,
TMTstop-Control_1_2.xlsx,26:52,8,['1'],1,TMTstop-control_1_2linestimulus4.png,TMTstop-control_1_2greenlinestimulus5.png,TMTstop-control_1_2redlinestimulus5.png,TMT_Control,2,33,0,1,1,1,0,7,7,7,,,,,,,,,,,,,,,2,0,34.97053700000106,None,"['3', '1']",1,"[-0.011819300008937716, 0.1020520000020042]",34.97053700000106,None,,001,2022_May_10_1059,TMT_fmri,2021.2.3,None,
TMTstop-Control_1_2.xlsx,26:52,9,['3'],3,TMTstop-control_1_2linestimulus6.png,TMTstop-control_1_2greenlinestimulus6.png,TMTstop-control_1_2redlinestimulus6.png,TMT_Control,2,34,0,1,1,1,0,8,8,8,,,,,,,,,,,,,,,2,0,35.23514119999891,None,"['2', '3']",1,"[-0.11672740000358317, -0.029547600002842955]",35.23514119999891,None,,001,2022_May_10_1059,TMT_fmri,2021.2.3,None,
TMTstop-Control_1_2.xlsx,26:52,10,['2'],2,TMTstop-control_1_2linestimulus7.png,TMTstop-control_1_2greenlinestimulus7.png,TMTstop-control_1_2redlinestimulus7.png,TMT_Control,2,35,0,1,1,1,0,9,9,9,,,,,,,,,,,,,,,2,0,35.361862900012056,None,"['1', '2']",1,"[-0.01795920000586193, 0.003537199998390861]",35.361862900012056,None,,001,2022_May_10_1059,TMT_fmri,2021.2.3,None,
TMTstop-Control_1_2.xlsx,26:52,11,['3'],3,TMTstop-control_1_2linestimulus8.png,TMTstop-control_1_2greenlinestimulus8.png,TMTstop-control_1_2redlinestimulus8.png,TMT_Control,2,36,0,1,1,1,0,10,10,10,,,,,,,,,,,,,,,1,1,35.50302060000831,None,['3'],1,[0.0029285999917192385],35.50302060000831,None,,001,2022_May_10_1059,TMT_fmri,2021.2.3,None,
TMTstop-Control_1_2.xlsx,26:52,12,['2'],2,TMTstop-control_1_2linestimulus9.png,TMTstop-control_1_2greenlinestimulus9.png,TMTstop-control_1_2redlinestimulus9.png,TMT_Control,2,37,0,1,1,1,0,11,11,11,,,,,,,,,,,,,,,1,1,35.64315850001003,None,['2'],1,[0.8016883000091184],35.64315850001003,None,,001,2022_May_10_1059,TMT_fmri,2021.2.3,None,
TMTstop-Control_1_2.xlsx,26:52,13,['3'],3,TMTstop-control_1_2linestimulus10.png,TMTstop-control_1_2greenlinestimulus10.png,TMTstop-control_1_2redlinestimulus10.png,TMT_Control,2,38,0,1,1,1,0,12,12,12,,,,,,,,,,,,,,,3,0,36.5825130000012,None,"['1', '2', '3']",1,"[0.3307277999992948, 0.5422957999981008, 0.575365899989265]",36.5825130000012,None,,001,2022_May_10_1059,TMT_fmri,2021.2.3,None,
TMTstop-Control_1_2.xlsx,26:52,14,['2'],2,TMTstop-control_1_2linestimulus11.png,TMTstop-control_1_2greenlinestimulus11.png,TMTstop-control_1_2redlinestimulus11.png,TMT_Control,2,39,0,1,1,1,0,13,13,13,,,,,,,,,,,,,,,2,0,37.26677320001181,None,"['1', '2']",1,"[0.08203549998870585, 0.14921199998934753]",37.26677320001181,None,,001,2022_May_10_1059,TMT_fmri,2021.2.3,None,
TMTstop-Control_1_2.xlsx,26:52,15,['3'],3,TMTstop-control_1_2linestimulus12.png,TMTstop-control_1_2greenlinestimulus12.png,TMTstop-control_1_2redlinestimulus12.png,TMT_Control,2,40,0,1,1,1,0,14,14,14,,,,,,,,,,,,,,,1,1,37.53566110000247,None,['3'],1,[-0.012646700008190237],37.53566110000247,None,,001,2022_May_10_1059,TMT_fmri,2021.2.3,None,
TMTstop-Control_1_2.xlsx,26:52,16,['1'],1,TMTstop-control_1_2linestimulus13.png,TMTstop-control_1_2greenlinestimulus13.png,TMTstop-control_1_2redlinestimulus13.png,TMT_Control,2,41,0,1,1,1,0,15,15,15,,,,,,,,,,,,,,,1,1,37.678314400007366,None,['1'],1,[-0.01473670000268612],37.678314400007366,None,,001,2022_May_10_1059,TMT_fmri,2021.2.3,None,
TMTstop-Control_1_2.xlsx,26:52,17,['2'],2,TMTstop-control_1_2linestimulus14.png,TMTstop-control_1_2greenlinestimulus14.png,TMTstop-control_1_2redlinestimulus14.png,TMT_Control,2,42,0,1,1,1,0,16,16,16,,,,,,,,,,,,,,,1,1,37.81239089999872,None,['2'],1,[-0.07970930000010412],37.81239089999872,None,,001,2022_May_10_1059,TMT_fmri,2021.2.3,None,
TMTstop-Control_1_2.xlsx,26:52,18,['1'],1,TMTstop-control_1_2linestimulus15.png,TMTstop-control_1_2greenlinestimulus15.png,TMTstop-control_1_2redlinestimulus15.png,TMT_Control,2,43,0,1,1,1,0,17,17,17,,,,,,,,,,,,,,,2,0,37.93879470000684,None,"['3', '1']",1,"[-0.11359589999483433, 0.022777300007874146]",37.93879470000684,None,,001,2022_May_10_1059,TMT_fmri,2021.2.3,None,
TMTstop-Control_1_2.xlsx,26:52,19,['2'],2,TMTstop-control_1_2linestimulus16.png,TMTstop-control_1_2greenlinestimulus16.png,TMTstop-control_1_2redlinestimulus16.png,TMT_Control,2,44,0,1,1,1,0,18,18,18,,,,,,,,,,,,,,,1,1,38.08666190000076,None,['2'],1,[-0.08313060000364203],38.08666190000076,None,,001,2022_May_10_1059,TMT_fmri,2021.2.3,None,
TMTstop-Control_1_2.xlsx,26:52,20,['3'],3,TMTstop-control_1_2linestimulus17.png,TMTstop-control_1_2greenlinestimulus17.png,TMTstop-control_1_2redlinestimulus17.png,TMT_Control,2,45,0,1,1,1,0,19,19,19,,,,,,,,,,,,,,,1,1,38.21896290000586,None,['3'],1,[-0.09914200000639539],38.21896290000586,None,,001,2022_May_10_1059,TMT_fmri,2021.2.3,None,
TMTstop-Control_1_2.xlsx,26:52,21,['1'],1,TMTstop-control_1_2linestimulus18.png,TMTstop-control_1_2greenlinestimulus18.png,TMTstop-control_1_2redlinestimulus18.png,TMT_Control,2,46,0,1,1,1,0,20,20,20,,,,,,,,,,,,,,,7,0,38.34738940000534,None,"['1', '2', '3', '1', '2', '3', '1']",1,"[-0.09663200000068173, -0.06019920000107959, 0.0505669999984093, 0.19167970000125933, 0.23875930000212975, 0.3524202999979025, 0.4827664000040386]",38.34738940000534,None,,001,2022_May_10_1059,TMT_fmri,2021.2.3,None,
TMTstop-Control_1_2.xlsx,26:52,22,['3'],3,TMTstop-control_1_2linestimulus19.png,TMTstop-control_1_2greenlinestimulus19.png,TMTstop-control_1_2redlinestimulus19.png,TMT_Control,2,47,0,1,1,1,0,21,21,21,,,,,,,,,,,,,,,2,0,38.996365300001344,None,"['2', '3']",1,"[-0.1247527999948943, -0.017242499990970828]",38.996365300001344,None,,001,2022_May_10_1059,TMT_fmri,2021.2.3,None,
TMTstop-Control_1_2.xlsx,26:52,23,['2'],2,TMTstop-control_1_2linestimulus20.png,TMTstop-control_1_2greenlinestimulus20.png,TMTstop-control_1_2redlinestimulus20.png,TMT_Control,2,48,0,1,1,1,0,22,22,22,,,,,,,,,,,,,,,2,0,39.13834210000641,None,"['1', '2']",1,"[-0.031335000006947666, 0.024231499992311]",39.13834210000641,None,,001,2022_May_10_1059,TMT_fmri,2021.2.3,None,
TMTstop-Control_1_2.xlsx,26:52,24,['3'],3,TMTstop-control_1_2linestimulus21.png,TMTstop-control_1_2greenlinestimulus21.png,TMTstop-control_1_2redlinestimulus21.png,TMT_Control,2,49,0,1,1,1,0,23,23,23,,,,,,,,,,,,,,,1,1,39.269913399999496,None,['3'],1,[0.0037311000050976872],39.269913399999496,None,,001,2022_May_10_1059,TMT_fmri,2021.2.3,None,
TMTstop-Control_1_2.xlsx,26:52,25,['1'],1,TMTstop-control_1_2linestimulus22.png,TMTstop-control_1_2greenlinestimulus22.png,TMTstop-control_1_2redlinestimulus22.png,TMT_Control,2,50,0,1,1,1,0,24,24,24,,,,,,,,,,,,,,,1,1,39.40255650000472,None,['1'],1,[2.900007530115545e-06],39.40255650000472,None,,001,2022_May_10_1059,TMT_fmri,2021.2.3,None,
TMTstop-Control_1_2.xlsx,26:52,None,None,None,TMTstop-control_1_2linestimulus23.png,TMTstop-control_1_2greenlinestimulus23.png,TMTstop-control_1_2redlinestimulus23.png,TMT_Control,2,Feedback_last,0,1,1,1,0,25,25,25,,,,,,,,,,,,,,,3,0,39.526858000012,None,"['2', '3', '1']",0,"[-0.08400269999401644, 0.034359700002823956, 0.14963689999422058]",39.526858000012,None,,001,2022_May_10_1059,TMT_fmri,2021.2.3,None,
TMTstop-Control_1_3.xlsx,52:78,1,['2'],2,TMTstop-control_1_3.png,TMTstop-control_1_3.png,TMTstop-control_1_3.png,TMT_Control,3,51,0,2,2,2,0,0,0,0,,,,,,,,,,,,,,,5,0,43.62526380000054,None,"['1', '2', '3', '1', '2']",1,"[0.2568071999994572, 0.3584474999952363, 0.41862189999665134, 0.5567908999946667, 0.6137118000042392]",43.62526380000054,None,,001,2022_May_10_1059,TMT_fmri,2021.2.3,None,
TMTstop-Control_1_3.xlsx,52:78,2,['1'],1,TMTstop-control_1_3.png,TMTstop-control_1_3firstgreen.png,TMTstop-control_1_3firstred.png,TMT_Control,3,52,0,2,2,2,0,1,1,1,,,,,,,,,,,,,,,2,0,44.45021400001133,None,"['3', '1']",1,"[-0.13491959999373648, -0.010414799995487556]",44.45021400001133,None,,001,2022_May_10_1059,TMT_fmri,2021.2.3,None,
TMTstop-Control_1_3.xlsx,52:78,3,['2'],2,TMTstop-control_1_3linestimulus0.png,TMTstop-control_1_3greenlinestimulus0.png,TMTstop-control_1_3redlinestimulus0.png,TMT_Control,3,53,0,2,2,2,0,2,2,2,,,,,,,,,,,,,,,4,0,44.57576930000505,None,"['2', '3', '1', '2']",1,"[-0.06923039999674074, -0.004506199999013916, 0.12989500000549015, 0.16612810001242906]",44.57576930000505,None,,001,2022_May_10_1059,TMT_fmri,2021.2.3,None,
TMTstop-Control_1_3.xlsx,52:78,4,['1'],1,TMTstop-control_1_3linestimulus1.png,TMTstop-control_1_3greenlinestimulus1.png,TMTstop-control_1_3redlinestimulus1.png,TMT_Control,3,54,0,2,2,2,0,3,3,3,,,,,,,,,,,,,,,2,0,44.855583299999125,None,"['3', '1']",1,"[-0.014178400000673719, 0.11401469999691471]",44.855583299999125,None,,001,2022_May_10_1059,TMT_fmri,2021.2.3,None,
TMTstop-Control_1_3.xlsx,52:78,5,['3'],3,TMTstop-control_1_3linestimulus2.png,TMTstop-control_1_3greenlinestimulus2.png,TMTstop-control_1_3redlinestimulus2.png,TMT_Control,3,55,0,2,2,2,0,4,4,4,,,,,,,,,,,,,,,2,0,45.125881700005266,None,"['2', '3']",1,"[-0.11470350000308827, -0.025679400001536123]",45.125881700005266,None,,001,2022_May_10_1059,TMT_fmri,2021.2.3,None,
TMTstop-Control_1_3.xlsx,52:78,6,['1'],1,TMTstop-control_1_3linestimulus3.png,TMTstop-control_1_3greenlinestimulus3.png,TMTstop-control_1_3redlinestimulus3.png,TMT_Control,3,56,0,2,2,2,0,5,5,5,,,,,,,,,,,,,,,1,1,45.25175970001146,None,['1'],1,[-0.01409090000379365],45.25175970001146,None,,001,2022_May_10_1059,TMT_fmri,2021.2.3,None,
TMTstop-Control_1_3.xlsx,52:78,7,['2'],2,TMTstop-control_1_3linestimulus4.png,TMTstop-control_1_3greenlinestimulus4.png,TMTstop-control_1_3redlinestimulus4.png,TMT_Control,3,57,0,2,2,2,0,6,6,6,,,,,,,,,,,,,,,4,0,45.37946280000324,None,"['2', '3', '1', '2']",1,"[-0.1161506000062218, -0.01110319999861531, 0.10787049999635201, 0.16068169999925885]",45.37946280000324,None,,001,2022_May_10_1059,TMT_fmri,2021.2.3,None,
TMTstop-Control_1_3.xlsx,52:78,8,['3'],3,TMTstop-control_1_3linestimulus4.png,TMTstop-control_1_3greenlinestimulus5.png,TMTstop-control_1_3redlinestimulus5.png,TMT_Control,3,58,0,2,2,2,0,7,7,7,,,,,,,,,,,,,,,1,1,45.70987849999801,None,['3'],1,[-0.0851156999997329],45.70987849999801,None,,001,2022_May_10_1059,TMT_fmri,2021.2.3,None,
TMTstop-Control_1_3.xlsx,52:78,9,['1'],1,TMTstop-control_1_3linestimulus6.png,TMTstop-control_1_3greenlinestimulus6.png,TMTstop-control_1_3redlinestimulus6.png,TMT_Control,3,59,0,2,2,2,0,8,8,8,,,,,,,,,,,,,,,4,0,45.835556899997755,None,"['1', '2', '3', '1']",1,"[-0.08639599999878556, -0.032647200001520105, 0.03250000000116415, 0.17603329999838024]",45.835556899997755,None,,001,2022_May_10_1059,TMT_fmri,2021.2.3,None,
TMTstop-Control_1_3.xlsx,52:78,10,['2'],2,TMTstop-control_1_3linestimulus7.png,TMTstop-control_1_3greenlinestimulus7.png,TMTstop-control_1_3redlinestimulus7.png,TMT_Control,3,60,0,2,2,2,0,9,9,9,,,,,,,,,,,,,,,4,0,46.1657952000096,None,"['2', '3', '1', '2']",1,"[-0.12661439999646973, -0.03473060000396799, 0.10575630000676028, 0.1193829999974696]",46.1657952000096,None,,001,2022_May_10_1059,TMT_fmri,2021.2.3,None,
TMTstop-Control_1_3.xlsx,52:78,11,['1'],1,TMTstop-control_1_3linestimulus8.png,TMTstop-control_1_3greenlinestimulus8.png,TMTstop-control_1_3redlinestimulus8.png,TMT_Control,3,61,0,2,2,2,0,10,10,10,,,,,,,,,,,,,,,8,0,46.44573659999878,None,"['3', '1', '2', '3', '1', '2', '3', '1']",1,"[-0.06076170000596903, 0.09574789999169298, 0.13367949999519624, 0.21564139999100007, 0.3659783999901265, 0.3799029999936465, 0.5053848999959882, 0.654812499997206]",46.44573659999878,None,,001,2022_May_10_1059,TMT_fmri,2021.2.3,None,
TMTstop-Control_1_3.xlsx,52:78,12,['2'],2,TMTstop-control_1_3linestimulus9.png,TMTstop-control_1_3greenlinestimulus9.png,TMTstop-control_1_3redlinestimulus9.png,TMT_Control,3,62,0,2,2,2,0,11,11,11,,,,,,,,,,,,,,,1,1,47.25423320000118,None,['2'],1,[-0.1310213999968255],47.25423320000118,None,,001,2022_May_10_1059,TMT_fmri,2021.2.3,None,
TMTstop-Control_1_3.xlsx,52:78,13,['3'],3,TMTstop-control_1_3linestimulus10.png,TMTstop-control_1_3greenlinestimulus10.png,TMTstop-control_1_3redlinestimulus10.png,TMT_Control,3,63,0,2,2,2,0,12,12,12,,,,,,,,,,,,,,,4,0,47.39659750000283,None,"['3', '1', '2', '3']",1,"[-0.07196960000146646, -0.011638700001640245, 0.018284899997524917, 0.19654089999676216]",47.39659750000283,None,,001,2022_May_10_1059,TMT_fmri,2021.2.3,None,
TMTstop-Control_1_3.xlsx,52:78,14,['2'],2,TMTstop-control_1_3linestimulus11.png,TMTstop-control_1_3greenlinestimulus11.png,TMTstop-control_1_3redlinestimulus11.png,TMT_Control,3,64,0,2,2,2,0,13,13,13,,,,,,,,,,,,,,,1,1,47.79080570000224,None,['2'],1,[-0.10286179999820888],47.79080570000224,None,,001,2022_May_10_1059,TMT_fmri,2021.2.3,None,
TMTstop-Control_1_3.xlsx,52:78,15,['1'],1,TMTstop-control_1_3linestimulus12.png,TMTstop-control_1_3greenlinestimulus12.png,TMTstop-control_1_3redlinestimulus12.png,TMT_Control,3,65,0,2,2,2,0,14,14,14,,,,,,,,,,,,,,,1,1,47.930048000009265,None,['1'],1,[-0.12813300000561867],47.930048000009265,None,,001,2022_May_10_1059,TMT_fmri,2021.2.3,None,
TMTstop-Control_1_3.xlsx,52:78,16,['3'],3,TMTstop-control_1_3linestimulus13.png,TMTstop-control_1_3greenlinestimulus13.png,TMTstop-control_1_3redlinestimulus13.png,TMT_Control,3,66,0,2,2,2,0,15,15,15,,,,,,,,,,,,,,,1,1,48.07040440000128,None,['3'],1,[-0.09927760000573471],48.07040440000128,None,,001,2022_May_10_1059,TMT_fmri,2021.2.3,None,
TMTstop-Control_1_3.xlsx,52:78,17,['1'],1,TMTstop-control_1_3linestimulus14.png,TMTstop-control_1_3greenlinestimulus14.png,TMTstop-control_1_3redlinestimulus14.png,TMT_Control,3,67,0,2,2,2,0,16,16,16,,,,,,,,,,,,,,,4,0,48.21208350000961,None,"['1', '2', '3', '1']",1,"[-0.12482090000412427, -0.07122440000239294, 0.058513700001640245, 0.17255499999737367]",48.21208350000961,None,,001,2022_May_10_1059,TMT_fmri,2021.2.3,None,
TMTstop-Control_1_3.xlsx,52:78,18,['3'],3,TMTstop-control_1_3linestimulus15.png,TMTstop-control_1_3greenlinestimulus15.png,TMTstop-control_1_3redlinestimulus15.png,TMT_Control,3,68,0,2,2,2,0,17,17,17,,,,,,,,,,,,,,,2,0,48.49942570000712,None,"['2', '3']",1,"[-0.04059940000297502, 0.055999999996856786]",48.49942570000712,None,,001,2022_May_10_1059,TMT_fmri,2021.2.3,None,
TMTstop-Control_1_3.xlsx,52:78,19,['2'],2,TMTstop-control_1_3linestimulus16.png,TMTstop-control_1_3greenlinestimulus16.png,TMTstop-control_1_3redlinestimulus16.png,TMT_Control,3,69,0,2,2,2,0,18,18,18,,,,,,,,,,,,,,,2,0,48.75921870001184,None,"['1', '2']",1,"[-0.08856970000488218, -0.04514460000791587]",48.75921870001184,None,,001,2022_May_10_1059,TMT_fmri,2021.2.3,None,
TMTstop-Control_1_3.xlsx,52:78,20,['1'],1,TMTstop-control_1_3linestimulus17.png,TMTstop-control_1_3greenlinestimulus17.png,TMTstop-control_1_3redlinestimulus17.png,TMT_Control,3,70,0,2,2,2,0,19,19,19,,,,,,,,,,,,,,,2,0,48.88520580000477,None,"['3', '1']",1,"[-0.061226399993756786, 0.05317140000988729]",48.88520580000477,None,,001,2022_May_10_1059,TMT_fmri,2021.2.3,None,
TMTstop-Control_1_3.xlsx,52:78,21,['3'],3,TMTstop-control_1_3linestimulus18.png,TMTstop-control_1_3greenlinestimulus18.png,TMTstop-control_1_3redlinestimulus18.png,TMT_Control,3,71,0,2,2,2,0,20,20,20,,,,,,,,,,,,,,,2,0,49.02850910001143,None,"['2', '3']",1,"[-0.01471309999760706, 0.07599350000964478]",49.02850910001143,None,,001,2022_May_10_1059,TMT_fmri,2021.2.3,None,
TMTstop-Control_1_3.xlsx,52:78,22,['2'],2,TMTstop-control_1_3linestimulus19.png,TMTstop-control_1_3greenlinestimulus19.png,TMTstop-control_1_3redlinestimulus19.png,TMT_Control,3,72,0,2,2,2,0,21,21,21,,,,,,,,,,,,,,,2,0,49.28742500000226,None,"['1', '2']",1,"[-0.048352300000260584, -0.009126400007517077]",49.28742500000226,None,,001,2022_May_10_1059,TMT_fmri,2021.2.3,None,
TMTstop-Control_1_3.xlsx,52:78,23,['3'],3,TMTstop-control_1_3linestimulus20.png,TMTstop-control_1_3greenlinestimulus20.png,TMTstop-control_1_3redlinestimulus20.png,TMT_Control,3,73,0,2,2,2,0,22,22,22,,,,,,,,,,,,,,,1,1,49.413498800000525,None,['3'],1,[-0.024333300010766834],49.413498800000525,None,,001,2022_May_10_1059,TMT_fmri,2021.2.3,None,
TMTstop-Control_1_3.xlsx,52:78,24,['1'],1,TMTstop-control_1_3linestimulus21.png,TMTstop-control_1_3greenlinestimulus21.png,TMTstop-control_1_3redlinestimulus21.png,TMT_Control,3,74,0,2,2,2,0,23,23,23,,,,,,,,,,,,,,,4,0,49.55375869999989,None,"['1', '2', '3', '1']",1,"[-0.05469829999492504, -0.00040639999497216195, 0.12136520000058226, 0.21426969999447465]",49.55375869999989,None,,001,2022_May_10_1059,TMT_fmri,2021.2.3,None,
TMTstop-Control_1_3.xlsx,52:78,25,['2'],2,TMTstop-control_1_3linestimulus22.png,TMTstop-control_1_3greenlinestimulus22.png,TMTstop-control_1_3redlinestimulus22.png,TMT_Control,3,75,0,2,2,2,0,24,24,24,,,,,,,,,,,,,,,1,1,49.88341580000997,None,['2'],1,[-0.054751999996369705],49.88341580000997,None,,001,2022_May_10_1059,TMT_fmri,2021.2.3,None,
TMTstop-Control_1_3.xlsx,52:78,None,None,None,TMTstop-control_1_3linestimulus23.png,TMTstop-control_1_3greenlinestimulus23.png,TMTstop-control_1_3redlinestimulus23.png,TMT_Control,3,Feedback_last,0,2,2,2,0,25,25,25,,,,,,,,,,,,,,,3,0,50.011911100009456,None,"['3', '2', '1']",0,"[-0.10081360000185668, 0.15356430000974797, 0.20975829999952111]",50.011911100009456,None,,001,2022_May_10_1059,TMT_fmri,2021.2.3,None,
TMTstop-Control_1_4.xlsx,78:104,1,['2'],2,TMTstop-control_1_4.png,TMTstop-control_1_4.png,TMTstop-control_1_4.png,TMT_Control,4,76,0,3,3,3,0,0,0,0,,,,,,,,,,,,,,,2,0,54.093908200011356,None,"['1', '2']",1,"[0.33880369999678805, 0.41825669999525417]",54.093908200011356,None,,001,2022_May_10_1059,TMT_fmri,2021.2.3,None,
TMTstop-Control_1_4.xlsx,78:104,2,['1'],1,TMTstop-control_1_4.png,TMTstop-control_1_4firstgreen.png,TMTstop-control_1_4firstred.png,TMT_Control,4,77,0,3,3,3,0,1,1,1,,,,,,,,,,,,,,,5,0,54.649981800001115,None,"['3', '1', '2', '3', '1']",1,"[-0.05026789999101311, 0.09635970000817906, 0.13143829999899026, 0.24277209999854676, 0.3677447000081884]",54.649981800001115,None,,001,2022_May_10_1059,TMT_fmri,2021.2.3,None,
TMTstop-Control_1_4.xlsx,78:104,3,['3'],3,TMTstop-control_1_4linestimulus0.png,TMTstop-control_1_4greenlinestimulus0.png,TMTstop-control_1_4redlinestimulus0.png,TMT_Control,4,78,0,3,3,3,0,2,2,2,,,,,,,,,,,,,,,2,0,55.201608000003034,None,"['2', '3']",1,"[-0.12190100000589155, -0.039038800008711405]",55.201608000003034,None,,001,2022_May_10_1059,TMT_fmri,2021.2.3,None,
TMTstop-Control_1_4.xlsx,78:104,4,['1'],1,TMTstop-control_1_4linestimulus1.png,TMTstop-control_1_4greenlinestimulus1.png,TMTstop-control_1_4redlinestimulus1.png,TMT_Control,4,79,0,3,3,3,0,3,3,3,,,,,,,,,,,,,,,1,1,55.32870310000726,None,['1'],1,[-0.02714890000061132],55.32870310000726,None,,001,2022_May_10_1059,TMT_fmri,2021.2.3,None,
TMTstop-Control_1_4.xlsx,78:104,5,['3'],3,TMTstop-control_1_4linestimulus2.png,TMTstop-control_1_4greenlinestimulus2.png,TMTstop-control_1_4redlinestimulus2.png,TMT_Control,4,80,0,3,3,3,0,4,4,4,,,,,,,,,,,,,,,2,0,55.46805780001159,None,"['2', '3']",1,"[-0.12284340000769589, -0.02158400000189431]",55.46805780001159,None,,001,2022_May_10_1059,TMT_fmri,2021.2.3,None,
TMTstop-Control_1_4.xlsx,78:104,6,['1'],1,TMTstop-control_1_4linestimulus3.png,TMTstop-control_1_4greenlinestimulus3.png,TMTstop-control_1_4redlinestimulus3.png,TMT_Control,4,81,0,3,3,3,0,5,5,5,,,,,,,,,,,,,,,1,1,55.59416570000758,None,['1'],1,[-0.01578729999891948],55.59416570000758,None,,001,2022_May_10_1059,TMT_fmri,2021.2.3,None,
TMTstop-Control_1_4.xlsx,78:104,7,['3'],3,TMTstop-control_1_4linestimulus4.png,TMTstop-control_1_4greenlinestimulus4.png,TMTstop-control_1_4redlinestimulus4.png,TMT_Control,4,82,0,3,3,3,0,6,6,6,,,,,,,,,,,,,,,2,0,55.732724600005895,None,"['2', '3']",1,"[-0.1174038000026485, 0.007313099995371886]",55.732724600005895,None,,001,2022_May_10_1059,TMT_fmri,2021.2.3,None,
TMTstop-Control_1_4.xlsx,78:104,8,['1'],1,TMTstop-control_1_4linestimulus4.png,TMTstop-control_1_4greenlinestimulus5.png,TMTstop-control_1_4redlinestimulus5.png,TMT_Control,4,83,0,3,3,3,0,7,7,7,,,,,,,,,,,,,,,1,1,55.87527210000553,None,['1'],1,[0.0036226000083843246],55.87527210000553,None,,001,2022_May_10_1059,TMT_fmri,2021.2.3,None,
TMTstop-Control_1_4.xlsx,78:104,9,['3'],3,TMTstop-control_1_4linestimulus6.png,TMTstop-control_1_4greenlinestimulus6.png,TMTstop-control_1_4redlinestimulus6.png,TMT_Control,4,84,0,3,3,3,0,8,8,8,,,,,,,,,,,,,,,4,0,56.00854710000567,None,"['2', '1', '2', '3']",1,"[-0.04763610000372864, 0.19423809999716468, 0.2400805999932345, 0.35420329999760725]",56.00854710000567,None,,001,2022_May_10_1059,TMT_fmri,2021.2.3,None,
TMTstop-Control_1_4.xlsx,78:104,10,['2'],2,TMTstop-control_1_4linestimulus7.png,TMTstop-control_1_4greenlinestimulus7.png,TMTstop-control_1_4redlinestimulus7.png,TMT_Control,4,85,0,3,3,3,0,9,9,9,,,,,,,,,,,,,,,2,0,56.56654580000031,None,"['1', '2']",1,"[-0.08299700000497978, -0.03681390000565443]",56.56654580000031,None,,001,2022_May_10_1059,TMT_fmri,2021.2.3,None,
TMTstop-Control_1_4.xlsx,78:104,11,['1'],1,TMTstop-control_1_4linestimulus8.png,TMTstop-control_1_4greenlinestimulus8.png,TMTstop-control_1_4redlinestimulus8.png,TMT_Control,4,86,0,3,3,3,0,10,10,10,,,,,,,,,,,,,,,5,0,56.708210800003144,None,"['3', '1', '2', '3', '1']",1,"[-0.054772999996203, 0.07143399999768008, 0.12236249999841675, 0.2362101999897277, 0.37935960000322666]",56.708210800003144,None,,001,2022_May_10_1059,TMT_fmri,2021.2.3,None,
TMTstop-Control_1_4.xlsx,78:104,12,['3'],3,TMTstop-control_1_4linestimulus9.png,TMTstop-control_1_4greenlinestimulus9.png,TMTstop-control_1_4redlinestimulus9.png,TMT_Control,4,87,0,3,3,3,0,11,11,11,,,,,,,,,,,,,,,0,0,57.17603366667851,None,None,0,,57.17603366667851,None,,001,2022_May_10_1059,TMT_fmri,2021.2.3,None,
TMTstop-A_1_1.xlsx,0:26,1,['1'],1,TMTstop-A_1_1.png,TMTstop-A_1_1.png,TMTstop-A_1_1.png,TMT_A,1,1,,,,,,,,,0,0,0,0,0,0,0,0,,,,,,,5,0,70.3606998000032,None,"['2', '3', '1', '2', '1']",1,"[-13.214466000004904, -13.09790459999931, -12.919376800011378, -12.879637400008505, 0.8104902999912156]",70.3606998000032,None,,001,2022_May_10_1059,TMT_fmri,2021.2.3,None,
TMTstop-A_1_1.xlsx,0:26,2,['3'],3,TMTstop-A_1_1.png,TMTstop-A_1_1firstgreen.png,TMTstop-A_1_1firstred.png,TMT_A,1,2,,,,,,,,,0,0,0,0,0,1,1,1,,,,,,,2,0,71.37843180001073,None,"['2', '3']",1,"[-0.10648599998967256, 0.08173220000753645]",71.37843180001073,None,,001,2022_May_10_1059,TMT_fmri,2021.2.3,None,
TMTstop-A_1_1.xlsx,0:26,3,['1'],1,TMTstop-A_1_1linestimulus0.png,TMTstop-A_1_1greenlinestimulus0.png,TMTstop-A_1_1redlinestimulus0.png,TMT_A,1,3,,,,,,,,,0,0,0,0,0,2,2,2,,,,,,,1,1,71.64390090000234,None,['1'],1,[0.004092799994396046],71.64390090000234,None,,001,2022_May_10_1059,TMT_fmri,2021.2.3,None,
TMTstop-A_1_1.xlsx,0:26,4,['3'],3,TMTstop-A_1_1linestimulus1.png,TMTstop-A_1_1greenlinestimulus1.png,TMTstop-A_1_1redlinestimulus1.png,TMT_A,1,4,,,,,,,,,0,0,0,0,0,3,3,3,,,,,,,2,0,71.77916520000144,None,"['2', '3']",1,"[-0.05634060000011232, 0.056147600000258535]",71.77916520000144,None,,001,2022_May_10_1059,TMT_fmri,2021.2.3,None,
,,,,,,,,,,,,,,,,,,,,,,,,,,,,,,,,,3,0,,,,,,,,,,,,,,
