NumberLetter,corrAns,Correct,StimFile,Correct_StimFile,False_StimFile,Version,Paper,TrialNumber_Version,Round,Block,TrialNumber_total,n,Stim.started_mean,Stim.started_raw,Stim.started_std,Stim.stopped_raw,key_resp_2.corr_mean,key_resp_2.corr_raw,key_resp_2.corr_std,key_resp_2.keys_raw,key_resp_2.rt_raw,key_resp_2.started_mean,key_resp_2.started_raw,key_resp_2.started_std,key_resp_2.stopped_raw,order
1,['1'],1.0,Images/TMTstop-control_1_9.png,Images/TMTstop-control_1_9.png,Images/TMTstop-control_1_9.png,TMT_Control,C9,201.0,5.0,5.0,201.0,1.0,352.1000671386719,352.1000671386719,0.0,,1.0,1.0,0.0,1,0.9668067000457086,352.1000671386719,352.1000671386719,0.0,,0.0
2,['2'],2.0,Images/TMTstop-control_1_9.png,Images/TMTstop-control_1_9firstgreen.png,Images/TMTstop-control_1_9firstred.png,TMT_Control,C9,202.0,None,5.0,202.0,1.0,353.12677001953125,353.12677001953125,0.0,,1.0,1.0,0.0,2,0.08915129996603355,353.12677001953125,353.12677001953125,0.0,,1.0
3,['1'],1.0,Images/TMTstop-control_1_9linestimulus0.png,Images/TMTstop-control_1_9greenlinestimulus0.png,Images/TMTstop-control_1_9redlinestimulus0.png,TMT_Control,C9,203.0,None,5.0,203.0,1.0,353.284423828125,353.284423828125,0.0,,1.0,1.0,0.0,3,1,0.05493759998353198,0.22664959996473044,353.284423828125,353.284423828125,0.0,,2.0
4,['3'],3.0,Images/TMTstop-control_1_9linestimulus1.png,Images/TMTstop-control_1_9greenlinestimulus1.png,Images/TMTstop-control_1_9redlinestimulus1.png,TMT_Control,C9,204.0,None,5.0,204.0,1.0,353.605224609375,353.605224609375,0.0,,1.0,1.0,0.0,2,3,-0.008367199974600226,0.05666520004160702,353.605224609375,353.605224609375,0.0,,3.0
5,['1'],1.0,Images/TMTstop-control_1_9linestimulus2.png,Images/TMTstop-control_1_9greenlinestimulus2.png,Images/TMTstop-control_1_9redlinestimulus2.png,TMT_Control,C9,205.0,None,5.0,205.0,1.0,353.75482177734375,353.75482177734375,0.0,,1.0,1.0,0.0,1,0.11305220000213012,353.75482177734375,353.75482177734375,0.0,,4.0
6,['3'],3.0,Images/TMTstop-control_1_9linestimulus3.png,Images/TMTstop-control_1_9greenlinestimulus3.png,Images/TMTstop-control_1_9redlinestimulus3.png,TMT_Control,C9,206.0,None,5.0,206.0,1.0,353.9227294921875,353.9227294921875,0.0,,1.0,1.0,0.0,2,3,0.004110900044906884,0.07412060000933707,353.9227294921875,353.9227294921875,0.0,,5.0
7,['2'],2.0,Images/TMTstop-control_1_9linestimulus4.png,Images/TMTstop-control_1_9greenlinestimulus4.png,Images/TMTstop-control_1_9redlinestimulus4.png,TMT_Control,C9,207.0,None,5.0,207.0,1.0,354.10064697265625,354.10064697265625,0.0,,1.0,1.0,0.0,1,2,0.06532230001175776,0.1241382000152953,354.10064697265625,354.10064697265625,0.0,,6.0
8,['3'],3.0,Images/TMTstop-control_1_9linestimulus4.png,Images/TMTstop-control_1_9greenlinestimulus5.png,Images/TMTstop-control_1_9redlinestimulus5.png,TMT_Control,C9,208.0,None,5.0,208.0,1.0,354.3307189941406,354.3307189941406,0.0,,1.0,1.0,0.0,3,-0.03374759998405352,354.3307189941406,354.3307189941406,0.0,,7.0
9,['2'],2.0,Images/TMTstop-control_1_9linestimulus6.png,Images/TMTstop-control_1_9greenlinestimulus6.png,Images/TMTstop-control_1_9redlinestimulus6.png,TMT_Control,C9,209.0,None,5.0,209.0,1.0,354.3810119628906,354.3810119628906,0.0,,1.0,1.0,0.0,1,2,0.2976685000467114,0.3968956000171602,354.3810119628906,354.3810119628906,0.0,,8.0
10,['1'],1.0,Images/TMTstop-control_1_9linestimulus7.png,Images/TMTstop-control_1_9greenlinestimulus7.png,Images/TMTstop-control_1_9redlinestimulus7.png,TMT_Control,C9,210.0,None,5.0,210.0,1.0,354.84466552734375,354.84466552734375,0.0,,1.0,1.0,0.0,3,1,0.018522200000006706,0.26845059997867793,354.84466552734375,354.84466552734375,0.0,,9.0
11,['2'],2.0,Images/TMTstop-control_1_9linestimulus8.png,Images/TMTstop-control_1_9greenlinestimulus8.png,Images/TMTstop-control_1_9redlinestimulus8.png,TMT_Control,C9,211.0,None,5.0,211.0,1.0,355.18585205078125,355.18585205078125,0.0,,1.0,1.0,0.0,2,0.014601800008676946,355.18585205078125,355.18585205078125,0.0,,10.0
12,['3'],3.0,Images/TMTstop-control_1_9linestimulus9.png,Images/TMTstop-control_1_9greenlinestimulus9.png,Images/TMTstop-control_1_9redlinestimulus9.png,TMT_Control,C9,212.0,None,5.0,212.0,1.0,355.2602844238281,355.2602844238281,0.0,,1.0,1.0,0.0,3,-0.005428800010122359,355.2602844238281,355.2602844238281,0.0,,11.0
13,['2'],2.0,Images/TMTstop-control_1_9linestimulus10.png,Images/TMTstop-control_1_9greenlinestimulus10.png,Images/TMTstop-control_1_9redlinestimulus10.png,TMT_Control,C9,213.0,None,5.0,213.0,1.0,355.30975341796875,355.30975341796875,0.0,,1.0,1.0,0.0,1,1,3,1,2,0.21532389998901635,0.45425329997669905,0.6739939000108279,0.8853505000006407,1.0072311999974772,355.30975341796875,355.30975341796875,0.0,,12.0
14,['3'],3.0,Images/TMTstop-control_1_9linestimulus11.png,Images/TMTstop-control_1_9greenlinestimulus11.png,Images/TMTstop-control_1_9redlinestimulus11.png,TMT_Control,C9,214.0,None,5.0,214.0,1.0,356.3985595703125,356.3985595703125,0.0,,1.0,1.0,0.0,3,0.18799930001841858,356.3985595703125,356.3985595703125,0.0,,13.0
15,['2'],2.0,Images/TMTstop-control_1_9linestimulus12.png,Images/TMTstop-control_1_9greenlinestimulus12.png,Images/TMTstop-control_1_9redlinestimulus12.png,TMT_Control,C9,215.0,None,5.0,215.0,1.0,356.6565856933594,356.6565856933594,0.0,,1.0,1.0,0.0,1,2,0.17829429998528212,0.3003067999961786,356.6565856933594,356.6565856933594,0.0,,14.0
16,['1'],1.0,Images/TMTstop-control_1_9linestimulus13.png,Images/TMTstop-control_1_9greenlinestimulus13.png,Images/TMTstop-control_1_9redlinestimulus13.png,TMT_Control,C9,216.0,None,5.0,216.0,1.0,357.04364013671875,357.04364013671875,0.0,,1.0,1.0,0.0,3,1,0.026899199991021305,0.1685548999812454,357.04364013671875,357.04364013671875,0.0,,15.0
17,['2'],2.0,Images/TMTstop-control_1_9linestimulus14.png,Images/TMTstop-control_1_9greenlinestimulus14.png,Images/TMTstop-control_1_9redlinestimulus14.png,TMT_Control,C9,217.0,None,5.0,217.0,1.0,357.2846374511719,357.2846374511719,0.0,,1.0,1.0,0.0,2,0.022229100053664297,357.2846374511719,357.2846374511719,0.0,,16.0
18,['1'],1.0,Images/TMTstop-control_1_9linestimulus15.png,Images/TMTstop-control_1_9greenlinestimulus15.png,Images/TMTstop-control_1_9redlinestimulus15.png,TMT_Control,C9,218.0,None,5.0,218.0,1.0,357.384765625,357.384765625,0.0,,1.0,1.0,0.0,3,1,-0.012717899982817471,0.15913300000829622,357.384765625,357.384765625,0.0,,17.0
19,['2'],2.0,Images/TMTstop-control_1_9linestimulus16.png,Images/TMTstop-control_1_9greenlinestimulus16.png,Images/TMTstop-control_1_9redlinestimulus16.png,TMT_Control,C9,219.0,None,5.0,219.0,1.0,357.6345520019531,357.6345520019531,0.0,,1.0,1.0,0.0,2,-0.03770000004442409,357.6345520019531,357.6345520019531,0.0,,18.0
20,['3'],3.0,Images/TMTstop-control_1_9linestimulus17.png,Images/TMTstop-control_1_9greenlinestimulus17.png,Images/TMTstop-control_1_9redlinestimulus17.png,TMT_Control,C9,220.0,None,5.0,220.0,1.0,357.6850891113281,357.6850891113281,0.0,,1.0,1.0,0.0,3,-0.002293700003065169,357.6850891113281,357.6850891113281,0.0,,19.0
21,['1'],1.0,Images/TMTstop-control_1_9linestimulus18.png,Images/TMTstop-control_1_9greenlinestimulus18.png,Images/TMTstop-control_1_9redlinestimulus18.png,TMT_Control,C9,221.0,None,5.0,221.0,1.0,357.7347412109375,357.7347412109375,0.0,,1.0,1.0,0.0,1,0.1182058000122197,357.7347412109375,357.7347412109375,0.0,,20.0
22,['2'],2.0,Images/TMTstop-control_1_9linestimulus19.png,Images/TMTstop-control_1_9greenlinestimulus19.png,Images/TMTstop-control_1_9redlinestimulus19.png,TMT_Control,C9,222.0,None,5.0,222.0,1.0,357.90203857421875,357.90203857421875,0.0,,1.0,1.0,0.0,2,-0.004626600013580173,357.90203857421875,357.90203857421875,0.0,,21.0
23,['1'],1.0,Images/TMTstop-control_1_9linestimulus20.png,Images/TMTstop-control_1_9greenlinestimulus20.png,Images/TMTstop-control_1_9redlinestimulus20.png,TMT_Control,C9,223.0,None,5.0,223.0,1.0,357.95916748046875,357.95916748046875,0.0,,1.0,1.0,0.0,3,1,0.027476700022816658,0.22376000002259389,357.95916748046875,357.95916748046875,0.0,,22.0
24,['2'],2.0,Images/TMTstop-control_1_9linestimulus21.png,Images/TMTstop-control_1_9greenlinestimulus21.png,Images/TMTstop-control_1_9redlinestimulus21.png,TMT_Control,C9,224.0,None,5.0,224.0,1.0,358.2482604980469,358.2482604980469,0.0,,1.0,1.0,0.0,2,-0.0014121999847702682,358.2482604980469,358.2482604980469,0.0,,23.0
25,['1'],1.0,Images/TMTstop-control_1_9linestimulus22.png,Images/TMTstop-control_1_9greenlinestimulus22.png,Images/TMTstop-control_1_9redlinestimulus22.png,TMT_Control,C9,225.0,None,5.0,225.0,1.0,358.2984619140625,358.2984619140625,0.0,,1.0,1.0,0.0,3,1,0.017365199979394674,0.17228749999776483,358.2984619140625,358.2984619140625,0.0,,24.0
None,None,None,Images/TMTstop-control_1_9linestimulus23.png,Images/TMTstop-control_1_9greenlinestimulus23.png,Images/TMTstop-control_1_9redlinestimulus23.png,TMT_Control,C9,Feedback_last,None,5.0,Feedback_last,1.0,358.52264404296875,358.52264404296875,0.0,,0.0,0.0,0.0,2,-0.007781799999065697,358.52264404296875,358.52264404296875,0.0,,25.0

extraInfo
participant,
session,001
date,2022_Dec_20_1655
expName,TMT_fmri
psychopyVersion,2021.2.3
frameRate,59.88583364190807
﻿NumberLetter,corrAns,Correct,StimFile,Correct_StimFile,False_StimFile,Version,Paper,TrialNumber_Version,Round,Block,TrialNumber_total,n,Stim.started_mean,Stim.started_raw,Stim.started_std,Stim.stopped_raw,key_resp_2.corr_mean,key_resp_2.corr_raw,key_resp_2.corr_std,key_resp_2.keys_raw,key_resp_2.rt_raw,key_resp_2.started_mean,key_resp_2.started_raw,key_resp_2.started_std,key_resp_2.stopped_raw,order
1,['1'],1.0,Images/TMTstop-control_1_10.png,Images/TMTstop-control_1_10.png,Images/TMTstop-control_1_10.png,TMT_Control,C10,226.0,None,5.0,226.0,1.0,362.9010009765625,362.9010009765625,0.0,,1.0,1.0,0.0,1,0.6669189999811351,362.9010009765625,362.9010009765625,0.0,,0.0
2,['2'],2.0,Images/TMTstop-control_1_10.png,Images/TMTstop-control_1_10firstgreen.png,Images/TMTstop-control_1_10firstred.png,TMT_Control,C10,227.0,None,5.0,227.0,1.0,363.62640380859375,363.62640380859375,0.0,,1.0,1.0,0.0,2,-0.0005416999920271337,363.62640380859375,363.62640380859375,0.0,,1.0
3,['1'],1.0,Images/TMTstop-control_1_10linestimulus0.png,Images/TMTstop-control_1_10greenlinestimulus0.png,Images/TMTstop-control_1_10redlinestimulus0.png,TMT_Control,C10,228.0,None,5.0,228.0,1.0,363.6764221191406,363.6764221191406,0.0,,1.0,1.0,0.0,3,1,0.033569500024896115,0.23661249998258427,363.6764221191406,363.6764221191406,0.0,,2.0
4,['3'],3.0,Images/TMTstop-control_1_10linestimulus1.png,Images/TMTstop-control_1_10greenlinestimulus1.png,Images/TMTstop-control_1_10redlinestimulus1.png,TMT_Control,C10,229.0,None,5.0,229.0,1.0,363.99993896484375,363.99993896484375,0.0,,1.0,1.0,0.0,2,3,-0.04233590001240373,0.08385430002817884,363.99993896484375,363.99993896484375,0.0,,3.0
5,['1'],1.0,Images/TMTstop-control_1_10linestimulus2.png,Images/TMTstop-control_1_10greenlinestimulus2.png,Images/TMTstop-control_1_10redlinestimulus2.png,TMT_Control,C10,230.0,None,5.0,230.0,1.0,364.1498107910156,364.1498107910156,0.0,,1.0,1.0,0.0,1,0.12232139997649938,364.1498107910156,364.1498107910156,0.0,,4.0
6,['3'],3.0,Images/TMTstop-control_1_10linestimulus3.png,Images/TMTstop-control_1_10greenlinestimulus3.png,Images/TMTstop-control_1_10redlinestimulus3.png,TMT_Control,C10,231.0,None,5.0,231.0,1.0,364.3337097167969,364.3337097167969,0.0,,1.0,1.0,0.0,2,3,-0.005005599989090115,0.06511879997560754,364.3337097167969,364.3337097167969,0.0,,5.0
7,['2'],2.0,Images/TMTstop-control_1_10linestimulus4.png,Images/TMTstop-control_1_10greenlinestimulus4.png,Images/TMTstop-control_1_10redlinestimulus4.png,TMT_Control,C10,232.0,None,5.0,232.0,1.0,364.495361328125,364.495361328125,0.0,,1.0,1.0,0.0,1,2,0.1058941000374034,0.13539390004007146,364.495361328125,364.495361328125,0.0,,6.0
8,['3'],3.0,Images/TMTstop-control_1_10linestimulus4.png,Images/TMTstop-control_1_10greenlinestimulus5.png,Images/TMTstop-control_1_10redlinestimulus5.png,TMT_Control,C10,233.0,None,5.0,233.0,1.0,364.7287902832031,364.7287902832031,0.0,,1.0,1.0,0.0,3,0.008449299959465861,364.7287902832031,364.7287902832031,0.0,,7.0
9,['2'],2.0,Images/TMTstop-control_1_10linestimulus6.png,Images/TMTstop-control_1_10greenlinestimulus6.png,Images/TMTstop-control_1_10redlinestimulus6.png,TMT_Control,C10,234.0,None,5.0,234.0,1.0,364.80010986328125,364.80010986328125,0.0,,1.0,1.0,0.0,1,2,0.24459309998201206,0.29774360003648326,364.80010986328125,364.80010986328125,0.0,,8.0
10,['1'],1.0,Images/TMTstop-control_1_10linestimulus7.png,Images/TMTstop-control_1_10greenlinestimulus7.png,Images/TMTstop-control_1_10redlinestimulus7.png,TMT_Control,C10,235.0,None,5.0,235.0,1.0,365.1609802246094,365.1609802246094,0.0,,1.0,1.0,0.0,3,1,0.04074699996272102,0.21163669996894896,365.1609802246094,365.1609802246094,0.0,,9.0
11,['2'],2.0,Images/TMTstop-control_1_10linestimulus8.png,Images/TMTstop-control_1_10greenlinestimulus8.png,Images/TMTstop-control_1_10redlinestimulus8.png,TMT_Control,C10,236.0,None,5.0,236.0,1.0,365.439453125,365.439453125,0.0,,1.0,1.0,0.0,2,-0.0246675000526011,365.439453125,365.439453125,0.0,,10.0
12,['3'],3.0,Images/TMTstop-control_1_10linestimulus9.png,Images/TMTstop-control_1_10greenlinestimulus9.png,Images/TMTstop-control_1_10redlinestimulus9.png,TMT_Control,C10,237.0,None,5.0,237.0,1.0,365.4888916015625,365.4888916015625,0.0,,1.0,1.0,0.0,3,0.01967249996960163,365.4888916015625,365.4888916015625,0.0,,11.0
13,['2'],2.0,Images/TMTstop-control_1_10linestimulus10.png,Images/TMTstop-control_1_10greenlinestimulus10.png,Images/TMTstop-control_1_10redlinestimulus10.png,TMT_Control,C10,238.0,None,5.0,238.0,1.0,365.5892333984375,365.5892333984375,0.0,,1.0,1.0,0.0,1,2,0.07426650001434609,0.15081459999782965,365.5892333984375,365.5892333984375,0.0,,12.0
14,['3'],3.0,Images/TMTstop-control_1_10linestimulus11.png,Images/TMTstop-control_1_10greenlinestimulus11.png,Images/TMTstop-control_1_10redlinestimulus11.png,TMT_Control,C10,239.0,None,5.0,239.0,1.0,365.828857421875,365.828857421875,0.0,,1.0,1.0,0.0,3,-0.01664879999589175,365.828857421875,365.828857421875,0.0,,13.0
15,['2'],2.0,Images/TMTstop-control_1_10linestimulus12.png,Images/TMTstop-control_1_10greenlinestimulus12.png,Images/TMTstop-control_1_10redlinestimulus12.png,TMT_Control,C10,240.0,None,5.0,240.0,1.0,365.8790588378906,365.8790588378906,0.0,,1.0,1.0,0.0,1,2,0.11079120001522824,0.18833440000889823,365.8790588378906,365.8790588378906,0.0,,14.0
16,['1'],1.0,Images/TMTstop-control_1_10linestimulus13.png,Images/TMTstop-control_1_10greenlinestimulus13.png,Images/TMTstop-control_1_10redlinestimulus13.png,TMT_Control,C10,241.0,None,5.0,241.0,1.0,366.15234375,366.15234375,0.0,,1.0,1.0,0.0,3,1,-0.025728699984028935,0.14523239998379722,366.15234375,366.15234375,0.0,,15.0
17,['2'],2.0,Images/TMTstop-control_1_10linestimulus14.png,Images/TMTstop-control_1_10greenlinestimulus14.png,Images/TMTstop-control_1_10redlinestimulus14.png,TMT_Control,C10,242.0,None,5.0,242.0,1.0,366.3583984375,366.3583984375,0.0,,1.0,1.0,0.0,2,-0.008454599999822676,366.3583984375,366.3583984375,0.0,,16.0
18,['1'],1.0,Images/TMTstop-control_1_10linestimulus15.png,Images/TMTstop-control_1_10greenlinestimulus15.png,Images/TMTstop-control_1_10redlinestimulus15.png,TMT_Control,C10,243.0,None,5.0,243.0,1.0,366.4085388183594,366.4085388183594,0.0,,1.0,1.0,0.0,3,1,0.02109960000962019,0.18566249997820705,366.4085388183594,366.4085388183594,0.0,,17.0
19,['2'],2.0,Images/TMTstop-control_1_10linestimulus16.png,Images/TMTstop-control_1_10greenlinestimulus16.png,Images/TMTstop-control_1_10redlinestimulus16.png,TMT_Control,C10,244.0,None,5.0,244.0,1.0,366.6662292480469,366.6662292480469,0.0,,1.0,1.0,0.0,2,-0.01350639999145642,366.6662292480469,366.6662292480469,0.0,,18.0
20,['3'],3.0,Images/TMTstop-control_1_10linestimulus17.png,Images/TMTstop-control_1_10greenlinestimulus17.png,Images/TMTstop-control_1_10redlinestimulus17.png,TMT_Control,C10,245.0,None,5.0,245.0,1.0,366.71673583984375,366.71673583984375,0.0,,1.0,1.0,0.0,3,0.020763900014571846,366.71673583984375,366.71673583984375,0.0,,19.0
21,['1'],1.0,Images/TMTstop-control_1_10linestimulus18.png,Images/TMTstop-control_1_10greenlinestimulus18.png,Images/TMTstop-control_1_10redlinestimulus18.png,TMT_Control,C10,246.0,None,5.0,246.0,1.0,366.81689453125,366.81689453125,0.0,,1.0,1.0,0.0,1,0.07284350000554696,366.81689453125,366.81689453125,0.0,,20.0
22,['2'],2.0,Images/TMTstop-control_1_10linestimulus19.png,Images/TMTstop-control_1_10greenlinestimulus19.png,Images/TMTstop-control_1_10redlinestimulus19.png,TMT_Control,C10,247.0,None,5.0,247.0,1.0,366.94976806640625,366.94976806640625,0.0,,1.0,1.0,0.0,2,-0.005764000001363456,366.94976806640625,366.94976806640625,0.0,,21.0
23,['1'],1.0,Images/TMTstop-control_1_10linestimulus20.png,Images/TMTstop-control_1_10greenlinestimulus20.png,Images/TMTstop-control_1_10redlinestimulus20.png,TMT_Control,C10,248.0,None,5.0,248.0,1.0,367.0063171386719,367.0063171386719,0.0,,1.0,1.0,0.0,3,1,0.03262630000244826,0.16331620002165437,367.0063171386719,367.0063171386719,0.0,,22.0
24,['2'],2.0,Images/TMTstop-control_1_10linestimulus21.png,Images/TMTstop-control_1_10greenlinestimulus21.png,Images/TMTstop-control_1_10redlinestimulus21.png,TMT_Control,C10,249.0,None,5.0,249.0,1.0,367.2435607910156,367.2435607910156,0.0,,1.0,1.0,0.0,2,-0.0029664000030606985,367.2435607910156,367.2435607910156,0.0,,23.0
25,['1'],1.0,Images/TMTstop-control_1_10linestimulus22.png,Images/TMTstop-control_1_10greenlinestimulus22.png,Images/TMTstop-control_1_10redlinestimulus22.png,TMT_Control,C10,250.0,None,5.0,250.0,1.0,367.2942199707031,367.2942199707031,0.0,,1.0,1.0,0.0,3,1,0.02939680003328249,0.17594330001156777,367.2942199707031,367.2942199707031,0.0,,24.0
None,None,None,Images/TMTstop-control_1_10linestimulus23.png,Images/TMTstop-control_1_10greenlinestimulus23.png,Images/TMTstop-control_1_10redlinestimulus23.png,TMT_Control,C10,Feedback_last,None,5.0,Feedback_last,1.0,367.5445251464844,367.5445251464844,0.0,,0.0,0.0,0.0,2,-0.016522499965503812,367.5445251464844,367.5445251464844,0.0,,25.0

extraInfo
participant,
session,001
date,2022_Dec_20_1655
expName,TMT_fmri
psychopyVersion,2021.2.3
frameRate,59.88583364190807
﻿NumberLetter,corrAns,Correct,StimFile,Correct_StimFile,False_StimFile,Version,Paper,TrialNumber_Version,Round,Block,TrialNumber_total,n,Stim.started_mean,Stim.started_raw,Stim.started_std,Stim.stopped_raw,key_resp_2.corr_mean,key_resp_2.corr_raw,key_resp_2.corr_std,key_resp_2.keys_raw,key_resp_2.rt_raw,key_resp_2.started_mean,key_resp_2.started_raw,key_resp_2.started_std,key_resp_2.stopped_raw,order
1,['2'],2.0,Images/TMTstop-control_1_11.png,Images/TMTstop-control_1_11.png,Images/TMTstop-control_1_11.png,TMT_Control,C11,251.0,None,5.0,251.0,1.0,371.92132568359375,371.92132568359375,0.0,,1.0,1.0,0.0,1,2,0.38075289997505024,0.47781919996486977,371.92132568359375,371.92132568359375,0.0,,0.0
2,['1'],1.0,Images/TMTstop-control_1_11.png,Images/TMTstop-control_1_11firstgreen.png,Images/TMTstop-control_1_11firstred.png,TMT_Control,C11,252.0,None,5.0,252.0,1.0,372.4813537597656,372.4813537597656,0.0,,1.0,1.0,0.0,3,1,-0.012687399983406067,0.18492849997710437,372.4813537597656,372.4813537597656,0.0,,1.0
3,['2'],2.0,Images/TMTstop-control_1_11linestimulus0.png,Images/TMTstop-control_1_11greenlinestimulus0.png,Images/TMTstop-control_1_11redlinestimulus0.png,TMT_Control,C11,253.0,None,5.0,253.0,1.0,372.73809814453125,372.73809814453125,0.0,,1.0,1.0,0.0,2,0.004027899994980544,372.73809814453125,372.73809814453125,0.0,,2.0
4,['1'],1.0,Images/TMTstop-control_1_11linestimulus1.png,Images/TMTstop-control_1_11greenlinestimulus1.png,Images/TMTstop-control_1_11redlinestimulus1.png,TMT_Control,C11,254.0,None,5.0,254.0,1.0,372.824951171875,372.824951171875,0.0,,1.0,1.0,0.0,3,1,-0.011828899965621531,0.15670990000944585,372.824951171875,372.824951171875,0.0,,3.0
5,['2'],2.0,Images/TMTstop-control_1_11linestimulus2.png,Images/TMTstop-control_1_11greenlinestimulus2.png,Images/TMTstop-control_1_11redlinestimulus2.png,TMT_Control,C11,255.0,None,5.0,255.0,1.0,373.0757751464844,373.0757751464844,0.0,,1.0,1.0,0.0,2,-0.03380540001671761,373.0757751464844,373.0757751464844,0.0,,4.0
6,['1'],1.0,Images/TMTstop-control_1_11linestimulus3.png,Images/TMTstop-control_1_11greenlinestimulus3.png,Images/TMTstop-control_1_11redlinestimulus3.png,TMT_Control,C11,256.0,None,5.0,256.0,1.0,373.12640380859375,373.12640380859375,0.0,,1.0,1.0,0.0,3,1,-0.026248699985444546,0.18769709998741746,373.12640380859375,373.12640380859375,0.0,,5.0
7,['2'],2.0,Images/TMTstop-control_1_11linestimulus4.png,Images/TMTstop-control_1_11greenlinestimulus4.png,Images/TMTstop-control_1_11redlinestimulus4.png,TMT_Control,C11,257.0,None,5.0,257.0,1.0,373.3783264160156,373.3783264160156,0.0,,1.0,1.0,0.0,2,-0.00771190004888922,373.3783264160156,373.3783264160156,0.0,,6.0
8,['1'],1.0,Images/TMTstop-control_1_11linestimulus4.png,Images/TMTstop-control_1_11greenlinestimulus5.png,Images/TMTstop-control_1_11redlinestimulus5.png,TMT_Control,C11,258.0,None,5.0,258.0,1.0,373.42840576171875,373.42840576171875,0.0,,1.0,1.0,0.0,3,1,0.03965330001665279,0.21251919999485835,373.42840576171875,373.42840576171875,0.0,,7.0
9,['2'],2.0,Images/TMTstop-control_1_11linestimulus6.png,Images/TMTstop-control_1_11greenlinestimulus6.png,Images/TMTstop-control_1_11redlinestimulus6.png,TMT_Control,C11,259.0,None,5.0,259.0,1.0,373.6891784667969,373.6891784667969,0.0,,1.0,1.0,0.0,2,0.0037302999990060925,373.6891784667969,373.6891784667969,0.0,,8.0
10,['3'],3.0,Images/TMTstop-control_1_11linestimulus7.png,Images/TMTstop-control_1_11greenlinestimulus7.png,Images/TMTstop-control_1_11redlinestimulus7.png,TMT_Control,C11,260.0,None,5.0,260.0,1.0,373.76324462890625,373.76324462890625,0.0,,1.0,1.0,0.0,3,0.015827199968043715,373.76324462890625,373.76324462890625,0.0,,9.0
11,['1'],1.0,Images/TMTstop-control_1_11linestimulus8.png,Images/TMTstop-control_1_11greenlinestimulus8.png,Images/TMTstop-control_1_11redlinestimulus8.png,TMT_Control,C11,261.0,None,5.0,261.0,1.0,373.836669921875,373.836669921875,0.0,,1.0,1.0,0.0,1,0.09835749998455867,373.836669921875,373.836669921875,0.0,,10.0
12,['3'],3.0,Images/TMTstop-control_1_11linestimulus9.png,Images/TMTstop-control_1_11greenlinestimulus9.png,Images/TMTstop-control_1_11redlinestimulus9.png,TMT_Control,C11,262.0,None,5.0,262.0,1.0,373.9905700683594,373.9905700683594,0.0,,1.0,1.0,0.0,2,3,0.02022669999860227,0.08183270000154153,373.9905700683594,373.9905700683594,0.0,,11.0
13,['2'],2.0,Images/TMTstop-control_1_11linestimulus10.png,Images/TMTstop-control_1_11greenlinestimulus10.png,Images/TMTstop-control_1_11redlinestimulus10.png,TMT_Control,C11,263.0,None,5.0,263.0,1.0,374.13055419921875,374.13055419921875,0.0,,1.0,1.0,0.0,1,2,0.1245657000108622,0.1715148000512272,374.13055419921875,374.13055419921875,0.0,,12.0
14,['1'],1.0,Images/TMTstop-control_1_11linestimulus11.png,Images/TMTstop-control_1_11greenlinestimulus11.png,Images/TMTstop-control_1_11redlinestimulus11.png,TMT_Control,C11,264.0,None,5.0,264.0,1.0,374.3641052246094,374.3641052246094,0.0,,1.0,1.0,0.0,3,1,0.020066299999598414,0.17778339999495074,374.3641052246094,374.3641052246094,0.0,,13.0
15,['2'],2.0,Images/TMTstop-control_1_11linestimulus12.png,Images/TMTstop-control_1_11greenlinestimulus12.png,Images/TMTstop-control_1_11redlinestimulus12.png,TMT_Control,C11,265.0,None,5.0,265.0,1.0,374.6383972167969,374.6383972167969,0.0,,1.0,1.0,0.0,2,-0.04866740002762526,374.6383972167969,374.6383972167969,0.0,,14.0
16,['1'],1.0,Images/TMTstop-control_1_11linestimulus13.png,Images/TMTstop-control_1_11greenlinestimulus13.png,Images/TMTstop-control_1_11redlinestimulus13.png,TMT_Control,C11,266.0,None,5.0,266.0,1.0,374.68829345703125,374.68829345703125,0.0,,1.0,1.0,0.0,3,1,-0.011247099959291518,0.16678379999939352,374.68829345703125,374.68829345703125,0.0,,15.0
17,['2'],2.0,Images/TMTstop-control_1_11linestimulus14.png,Images/TMTstop-control_1_11greenlinestimulus14.png,Images/TMTstop-control_1_11redlinestimulus14.png,TMT_Control,C11,267.0,None,5.0,267.0,1.0,374.9115905761719,374.9115905761719,0.0,,1.0,1.0,0.0,2,0.0008715000003576279,374.9115905761719,374.9115905761719,0.0,,16.0
18,['1'],1.0,Images/TMTstop-control_1_11linestimulus15.png,Images/TMTstop-control_1_11greenlinestimulus15.png,Images/TMTstop-control_1_11redlinestimulus15.png,TMT_Control,C11,268.0,None,5.0,268.0,1.0,374.9629821777344,374.9629821777344,0.0,,1.0,1.0,0.0,3,1,2,3,1,0.0439634999493137,0.22114159999182448,0.24507189996074885,0.38154889998259023,0.5361540999729186,374.9629821777344,374.9629821777344,0.0,,17.0
19,['2'],2.0,Images/TMTstop-control_1_11linestimulus16.png,Images/TMTstop-control_1_11greenlinestimulus16.png,Images/TMTstop-control_1_11redlinestimulus16.png,TMT_Control,C11,269.0,None,5.0,269.0,1.0,375.5727233886719,375.5727233886719,0.0,,1.0,1.0,0.0,2,0.0020637999987229705,375.5727233886719,375.5727233886719,0.0,,18.0
20,['1'],1.0,Images/TMTstop-control_1_11linestimulus17.png,Images/TMTstop-control_1_11greenlinestimulus17.png,Images/TMTstop-control_1_11redlinestimulus17.png,TMT_Control,C11,270.0,None,5.0,270.0,1.0,375.66015625,375.66015625,0.0,,1.0,1.0,0.0,3,1,0.0014884999836795032,0.1656391000142321,375.66015625,375.66015625,0.0,,19.0
21,['2'],2.0,Images/TMTstop-control_1_11linestimulus18.png,Images/TMTstop-control_1_11greenlinestimulus18.png,Images/TMTstop-control_1_11redlinestimulus18.png,TMT_Control,C11,271.0,None,5.0,271.0,1.0,375.9171447753906,375.9171447753906,0.0,,1.0,1.0,0.0,2,-0.04829139995854348,375.9171447753906,375.9171447753906,0.0,,20.0
22,['1'],1.0,Images/TMTstop-control_1_11linestimulus19.png,Images/TMTstop-control_1_11greenlinestimulus19.png,Images/TMTstop-control_1_11redlinestimulus19.png,TMT_Control,C11,272.0,None,5.0,272.0,1.0,375.96673583984375,375.96673583984375,0.0,,1.0,1.0,0.0,3,1,0.018122399982530624,0.17117289995076135,375.96673583984375,375.96673583984375,0.0,,21.0
23,['3'],3.0,Images/TMTstop-control_1_11linestimulus20.png,Images/TMTstop-control_1_11greenlinestimulus20.png,Images/TMTstop-control_1_11redlinestimulus20.png,TMT_Control,C11,273.0,None,5.0,273.0,1.0,376.191162109375,376.191162109375,0.0,,1.0,1.0,0.0,2,3,0.055071900016628206,0.1399626000202261,376.191162109375,376.191162109375,0.0,,22.0
24,['1'],1.0,Images/TMTstop-control_1_11linestimulus21.png,Images/TMTstop-control_1_11greenlinestimulus21.png,Images/TMTstop-control_1_11redlinestimulus21.png,TMT_Control,C11,274.0,None,5.0,274.0,1.0,376.4176940917969,376.4176940917969,0.0,,1.0,1.0,0.0,1,0.10027589998207986,376.4176940917969,376.4176940917969,0.0,,23.0
25,['2'],2.0,Images/TMTstop-control_1_11linestimulus22.png,Images/TMTstop-control_1_11greenlinestimulus22.png,Images/TMTstop-control_1_11redlinestimulus22.png,TMT_Control,C11,275.0,None,5.0,275.0,1.0,376.5674133300781,376.5674133300781,0.0,,1.0,1.0,0.0,2,0.01569159998325631,376.5674133300781,376.5674133300781,0.0,,24.0
None,None,None,Images/TMTstop-control_1_11linestimulus23.png,Images/TMTstop-control_1_11greenlinestimulus23.png,Images/TMTstop-control_1_11redlinestimulus23.png,TMT_Control,C11,Feedback_last,None,5.0,Feedback_last,1.0,376.63458251953125,376.63458251953125,0.0,,0.0,0.0,0.0,3,0.051093899994157255,376.63458251953125,376.63458251953125,0.0,,25.0

extraInfo
participant,
session,001
date,2022_Dec_20_1655
expName,TMT_fmri
psychopyVersion,2021.2.3
frameRate,59.88583364190807
﻿NumberLetter,corrAns,Correct,StimFile,Correct_StimFile,False_StimFile,Version,Paper,TrialNumber_Version,Round,Block,TrialNumber_total,n,Stim.started_mean,Stim.started_raw,Stim.started_std,Stim.stopped_raw,key_resp_2.corr_mean,key_resp_2.corr_raw,key_resp_2.corr_std,key_resp_2.keys_raw,key_resp_2.rt_raw,key_resp_2.started_mean,key_resp_2.started_raw,key_resp_2.started_std,key_resp_2.stopped_raw,order
1,['3'],3.0,Images/TMTstop-control_1_12.png,Images/TMTstop-control_1_12.png,Images/TMTstop-control_1_12.png,TMT_Control,C12,276.0,None,5.0,276.0,1.0,381.0696716308594,381.0696716308594,0.0,,1.0,1.0,0.0,1,2,3,0.7085071000037715,0.8312366000027396,0.8842315999791026,381.0696716308594,381.0696716308594,0.0,,0.0
2,['2'],2.0,Images/TMTstop-control_1_12.png,Images/TMTstop-control_1_12firstgreen.png,Images/TMTstop-control_1_12firstred.png,TMT_Control,C12,277.0,None,5.0,277.0,1.0,382.01495361328125,382.01495361328125,0.0,,1.0,1.0,0.0,1,2,0.1271394999930635,0.19620830001076683,382.01495361328125,382.01495361328125,0.0,,1.0
3,['3'],3.0,Images/TMTstop-control_1_12linestimulus0.png,Images/TMTstop-control_1_12greenlinestimulus0.png,Images/TMTstop-control_1_12redlinestimulus0.png,TMT_Control,C12,278.0,None,5.0,278.0,1.0,382.30706787109375,382.30706787109375,0.0,,1.0,1.0,0.0,3,-0.016925100004300475,382.30706787109375,382.30706787109375,0.0,,2.0
4,['2'],2.0,Images/TMTstop-control_1_12linestimulus1.png,Images/TMTstop-control_1_12greenlinestimulus1.png,Images/TMTstop-control_1_12redlinestimulus1.png,TMT_Control,C12,279.0,None,5.0,279.0,1.0,382.3608703613281,382.3608703613281,0.0,,1.0,1.0,0.0,1,2,0.1762936000013724,0.22599479998461902,382.3608703613281,382.3608703613281,0.0,,3.0
5,['3'],3.0,Images/TMTstop-control_1_12linestimulus2.png,Images/TMTstop-control_1_12greenlinestimulus2.png,Images/TMTstop-control_1_12redlinestimulus2.png,TMT_Control,C12,280.0,None,5.0,280.0,1.0,382.6523132324219,382.6523132324219,0.0,,1.0,1.0,0.0,3,0.025580200017429888,382.6523132324219,382.6523132324219,0.0,,4.0
6,['2'],2.0,Images/TMTstop-control_1_12linestimulus3.png,Images/TMTstop-control_1_12greenlinestimulus3.png,Images/TMTstop-control_1_12redlinestimulus3.png,TMT_Control,C12,281.0,None,5.0,281.0,1.0,382.7356872558594,382.7356872558594,0.0,,1.0,1.0,0.0,1,2,0.1363274000468664,0.16342550003901124,382.7356872558594,382.7356872558594,0.0,,5.0
7,['1'],1.0,Images/TMTstop-control_1_12linestimulus4.png,Images/TMTstop-control_1_12greenlinestimulus4.png,Images/TMTstop-control_1_12redlinestimulus4.png,TMT_Control,C12,282.0,None,5.0,282.0,1.0,382.97637939453125,382.97637939453125,0.0,,1.0,1.0,0.0,3,1,0.034621500002685934,0.20870710001327097,382.97637939453125,382.97637939453125,0.0,,6.0
8,['3'],3.0,Images/TMTstop-control_1_12linestimulus4.png,Images/TMTstop-control_1_12greenlinestimulus5.png,Images/TMTstop-control_1_12redlinestimulus5.png,TMT_Control,C12,283.0,None,5.0,283.0,1.0,383.2458801269531,383.2458801269531,0.0,,1.0,1.0,0.0,2,3,0.0028070000116713345,0.10026989999460056,383.2458801269531,383.2458801269531,0.0,,7.0
9,['1'],1.0,Images/TMTstop-control_1_12linestimulus6.png,Images/TMTstop-control_1_12greenlinestimulus6.png,Images/TMTstop-control_1_12redlinestimulus6.png,TMT_Control,C12,284.0,None,5.0,284.0,1.0,383.437255859375,383.437255859375,0.0,,1.0,1.0,0.0,1,0.06696229998487979,383.437255859375,383.437255859375,0.0,,8.0
10,['2'],2.0,Images/TMTstop-control_1_12linestimulus7.png,Images/TMTstop-control_1_12greenlinestimulus7.png,Images/TMTstop-control_1_12redlinestimulus7.png,TMT_Control,C12,285.0,None,5.0,285.0,1.0,383.5540466308594,383.5540466308594,0.0,,1.0,1.0,0.0,2,0.012001299997791648,383.5540466308594,383.5540466308594,0.0,,9.0
11,['3'],3.0,Images/TMTstop-control_1_12linestimulus8.png,Images/TMTstop-control_1_12greenlinestimulus8.png,Images/TMTstop-control_1_12redlinestimulus8.png,TMT_Control,C12,286.0,None,5.0,286.0,1.0,383.637451171875,383.637451171875,0.0,,1.0,1.0,0.0,3,0.02831789996707812,383.637451171875,383.637451171875,0.0,,10.0
12,['1'],1.0,Images/TMTstop-control_1_12linestimulus9.png,Images/TMTstop-control_1_12greenlinestimulus9.png,Images/TMTstop-control_1_12redlinestimulus9.png,TMT_Control,C12,287.0,None,5.0,287.0,1.0,383.7376403808594,383.7376403808594,0.0,,1.0,1.0,0.0,1,0.07617909996770322,383.7376403808594,383.7376403808594,0.0,,11.0
13,['2'],2.0,Images/TMTstop-control_1_12linestimulus10.png,Images/TMTstop-control_1_12greenlinestimulus10.png,Images/TMTstop-control_1_12redlinestimulus10.png,TMT_Control,C12,288.0,None,5.0,288.0,1.0,383.8744812011719,383.8744812011719,0.0,,1.0,1.0,0.0,2,-0.00985849997960031,383.8744812011719,383.8744812011719,0.0,,12.0
14,['1'],1.0,Images/TMTstop-control_1_12linestimulus11.png,Images/TMTstop-control_1_12greenlinestimulus11.png,Images/TMTstop-control_1_12redlinestimulus11.png,TMT_Control,C12,289.0,None,5.0,289.0,1.0,383.93212890625,383.93212890625,0.0,,1.0,1.0,0.0,3,1,0.04218009999021888,0.19692139996914193,383.93212890625,383.93212890625,0.0,,13.0
15,['2'],2.0,Images/TMTstop-control_1_12linestimulus12.png,Images/TMTstop-control_1_12greenlinestimulus12.png,Images/TMTstop-control_1_12redlinestimulus12.png,TMT_Control,C12,290.0,None,5.0,290.0,1.0,384.18212890625,384.18212890625,0.0,,1.0,1.0,0.0,2,0.015041600039694458,384.18212890625,384.18212890625,0.0,,14.0
16,['3'],3.0,Images/TMTstop-control_1_12linestimulus13.png,Images/TMTstop-control_1_12greenlinestimulus13.png,Images/TMTstop-control_1_12redlinestimulus13.png,TMT_Control,C12,291.0,None,5.0,291.0,1.0,384.25506591796875,384.25506591796875,0.0,,1.0,1.0,0.0,3,0.011696200002916157,384.25506591796875,384.25506591796875,0.0,,15.0
17,['1'],1.0,Images/TMTstop-control_1_12linestimulus14.png,Images/TMTstop-control_1_12greenlinestimulus14.png,Images/TMTstop-control_1_12redlinestimulus14.png,TMT_Control,C12,292.0,None,5.0,292.0,1.0,384.32696533203125,384.32696533203125,0.0,,1.0,1.0,0.0,1,0.11087710002902895,384.32696533203125,384.32696533203125,0.0,,16.0
18,['2'],2.0,Images/TMTstop-control_1_12linestimulus15.png,Images/TMTstop-control_1_12greenlinestimulus15.png,Images/TMTstop-control_1_12redlinestimulus15.png,TMT_Control,C12,293.0,None,5.0,293.0,1.0,384.4974670410156,384.4974670410156,0.0,,1.0,1.0,0.0,2,-0.02151770005002618,384.4974670410156,384.4974670410156,0.0,,17.0
19,['3'],3.0,Images/TMTstop-control_1_12linestimulus16.png,Images/TMTstop-control_1_12greenlinestimulus16.png,Images/TMTstop-control_1_12redlinestimulus16.png,TMT_Control,C12,294.0,None,5.0,294.0,1.0,384.55157470703125,384.55157470703125,0.0,,1.0,1.0,0.0,3,0.029307099990546703,384.55157470703125,384.55157470703125,0.0,,18.0
20,['1'],1.0,Images/TMTstop-control_1_12linestimulus17.png,Images/TMTstop-control_1_12greenlinestimulus17.png,Images/TMTstop-control_1_12redlinestimulus17.png,TMT_Control,C12,295.0,None,5.0,295.0,1.0,384.6348876953125,384.6348876953125,0.0,,1.0,1.0,0.0,1,0.11264480004319921,384.6348876953125,384.6348876953125,0.0,,19.0
21,['2'],2.0,Images/TMTstop-control_1_12linestimulus18.png,Images/TMTstop-control_1_12greenlinestimulus18.png,Images/TMTstop-control_1_12redlinestimulus18.png,TMT_Control,C12,296.0,None,5.0,296.0,1.0,384.8012390136719,384.8012390136719,0.0,,1.0,1.0,0.0,2,-0.022532499977387488,384.8012390136719,384.8012390136719,0.0,,20.0
22,['1'],1.0,Images/TMTstop-control_1_12linestimulus19.png,Images/TMTstop-control_1_12greenlinestimulus19.png,Images/TMTstop-control_1_12redlinestimulus19.png,TMT_Control,C12,297.0,None,5.0,297.0,1.0,384.85626220703125,384.85626220703125,0.0,,1.0,1.0,0.0,3,1,0.0448954000021331,0.1955621000379324,384.85626220703125,384.85626220703125,0.0,,21.0
23,['2'],2.0,Images/TMTstop-control_1_12linestimulus20.png,Images/TMTstop-control_1_12greenlinestimulus20.png,Images/TMTstop-control_1_12redlinestimulus20.png,TMT_Control,C12,298.0,None,5.0,298.0,1.0,385.1207275390625,385.1207275390625,0.0,,1.0,1.0,0.0,2,-0.015246199967805296,385.1207275390625,385.1207275390625,0.0,,22.0
24,['3'],3.0,Images/TMTstop-control_1_12linestimulus21.png,Images/TMTstop-control_1_12greenlinestimulus21.png,Images/TMTstop-control_1_12redlinestimulus21.png,TMT_Control,C12,299.0,None,5.0,299.0,1.0,385.1727600097656,385.1727600097656,0.0,,1.0,1.0,0.0,3,0.04590289999032393,385.1727600097656,385.1727600097656,0.0,,23.0
25,['2'],2.0,Images/TMTstop-control_1_12linestimulus22.png,Images/TMTstop-control_1_12greenlinestimulus22.png,Images/TMTstop-control_1_12redlinestimulus22.png,TMT_Control,C12,300.0,None,5.0,300.0,1.0,385.27288818359375,385.27288818359375,0.0,,1.0,1.0,0.0,1,2,0.08414320001611486,0.12112409999826923,385.27288818359375,385.27288818359375,0.0,,24.0
None,None,None,Images/TMTstop-control_1_12linestimulus23.png,Images/TMTstop-control_1_12greenlinestimulus23.png,Images/TMTstop-control_1_12redlinestimulus23.png,TMT_Control,C12,Feedback_last,None,5.0,Feedback_last,1.0,385.4564514160156,385.4564514160156,0.0,,1.0,1.0,0.0,,'--',385.4564514160156,385.4564514160156,0.0,,25.0

extraInfo
participant,
session,001
date,2022_Dec_20_1655
expName,TMT_fmri
psychopyVersion,2021.2.3
frameRate,59.88583364190807
