Block_file,Condition_rows,NumberLetter,corrAns,Correct,StimFile,Correct_StimFile,False_StimFile,Version,Paper,TrialNumber_Version,Round,Block,Blocks_TMTControl.thisRepN,Blocks_TMTControl.thisTrialN,Blocks_TMTControl.thisN,Blocks_TMTControl.thisIndex,trials_baseline1.thisRepN,trials_baseline1.thisTrialN,trials_baseline1.thisN,trials_baseline1.thisIndex,Blocks_TMTA.thisRepN,Blocks_TMTA.thisTrialN,Blocks_TMTA.thisN,Blocks_TMTA.thisIndex,trials_TMTA.thisRepN,trials_TMTA.thisTrialN,trials_TMTA.thisN,trials_TMTA.thisIndex,Blocks_baseline2.thisRepN,Blocks_baseline2.thisTrialN,Blocks_baseline2.thisN,Blocks_baseline2.thisIndex,trials_baseline2.thisRepN,trials_baseline2.thisTrialN,trials_baseline2.thisN,trials_baseline2.thisIndex,Blocks_TMTB.thisRepN,Blocks_TMTB.thisTrialN,Blocks_TMTB.thisN,Blocks_TMTB.thisIndex,trials_TMTB.thisRepN,trials_TMTB.thisTrialN,trials_TMTB.thisN,trials_TMTB.thisIndex,key_resp_7.keys,key_resp_7.rt,key_resp_7.started,key_resp_7.stopped,polygon_2.started,polygon_2.stopped,Attempts,First_attempt,ResponseClock,Stim_2.started,Stim_2.stopped,key_resp_8.keys,key_resp_8.corr,key_resp_8.rt,key_resp_8.started,key_resp_8.stopped,Stim.started,Stim.stopped,key_resp_2.keys,key_resp_2.corr,key_resp_2.rt,key_resp_2.started,key_resp_2.stopped,participant,session,date,expName,psychopyVersion,frameRate,
,,,,,,,,,,,,,,,,,,,,,,,,,,,,,,,,,,,,,,,,,,,,,s,0.5620123999979114,9.01423960000102,None,,,,,,,,,,,,,,,,,,,,,001,2022_Nov_17_1338,TMT_fmri,2021.2.3,143.87661141982346,
TMTstop-Control_1_1.xlsx,0:26,1,['2'],2,TMTstop-control_1_1.png,TMTstop-control_1_1.png,TMTstop-control_1_1.png,TMT_Control,1,1,1,1,0,0,0,0,0,0,0,0,,,,,,,,,,,,,,,,,,,,,,,,,,,,,9.01423960000102,None,1,1,11.095538900000975,23.227550700001302,None,['2'],1,[10.945765200005553],23.227550700001302,None,,,,,,,,,001,2022_Nov_17_1338,TMT_fmri,2021.2.3,143.87661141982346,
TMTstop-Control_1_1.xlsx,0:26,2,['1'],1,TMTstop-control_1_1.png,TMTstop-control_1_1firstgreen.png,TMTstop-control_1_1firstred.png,TMT_Control,1,2,None,1,0,0,0,0,0,1,1,1,,,,,,,,,,,,,,,,,,,,,,,,,,,,,,,1,1,16.928643999999622,34.23618290000013,None,['1'],1,[5.772069999999076],34.23618290000013,None,,,,,,,,,001,2022_Nov_17_1338,TMT_fmri,2021.2.3,143.87661141982346,
TMTstop-Control_1_1.xlsx,0:26,3,['3'],3,TMTstop-control_1_1linestimulus0.png,TMTstop-control_1_1greenlinestimulus0.png,TMTstop-control_1_1redlinestimulus0.png,TMT_Control,1,3,None,1,0,0,0,0,0,2,2,2,,,,,,,,,,,,,,,,,,,,,,,,,,,,,,,1,1,21.262546800004202,40.062158700005966,None,['3'],1,[4.281925399998727],40.062158700005966,None,,,,,,,,,001,2022_Nov_17_1338,TMT_fmri,2021.2.3,143.87661141982346,
TMTstop-Control_1_1.xlsx,0:26,4,['1'],1,TMTstop-control_1_1linestimulus1.png,TMTstop-control_1_1greenlinestimulus1.png,TMTstop-control_1_1redlinestimulus1.png,TMT_Control,1,4,None,1,0,0,0,0,0,3,3,3,,,,,,,,,,,,,,,,,,,,,,,,,,,,,,,1,1,22.745405000001483,44.383452100002614,None,['1'],1,[1.4439873000010266],44.383452100002614,None,,,,,,,,,001,2022_Nov_17_1338,TMT_fmri,2021.2.3,143.87661141982346,
TMTstop-Control_1_1.xlsx,0:26,5,['3'],3,TMTstop-control_1_1linestimulus2.png,TMTstop-control_1_1greenlinestimulus2.png,TMTstop-control_1_1redlinestimulus2.png,TMT_Control,1,5,None,1,0,0,0,0,0,4,4,4,,,,,,,,,,,,,,,,,,,,,,,,,,,,,,,1,1,23.72058459999971,45.86769470000581,None,['3'],1,[0.9350817000013194],45.86769470000581,None,,,,,,,,,001,2022_Nov_17_1338,TMT_fmri,2021.2.3,143.87661141982346,
TMTstop-Control_1_1.xlsx,0:26,6,['1'],1,TMTstop-control_1_1linestimulus3.png,TMTstop-control_1_1greenlinestimulus3.png,TMTstop-control_1_1redlinestimulus3.png,TMT_Control,1,6,None,1,0,0,0,0,0,5,5,5,,,,,,,,,,,,,,,,,,,,,,,,,,,,,,,1,1,24.3185225000052,46.840146900001855,None,['1'],1,[0.5586933000013232],46.840146900001855,None,,,,,,,,,001,2022_Nov_17_1338,TMT_fmri,2021.2.3,143.87661141982346,
TMTstop-Control_1_1.xlsx,0:26,7,['2'],2,TMTstop-control_1_1linestimulus4.png,TMTstop-control_1_1greenlinestimulus4.png,TMTstop-control_1_1redlinestimulus4.png,TMT_Control,1,7,None,1,0,0,0,0,0,6,6,6,,,,,,,,,,,,,,,,,,,,,,,,,,,,,,,16,0,37.243564700002025,47.44180480000068,None,"['1', '1', '1', '1', '1', '1', '3', '3', '3', '3', '3', '3', '3', '3', '3', '2']",1,"[4.061223800003063, 5.271026599999459, 5.762548600003356, 5.989970700000413, 6.192650800003321, 6.3921413000061875, 7.4420383000033326, 8.487387799999851, 9.05202200000349, 9.284116700000595, 9.531881200004136, 10.629738300005556, 11.095756400005484, 11.3329692000043, 11.559225000004517, 12.869476600004418]",47.44180480000068,None,,,,,,,,,001,2022_Nov_17_1338,TMT_fmri,2021.2.3,143.87661141982346,
TMTstop-Control_1_1.xlsx,0:26,8,['1'],1,TMTstop-control_1_1linestimulus4.png,TMTstop-control_1_1greenlinestimulus5.png,TMTstop-control_1_1redlinestimulus5.png,TMT_Control,1,8,None,1,0,0,0,0,0,7,7,7,,,,,,,,,,,,,,,,,,,,,,,,,,,,,,,1,1,37.741990300004545,60.36354460000439,None,['1'],1,[0.4605855999980122],60.36354460000439,None,,,,,,,,,001,2022_Nov_17_1338,TMT_fmri,2021.2.3,143.87661141982346,
TMTstop-Control_1_1.xlsx,0:26,9,['3'],3,TMTstop-control_1_1linestimulus6.png,TMTstop-control_1_1greenlinestimulus6.png,TMTstop-control_1_1redlinestimulus6.png,TMT_Control,1,9,None,1,0,0,0,0,0,8,8,8,,,,,,,,,,,,,,,,,,,,,,,,,,,,,,,1,1,37.96619769999961,60.86018460000196,None,['3'],1,[0.18752220000169473],60.86018460000196,None,,,,,,,,,001,2022_Nov_17_1338,TMT_fmri,2021.2.3,143.87661141982346,
TMTstop-Control_1_1.xlsx,0:26,10,['2'],2,TMTstop-control_1_1linestimulus7.png,TMTstop-control_1_1greenlinestimulus7.png,TMTstop-control_1_1redlinestimulus7.png,TMT_Control,1,10,None,1,0,0,0,0,0,9,9,9,,,,,,,,,,,,,,,,,,,,,,,,,,,,,,,3,0,38.366603100002976,61.08576630000607,None,"['1', '3', '2']",1,"[0.14378570000553736, 0.31157660000462784, 0.33297370000218507]",61.08576630000607,None,,,,,,,,,001,2022_Nov_17_1338,TMT_fmri,2021.2.3,143.87661141982346,
TMTstop-Control_1_1.xlsx,0:26,11,['1'],1,TMTstop-control_1_1linestimulus8.png,TMTstop-control_1_1greenlinestimulus8.png,TMTstop-control_1_1redlinestimulus8.png,TMT_Control,1,11,None,1,0,0,0,0,0,10,10,10,,,,,,,,,,,,,,,,,,,,,,,,,,,,,,,1,1,38.46263960000215,61.48662940000213,None,['1'],1,[0.05279330000485061],61.48662940000213,None,,,,,,,,,001,2022_Nov_17_1338,TMT_fmri,2021.2.3,143.87661141982346,
TMTstop-Control_1_1.xlsx,0:26,12,['2'],2,TMTstop-control_1_1linestimulus9.png,TMTstop-control_1_1greenlinestimulus9.png,TMTstop-control_1_1redlinestimulus9.png,TMT_Control,1,12,None,1,0,0,0,0,0,11,11,11,,,,,,,,,,,,,,,,,,,,,,,,,,,,,,,2,0,38.603403300003265,61.585097300005145,None,"['3', '2']",1,"[0.06345309999596793, 0.08721520000108285]",61.585097300005145,None,,,,,,,,,001,2022_Nov_17_1338,TMT_fmri,2021.2.3,143.87661141982346,
TMTstop-Control_1_1.xlsx,0:26,13,['3'],3,TMTstop-control_1_1linestimulus10.png,TMTstop-control_1_1greenlinestimulus10.png,TMTstop-control_1_1redlinestimulus10.png,TMT_Control,1,13,None,1,0,0,0,0,0,12,12,12,,,,,,,,,,,,,,,,,,,,,,,,,,,,,,,2,0,38.8006286000018,61.721313500005635,None,"['1', '3']",1,"[0.049762700000428595, 0.15634729999874253]",61.721313500005635,None,,,,,,,,,001,2022_Nov_17_1338,TMT_fmri,2021.2.3,143.87661141982346,
TMTstop-Control_1_1.xlsx,0:26,14,['2'],2,TMTstop-control_1_1linestimulus11.png,TMTstop-control_1_1greenlinestimulus11.png,TMTstop-control_1_1redlinestimulus11.png,TMT_Control,1,14,None,1,0,0,0,0,0,13,13,13,,,,,,,,,,,,,,,,,,,,,,,,,,,,,,,1,1,38.84166360000381,61.922149900005024,None,['2'],1,[-0.0324763000025996],61.922149900005024,None,,,,,,,,,001,2022_Nov_17_1338,TMT_fmri,2021.2.3,143.87661141982346,
TMTstop-Control_1_1.xlsx,0:26,15,['3'],3,TMTstop-control_1_1linestimulus12.png,TMTstop-control_1_1greenlinestimulus12.png,TMTstop-control_1_1redlinestimulus12.png,TMT_Control,1,15,None,1,0,0,0,0,0,14,14,14,,,,,,,,,,,,,,,,,,,,,,,,,,,,,,,2,0,39.032979300005536,61.96321810000518,None,"['1', '3']",1,"[0.03888569999980973, 0.13988209999661194]",61.96321810000518,None,,,,,,,,,001,2022_Nov_17_1338,TMT_fmri,2021.2.3,143.87661141982346,
TMTstop-Control_1_1.xlsx,0:26,16,['2'],2,TMTstop-control_1_1linestimulus13.png,TMTstop-control_1_1greenlinestimulus13.png,TMTstop-control_1_1redlinestimulus13.png,TMT_Control,1,16,None,1,0,0,0,0,0,15,15,15,,,,,,,,,,,,,,,,,,,,,,,,,,,,,,,1,1,39.07188590000442,62.153030900000886,None,['2'],1,[-0.01513390000036452],62.153030900000886,None,,,,,,,,,001,2022_Nov_17_1338,TMT_fmri,2021.2.3,143.87661141982346,
TMTstop-Control_1_1.xlsx,0:26,17,['3'],3,TMTstop-control_1_1linestimulus14.png,TMTstop-control_1_1greenlinestimulus14.png,TMTstop-control_1_1redlinestimulus14.png,TMT_Control,1,17,None,1,0,0,0,0,0,16,16,16,,,,,,,,,,,,,,,,,,,,,,,,,,,,,,,2,0,39.268400500004645,62.19486710000638,None,"['1', '3']",1,"[0.03764180000143824, 0.15507139999681385]",62.19486710000638,None,,,,,,,,,001,2022_Nov_17_1338,TMT_fmri,2021.2.3,143.87661141982346,
TMTstop-Control_1_1.xlsx,0:26,18,['2'],2,TMTstop-control_1_1linestimulus15.png,TMTstop-control_1_1greenlinestimulus15.png,TMTstop-control_1_1redlinestimulus15.png,TMT_Control,1,18,None,1,0,0,0,0,0,17,17,17,,,,,,,,,,,,,,,,,,,,,,,,,,,,,,,1,1,39.30663099999947,62.38724780000484,None,['2'],1,[-0.013346700005058665],62.38724780000484,None,,,,,,,,,001,2022_Nov_17_1338,TMT_fmri,2021.2.3,143.87661141982346,
TMTstop-Control_1_1.xlsx,0:26,19,['1'],1,TMTstop-control_1_1linestimulus16.png,TMTstop-control_1_1greenlinestimulus16.png,TMTstop-control_1_1redlinestimulus16.png,TMT_Control,1,19,None,1,0,0,0,0,0,18,18,18,,,,,,,,,,,,,,,,,,,,,,,,,,,,,,,1,1,39.414444699999876,62.4258359000014,None,['1'],1,[0.0659793999948306],62.4258359000014,None,,,,,,,,,001,2022_Nov_17_1338,TMT_fmri,2021.2.3,143.87661141982346,
TMTstop-Control_1_1.xlsx,0:26,20,['3'],3,TMTstop-control_1_1linestimulus17.png,TMTstop-control_1_1greenlinestimulus17.png,TMTstop-control_1_1redlinestimulus17.png,TMT_Control,1,20,None,1,0,0,0,0,0,19,19,19,,,,,,,,,,,,,,,,,,,,,,,,,,,,,,,1,1,39.53202109999984,62.54311410000082,None,['3'],1,[0.06976199999917299],62.54311410000082,None,,,,,,,,,001,2022_Nov_17_1338,TMT_fmri,2021.2.3,143.87661141982346,
TMTstop-Control_1_1.xlsx,0:26,21,['1'],1,TMTstop-control_1_1linestimulus18.png,TMTstop-control_1_1greenlinestimulus18.png,TMTstop-control_1_1redlinestimulus18.png,TMT_Control,1,21,None,1,0,0,0,0,0,20,20,20,,,,,,,,,,,,,,,,,,,,,,,,,,,,,,,2,0,39.69906869999977,62.65410160000465,None,"['2', '1']",1,"[0.011195999999472406, 0.10491109999566106]",62.65410160000465,None,,,,,,,,,001,2022_Nov_17_1338,TMT_fmri,2021.2.3,143.87661141982346,
TMTstop-Control_1_1.xlsx,0:26,22,['2'],2,TMTstop-control_1_1linestimulus19.png,TMTstop-control_1_1greenlinestimulus19.png,TMTstop-control_1_1redlinestimulus19.png,TMT_Control,1,22,None,1,0,0,0,0,0,21,21,21,,,,,,,,,,,,,,,,,,,,,,,,,,,,,,,2,0,39.832121200000984,62.82100619999983,None,"['3', '2']",1,"[0.052269300002080854, 0.07368020000285469]",62.82100619999983,None,,,,,,,,,001,2022_Nov_17_1338,TMT_fmri,2021.2.3,143.87661141982346,
TMTstop-Control_1_1.xlsx,0:26,23,['3'],3,TMTstop-control_1_1linestimulus20.png,TMTstop-control_1_1greenlinestimulus20.png,TMTstop-control_1_1redlinestimulus20.png,TMT_Control,1,23,None,1,0,0,0,0,0,22,22,22,,,,,,,,,,,,,,,,,,,,,,,,,,,,,,,2,0,40.059043200002634,62.951175500005775,None,"['1', '3']",1,"[0.06803750000108266, 0.18010929999582004]",62.951175500005775,None,,,,,,,,,001,2022_Nov_17_1338,TMT_fmri,2021.2.3,143.87661141982346,
TMTstop-Control_1_1.xlsx,0:26,24,['2'],2,TMTstop-control_1_1linestimulus21.png,TMTstop-control_1_1greenlinestimulus21.png,TMTstop-control_1_1redlinestimulus21.png,TMT_Control,1,24,None,1,0,0,0,0,0,23,23,23,,,,,,,,,,,,,,,,,,,,,,,,,,,,,,,1,1,40.100084400000924,63.18067720000545,None,['2'],1,[-0.02092139999876963],63.18067720000545,None,,,,,,,,,001,2022_Nov_17_1338,TMT_fmri,2021.2.3,143.87661141982346,
TMTstop-Control_1_1.xlsx,0:26,25,['1'],1,TMTstop-control_1_1linestimulus22.png,TMTstop-control_1_1greenlinestimulus22.png,TMTstop-control_1_1redlinestimulus22.png,TMT_Control,1,25,None,1,0,0,0,0,0,24,24,24,,,,,,,,,,,,,,,,,,,,,,,,,,,,,,,1,1,40.20104870000068,63.21916179999971,None,['1'],1,[0.05737740000040503],63.21916179999971,None,,,,,,,,,001,2022_Nov_17_1338,TMT_fmri,2021.2.3,143.87661141982346,
TMTstop-Control_1_1.xlsx,0:26,None,None,None,TMTstop-control_1_1linestimulus23.png,TMTstop-control_1_1greenlinestimulus23.png,TMTstop-control_1_1redlinestimulus23.png,TMT_Control,1,Feedback_last,None,1,0,0,0,0,0,25,25,25,,,,,,,,,,,,,,,,,,,,,,,,,,,,,,,3,0,,63.32108960000187,None,"['3', '2', '1']",0,"[0.05808450000040466, 0.10776289999921573, 0.21396459999959916]",63.32108960000187,None,,,,,,,,,001,2022_Nov_17_1338,TMT_fmri,2021.2.3,143.87661141982346,
TMTstop-Control_1_2.xlsx,26:52,1,['2'],2,TMTstop-control_1_2.png,TMTstop-control_1_2.png,TMTstop-control_1_2.png,TMT_Control,2,26,None,1,0,1,1,1,0,0,0,0,,,,,,,,,,,,,,,,,,,,,,,,,,,,,,,2,0,45.54398700000456,67.50127749999956,None,"['3', '2']",1,"[1.0920857000019168, 1.1170748000004096]",67.50127749999956,None,,,,,,,,,001,2022_Nov_17_1338,TMT_fmri,2021.2.3,143.87661141982346,
TMTstop-Control_1_2.xlsx,26:52,2,['3'],3,TMTstop-control_1_2.png,TMTstop-control_1_2firstgreen.png,TMTstop-control_1_2firstred.png,TMT_Control,2,27,None,1,0,1,1,1,0,1,1,1,,,,,,,,,,,,,,,,,,,,,,,,,,,,,,,2,0,45.805039900005795,68.66572140000062,None,"['1', '3']",1,"[0.10188339999876916, 0.21126749999530148]",68.66572140000062,None,,,,,,,,,001,2022_Nov_17_1338,TMT_fmri,2021.2.3,143.87661141982346,
TMTstop-Control_1_2.xlsx,26:52,3,['2'],2,TMTstop-control_1_2linestimulus0.png,TMTstop-control_1_2greenlinestimulus0.png,TMTstop-control_1_2redlinestimulus0.png,TMT_Control,2,28,None,1,0,1,1,1,0,2,2,2,,,,,,,,,,,,,,,,,,,,,,,,,,,,,,,1,1,45.84225520000473,68.92301350000344,None,['2'],1,[-0.00909230000252137],68.92301350000344,None,,,,,,,,,001,2022_Nov_17_1338,TMT_fmri,2021.2.3,143.87661141982346,
TMTstop-Control_1_2.xlsx,26:52,4,['3'],3,TMTstop-control_1_2linestimulus1.png,TMTstop-control_1_2greenlinestimulus1.png,TMTstop-control_1_2redlinestimulus1.png,TMT_Control,2,29,None,1,0,1,1,1,0,3,3,3,,,,,,,,,,,,,,,,,,,,,,,,,,,,,,,2,0,46.047859700003755,68.96121050000511,None,"['1', '3']",1,"[0.0504715000060969, 0.15951550000318093]",68.96121050000511,None,,,,,,,,,001,2022_Nov_17_1338,TMT_fmri,2021.2.3,143.87661141982346,
TMTstop-Control_1_2.xlsx,26:52,5,['2'],2,TMTstop-control_1_2linestimulus2.png,TMTstop-control_1_2greenlinestimulus2.png,TMTstop-control_1_2redlinestimulus2.png,TMT_Control,2,30,None,1,0,1,1,1,0,4,4,4,,,,,,,,,,,,,,,,,,,,,,,,,,,,,,,1,1,46.08797179999965,69.16876110000157,None,['2'],1,[-0.03526599999895552],69.16876110000157,None,,,,,,,,,001,2022_Nov_17_1338,TMT_fmri,2021.2.3,143.87661141982346,
TMTstop-Control_1_2.xlsx,26:52,6,['3'],3,TMTstop-control_1_2linestimulus3.png,TMTstop-control_1_2greenlinestimulus3.png,TMTstop-control_1_2redlinestimulus3.png,TMT_Control,2,31,None,1,0,1,1,1,0,5,5,5,,,,,,,,,,,,,,,,,,,,,,,,,,,,,,,2,0,46.311092000003555,69.20882400000119,None,"['1', '3']",1,"[0.041682099996251054, 0.15595059999759542]",69.20882400000119,None,,,,,,,,,001,2022_Nov_17_1338,TMT_fmri,2021.2.3,143.87661141982346,
TMTstop-Control_1_2.xlsx,26:52,7,['2'],2,TMTstop-control_1_2linestimulus4.png,TMTstop-control_1_2greenlinestimulus4.png,TMTstop-control_1_2redlinestimulus4.png,TMT_Control,2,32,None,1,0,1,1,1,0,6,6,6,,,,,,,,,,,,,,,,,,,,,,,,,,,,,,,1,1,46.35096370000247,69.43187810000381,None,['2'],1,[-0.017893399999593385],69.43187810000381,None,,,,,,,,,001,2022_Nov_17_1338,TMT_fmri,2021.2.3,143.87661141982346,
TMTstop-Control_1_2.xlsx,26:52,8,['1'],1,TMTstop-control_1_2linestimulus4.png,TMTstop-control_1_2greenlinestimulus5.png,TMTstop-control_1_2redlinestimulus5.png,TMT_Control,2,33,None,1,0,1,1,1,0,7,7,7,,,,,,,,,,,,,,,,,,,,,,,,,,,,,,,1,1,46.410966800001916,69.4706409000064,None,['1'],1,[0.016344499999831896],69.4706409000064,None,,,,,,,,,001,2022_Nov_17_1338,TMT_fmri,2021.2.3,143.87661141982346,
TMTstop-Control_1_2.xlsx,26:52,9,['3'],3,TMTstop-control_1_2linestimulus6.png,TMTstop-control_1_2greenlinestimulus6.png,TMTstop-control_1_2redlinestimulus6.png,TMT_Control,2,34,None,1,0,1,1,1,0,8,8,8,,,,,,,,,,,,,,,,,,,,,,,,,,,,,,,1,1,46.532058400000096,69.53203550000035,None,['3'],1,[0.0806763000000501],69.53203550000035,None,,,,,,,,,001,2022_Nov_17_1338,TMT_fmri,2021.2.3,143.87661141982346,
TMTstop-Control_1_2.xlsx,26:52,10,['2'],2,TMTstop-control_1_2linestimulus7.png,TMTstop-control_1_2greenlinestimulus7.png,TMTstop-control_1_2redlinestimulus7.png,TMT_Control,2,35,None,1,0,1,1,1,0,9,9,9,,,,,,,,,,,,,,,,,,,,,,,,,,,,,,,1,1,46.57040560000314,69.65102270000352,None,['2'],1,[-0.018033400003332645],69.65102270000352,None,,,,,,,,,001,2022_Nov_17_1338,TMT_fmri,2021.2.3,143.87661141982346,
TMTstop-Control_1_2.xlsx,26:52,11,['3'],3,TMTstop-control_1_2linestimulus8.png,TMTstop-control_1_2greenlinestimulus8.png,TMTstop-control_1_2redlinestimulus8.png,TMT_Control,2,36,None,1,0,1,1,1,0,10,10,10,,,,,,,,,,,,,,,,,,,,,,,,,,,,,,,2,0,46.803748400001496,69.68841070000053,None,"['1', '3']",1,"[0.04685969999991357, 0.1664980999994441]",69.68841070000053,None,,,,,,,,,001,2022_Nov_17_1338,TMT_fmri,2021.2.3,143.87661141982346,
TMTstop-Control_1_2.xlsx,26:52,12,['2'],2,TMTstop-control_1_2linestimulus9.png,TMTstop-control_1_2greenlinestimulus9.png,TMTstop-control_1_2redlinestimulus9.png,TMT_Control,2,37,None,1,0,1,1,1,0,11,11,11,,,,,,,,,,,,,,,,,,,,,,,,,,,,,,,1,1,46.84408860000258,69.92474210000364,None,['2'],1,[-0.020231099995726254],69.92474210000364,None,,,,,,,,,001,2022_Nov_17_1338,TMT_fmri,2021.2.3,143.87661141982346,
TMTstop-Control_1_2.xlsx,26:52,13,['3'],3,TMTstop-control_1_2linestimulus10.png,TMTstop-control_1_2greenlinestimulus10.png,TMTstop-control_1_2redlinestimulus10.png,TMT_Control,2,38,None,1,0,1,1,1,0,12,12,12,,,,,,,,,,,,,,,,,,,,,,,,,,,,,,,2,0,47.07184540000162,69.96022220000305,None,"['1', '3']",1,"[0.05080189999716822, 0.17072300000290852]",69.96022220000305,None,,,,,,,,,001,2022_Nov_17_1338,TMT_fmri,2021.2.3,143.87661141982346,
TMTstop-Control_1_2.xlsx,26:52,14,['2'],2,TMTstop-control_1_2linestimulus11.png,TMTstop-control_1_2greenlinestimulus11.png,TMTstop-control_1_2redlinestimulus11.png,TMT_Control,2,39,None,1,0,1,1,1,0,13,13,13,,,,,,,,,,,,,,,,,,,,,,,,,,,,,,,1,1,47.11293730000034,70.19384759999957,None,['2'],1,[-0.02382150000630645],70.19384759999957,None,,,,,,,,,001,2022_Nov_17_1338,TMT_fmri,2021.2.3,143.87661141982346,
TMTstop-Control_1_2.xlsx,26:52,15,['3'],3,TMTstop-control_1_2linestimulus12.png,TMTstop-control_1_2greenlinestimulus12.png,TMTstop-control_1_2redlinestimulus12.png,TMT_Control,2,40,None,1,0,1,1,1,0,14,14,14,,,,,,,,,,,,,,,,,,,,,,,,,,,,,,,12,0,48.11734840000281,70.23375810000289,None,"['1', '3', '2', '1', '3', '2', '1', '3', '2', '1', '2', '3']",1,"[0.02974299999914365, 0.13876210000307765, 0.17119139999704203, 0.27906079999957, 0.39812269999674754, 0.41808019999734825, 0.5451408000008087, 0.6685808999973233, 0.6705996000018786, 0.7911103000005824, 0.9412127000032342, 0.9436494000037783]",70.23375810000289,None,,,,,,,,,001,2022_Nov_17_1338,TMT_fmri,2021.2.3,143.87661141982346,
TMTstop-Control_1_2.xlsx,26:52,16,['1'],1,TMTstop-control_1_2linestimulus13.png,TMTstop-control_1_2greenlinestimulus13.png,TMTstop-control_1_2redlinestimulus13.png,TMT_Control,2,41,None,1,0,1,1,1,0,15,15,15,,,,,,,,,,,,,,,,,,,,,,,,,,,,,,,1,1,48.246473300001526,71.2362404000014,None,['1'],1,[0.08697669999673963],71.2362404000014,None,,,,,,,,,001,2022_Nov_17_1338,TMT_fmri,2021.2.3,143.87661141982346,
TMTstop-Control_1_2.xlsx,26:52,17,['2'],2,TMTstop-control_1_2linestimulus14.png,TMTstop-control_1_2greenlinestimulus14.png,TMTstop-control_1_2redlinestimulus14.png,TMT_Control,2,42,None,1,0,1,1,1,0,16,16,16,,,,,,,,,,,,,,,,,,,,,,,,,,,,,,,2,0,48.40131660000043,71.36769630000344,None,"['3', '2']",1,"[0.11304899999959162, 0.11580929999763612]",71.36769630000344,None,,,,,,,,,001,2022_Nov_17_1338,TMT_fmri,2021.2.3,143.87661141982346,
TMTstop-Control_1_2.xlsx,26:52,18,['1'],1,TMTstop-control_1_2linestimulus15.png,TMTstop-control_1_2greenlinestimulus15.png,TMTstop-control_1_2redlinestimulus15.png,TMT_Control,2,43,None,1,0,1,1,1,0,17,17,17,,,,,,,,,,,,,,,,,,,,,,,,,,,,,,,1,1,48.554861000004166,71.52200040000025,None,['1'],1,[0.11480020000453806],71.52200040000025,None,,,,,,,,,001,2022_Nov_17_1338,TMT_fmri,2021.2.3,143.87661141982346,
TMTstop-Control_1_2.xlsx,26:52,19,['2'],2,TMTstop-control_1_2linestimulus16.png,TMTstop-control_1_2greenlinestimulus16.png,TMTstop-control_1_2redlinestimulus16.png,TMT_Control,2,44,None,1,0,1,1,1,0,18,18,18,,,,,,,,,,,,,,,,,,,,,,,,,,,,,,,2,0,48.74444400000357,71.67583150000428,None,"['3', '2']",1,"[0.07905919999757316, 0.11915079999744194]",71.67583150000428,None,,,,,,,,,001,2022_Nov_17_1338,TMT_fmri,2021.2.3,143.87661141982346,
TMTstop-Control_1_2.xlsx,26:52,20,['3'],3,TMTstop-control_1_2linestimulus17.png,TMTstop-control_1_2greenlinestimulus17.png,TMTstop-control_1_2redlinestimulus17.png,TMT_Control,2,45,None,1,0,1,1,1,0,19,19,19,,,,,,,,,,,,,,,,,,,,,,,,,,,,,,,5,0,49.29200060000585,71.86305440000433,None,"['1', '3', '2', '1', '3']",1,"[0.0662737999955425, 0.18496410000079777, 0.2090648000012152, 0.351163400002406, 0.47879269999975804]",71.86305440000433,None,,,,,,,,,001,2022_Nov_17_1338,TMT_fmri,2021.2.3,143.87661141982346,
TMTstop-Control_1_2.xlsx,26:52,21,['1'],1,TMTstop-control_1_2linestimulus18.png,TMTstop-control_1_2greenlinestimulus18.png,TMTstop-control_1_2redlinestimulus18.png,TMT_Control,2,46,None,1,0,1,1,1,0,20,20,20,,,,,,,,,,,,,,,,,,,,,,,,,,,,,,,2,0,49.440814699999464,72.41168219999963,None,"['2', '1']",1,"[-0.03237739999894984, 0.11079679999966174]",72.41168219999963,None,,,,,,,,,001,2022_Nov_17_1338,TMT_fmri,2021.2.3,143.87661141982346,
TMTstop-Control_1_2.xlsx,26:52,22,['3'],3,TMTstop-control_1_2linestimulus19.png,TMTstop-control_1_2greenlinestimulus19.png,TMTstop-control_1_2redlinestimulus19.png,TMT_Control,2,47,None,1,0,1,1,1,0,21,21,21,,,,,,,,,,,,,,,,,,,,,,,,,,,,,,,1,1,49.56264490000467,72.55957490000583,None,['3'],1,[0.08521050000126706],72.55957490000583,None,,,,,,,,,001,2022_Nov_17_1338,TMT_fmri,2021.2.3,143.87661141982346,
TMTstop-Control_1_2.xlsx,26:52,23,['2'],2,TMTstop-control_1_2linestimulus20.png,TMTstop-control_1_2greenlinestimulus20.png,TMTstop-control_1_2redlinestimulus20.png,TMT_Control,2,48,None,1,0,1,1,1,0,22,22,22,,,,,,,,,,,,,,,,,,,,,,,,,,,,,,,1,1,49.600802799999656,72.68157170000632,None,['2'],1,[-0.009231600000930484],72.68157170000632,None,,,,,,,,,001,2022_Nov_17_1338,TMT_fmri,2021.2.3,143.87661141982346,
TMTstop-Control_1_2.xlsx,26:52,24,['3'],3,TMTstop-control_1_2linestimulus21.png,TMTstop-control_1_2greenlinestimulus21.png,TMTstop-control_1_2redlinestimulus21.png,TMT_Control,2,49,None,1,0,1,1,1,0,23,23,23,,,,,,,,,,,,,,,,,,,,,,,,,,,,,,,2,0,49.978581100003794,72.72192310000537,None,"['1', '3']",1,"[0.12800370000331895, 0.3115797999998904]",72.72192310000537,None,,,,,,,,,001,2022_Nov_17_1338,TMT_fmri,2021.2.3,143.87661141982346,
TMTstop-Control_1_2.xlsx,26:52,25,['1'],1,TMTstop-control_1_2linestimulus22.png,TMTstop-control_1_2greenlinestimulus22.png,TMTstop-control_1_2redlinestimulus22.png,TMT_Control,2,50,None,1,0,1,1,1,0,24,24,24,,,,,,,,,,,,,,,,,,,,,,,,,,,,,,,2,0,50.16776730000129,73.09754539999994,None,"['2', '1']",1,"[-0.021462600001541432, 0.1302995000005467]",73.09754539999994,None,,,,,,,,,001,2022_Nov_17_1338,TMT_fmri,2021.2.3,143.87661141982346,
TMTstop-Control_1_2.xlsx,26:52,None,None,None,TMTstop-control_1_2linestimulus23.png,TMTstop-control_1_2greenlinestimulus23.png,TMTstop-control_1_2redlinestimulus23.png,TMT_Control,2,Feedback_last,None,1,0,1,1,1,0,25,25,25,,,,,,,,,,,,,,,,,,,,,,,,,,,,,,,9,0,,73.28888400000142,None,"['3', '2', '1', '3', '2', '1', '3', '2', '1']",0,"[0.05718549999437528, 0.10297209999407642, 0.2496379000003799, 0.38844199999584816, 0.4397858999946038, 0.5619084999998449, 0.7106849999981932, 0.7415755999973044, 0.8978334999992512]",73.28888400000142,None,,,,,,,,,001,2022_Nov_17_1338,TMT_fmri,2021.2.3,143.87661141982346,
TMTstop-A_1_1.xlsx,0:26,1,['1'],1,TMTstop-A_1_1.png,TMTstop-A_1_1.png,TMTstop-A_1_1.png,TMT_A,1,1,1,2,,,,,,,,,0,0,0,0,0,0,0,0,,,,,,,,,,,,,,,,,,,,,,,1,1,66.95607220000238,,,,,,,,87.45935420000023,None,['1'],1,[2.5774488000024576],87.45935420000023,None,,001,2022_Nov_17_1338,TMT_fmri,2021.2.3,143.87661141982346,
TMTstop-A_1_1.xlsx,0:26,2,['3'],3,TMTstop-A_1_1.png,TMTstop-A_1_1firstgreen.png,TMTstop-A_1_1firstred.png,TMT_A,1,2,None,2,,,,,,,,,0,0,0,0,0,1,1,1,,,,,,,,,,,,,,,,,,,,,,,3,0,73.45545000000129,,,,,,,,90.07495990000461,None,"['2', '1', '3']",1,"[3.077851300004113, 5.288642100000288, 6.452187100003357]",90.07495990000461,None,,001,2022_Nov_17_1338,TMT_fmri,2021.2.3,143.87661141982346,
TMTstop-A_1_1.xlsx,0:26,3,['1'],1,TMTstop-A_1_1linestimulus0.png,TMTstop-A_1_1greenlinestimulus0.png,TMTstop-A_1_1redlinestimulus0.png,TMT_A,1,3,None,2,,,,,,,,,0,0,0,0,0,2,2,2,,,,,,,,,,,,,,,,,,,,,,,2,0,75.64949580000393,,,,,,,,96.5761949000007,None,"['2', '1']",1,"[1.1318138999995426, 2.140393400004541]",96.5761949000007,None,,001,2022_Nov_17_1338,TMT_fmri,2021.2.3,143.87661141982346,
TMTstop-A_1_1.xlsx,0:26,4,['3'],3,TMTstop-A_1_1linestimulus1.png,TMTstop-A_1_1greenlinestimulus1.png,TMTstop-A_1_1redlinestimulus1.png,TMT_A,1,4,None,2,,,,,,,,,0,0,0,0,0,3,3,3,,,,,,,,,,,,,,,,,,,,,,,1,1,77.99566200000118,,,,,,,,98.76950780000334,None,['3'],1,[2.3021556999956374],98.76950780000334,None,,001,2022_Nov_17_1338,TMT_fmri,2021.2.3,143.87661141982346,
TMTstop-A_1_1.xlsx,0:26,5,['1'],1,TMTstop-A_1_1linestimulus2.png,TMTstop-A_1_1greenlinestimulus2.png,TMTstop-A_1_1redlinestimulus2.png,TMT_A,1,5,None,2,,,,,,,,,0,0,0,0,0,4,4,4,,,,,,,,,,,,,,,,,,,,,,,2,0,79.94871590000548,,,,,,,,101.11539800000173,None,"['3', '1']",1,"[0.9986515000055078, 1.9147205000044778]",101.11539800000173,None,,001,2022_Nov_17_1338,TMT_fmri,2021.2.3,143.87661141982346,
TMTstop-A_1_1.xlsx,0:26,6,['3'],3,TMTstop-A_1_1linestimulus3.png,TMTstop-A_1_1greenlinestimulus3.png,TMTstop-A_1_1redlinestimulus3.png,TMT_A,1,6,None,2,,,,,,,,,0,0,0,0,0,5,5,5,,,,,,,,,,,,,,,,,,,,,,,4,0,82.08555190000334,,,,,,,,103.0699437000003,None,"['1', '2', '2', '3']",1,"[0.9307845999937854, 1.3753704999980982, 1.745514499998535, 2.068985199999588]",103.0699437000003,None,,001,2022_Nov_17_1338,TMT_fmri,2021.2.3,143.87661141982346,
TMTstop-A_1_1.xlsx,0:26,7,['1'],1,TMTstop-A_1_1linestimulus4.png,TMTstop-A_1_1greenlinestimulus4.png,TMTstop-A_1_1redlinestimulus4.png,TMT_A,1,7,None,2,,,,,,,,,0,0,0,0,0,6,6,6,,,,,,,,,,,,,,,,,,,,,,,2,0,82.5707962000015,,,,,,,,105.20634989999962,None,"['2', '1']",1,"[0.2889491999958409, 0.42386899999837624]",105.20634989999962,None,,001,2022_Nov_17_1338,TMT_fmri,2021.2.3,143.87661141982346,
TMTstop-A_1_1.xlsx,0:26,8,['2'],2,TMTstop-A_1_1linestimulus5.png,TMTstop-A_1_1greenlinestimulus5.png,TMTstop-A_1_1redlinestimulus5.png,TMT_A,1,8,None,2,,,,,,,,,0,0,0,0,0,7,7,7,,,,,,,,,,,,,,,,,,,,,,,1,1,82.81965540000238,,,,,,,,105.69119540000247,None,['2'],1,[0.20755869999993593],105.69119540000247,None,,001,2022_Nov_17_1338,TMT_fmri,2021.2.3,143.87661141982346,
TMTstop-A_1_1.xlsx,0:26,9,['3'],3,TMTstop-A_1_1linestimulus6.png,TMTstop-A_1_1greenlinestimulus6.png,TMTstop-A_1_1redlinestimulus6.png,TMT_A,1,9,None,2,,,,,,,,,0,0,0,0,0,8,8,8,,,,,,,,,,,,,,,,,,,,,,,2,0,83.16803960000107,,,,,,,,105.94005010000546,None,"['1', '3']",1,"[0.11841000000276836, 0.2932795000015176]",105.94005010000546,None,,001,2022_Nov_17_1338,TMT_fmri,2021.2.3,143.87661141982346,
TMTstop-A_1_1.xlsx,0:26,10,['1'],1,TMTstop-A_1_1linestimulus7.png,TMTstop-A_1_1greenlinestimulus7.png,TMTstop-A_1_1redlinestimulus7.png,TMT_A,1,10,None,2,,,,,,,,,0,0,0,0,0,9,9,9,,,,,,,,,,,,,,,,,,,,,,,2,0,83.35993560000497,,,,,,,,106.29021250000369,None,"['2', '1']",1,"[-0.018374500003119465, 0.15121240000007674]",106.29021250000369,None,,001,2022_Nov_17_1338,TMT_fmri,2021.2.3,143.87661141982346,
TMTstop-A_1_1.xlsx,0:26,11,['3'],3,TMTstop-A_1_1linestimulus8.png,TMTstop-A_1_1greenlinestimulus8.png,TMTstop-A_1_1redlinestimulus8.png,TMT_A,1,11,None,2,,,,,,,,,0,0,0,0,0,10,10,10,,,,,,,,,,,,,,,,,,,,,,,2,0,83.59078190000582,,,,,,,,106.4805062000014,None,"['2', '3']",1,"[0.15194239999982528, 0.1562389999962761]",106.4805062000014,None,,001,2022_Nov_17_1338,TMT_fmri,2021.2.3,143.87661141982346,
TMTstop-A_1_1.xlsx,0:26,12,['2'],2,TMTstop-A_1_1linestimulus9.png,TMTstop-A_1_1greenlinestimulus9.png,TMTstop-A_1_1redlinestimulus9.png,TMT_A,1,12,None,2,,,,,,,,,0,0,0,0,0,11,11,11,,,,,,,,,,,,,,,,,,,,,,,2,0,87.815875100001,,,,,,,,106.71282540000539,None,"['1', '2']",1,"[3.7593027000039, 4.1707328999982565]",106.71282540000539,None,,001,2022_Nov_17_1338,TMT_fmri,2021.2.3,143.87661141982346,
TMTstop-A_1_1.xlsx,0:26,13,['1'],1,TMTstop-A_1_1linestimulus10.png,TMTstop-A_1_1greenlinestimulus10.png,TMTstop-A_1_1redlinestimulus10.png,TMT_A,1,13,None,2,,,,,,,,,0,0,0,0,0,12,12,12,,,,,,,,,,,,,,,,,,,,,,,1,1,88.00257050000073,,,,,,,,110.9379626000009,None,['1'],1,[0.14557879999483703],110.9379626000009,None,,001,2022_Nov_17_1338,TMT_fmri,2021.2.3,143.87661141982346,
TMTstop-A_1_1.xlsx,0:26,14,['2'],2,TMTstop-A_1_1linestimulus11.png,TMTstop-A_1_1greenlinestimulus11.png,TMTstop-A_1_1redlinestimulus11.png,TMT_A,1,14,None,2,,,,,,,,,0,0,0,0,0,13,13,13,,,,,,,,,,,,,,,,,,,,,,,2,0,88.22120140000334,,,,,,,,111.12291290000576,None,"['3', '2']",1,"[0.10139229999913368, 0.15688959999533836]",111.12291290000576,None,,001,2022_Nov_17_1338,TMT_fmri,2021.2.3,143.87661141982346,
TMTstop-A_1_1.xlsx,0:26,15,['1'],1,TMTstop-A_1_1linestimulus12.png,TMTstop-A_1_1greenlinestimulus12.png,TMTstop-A_1_1redlinestimulus12.png,TMT_A,1,15,None,2,,,,,,,,,0,0,0,0,0,14,14,14,,,,,,,,,,,,,,,,,,,,,,,1,1,88.3318247999996,,,,,,,,111.34140599999955,None,['1'],1,[0.06828139999561245],111.34140599999955,None,,001,2022_Nov_17_1338,TMT_fmri,2021.2.3,143.87661141982346,
TMTstop-A_1_1.xlsx,0:26,16,['2'],2,TMTstop-A_1_1linestimulus13.png,TMTstop-A_1_1greenlinestimulus13.png,TMTstop-A_1_1redlinestimulus13.png,TMT_A,1,16,None,2,,,,,,,,,0,0,0,0,0,15,15,15,,,,,,,,,,,,,,,,,,,,,,,2,0,88.47718750000058,,,,,,,,111.45499109999946,None,"['3', '2']",1,"[0.06452310000167927, 0.08777030000055674]",111.45499109999946,None,,001,2022_Nov_17_1338,TMT_fmri,2021.2.3,143.87661141982346,
TMTstop-A_1_1.xlsx,0:26,17,['1'],1,TMTstop-A_1_1linestimulus14.png,TMTstop-A_1_1greenlinestimulus14.png,TMTstop-A_1_1redlinestimulus14.png,TMT_A,1,17,None,2,,,,,,,,,0,0,0,0,0,16,16,16,,,,,,,,,,,,,,,,,,,,,,,1,1,88.60657640000136,,,,,,,,111.60104390000197,None,['1'],1,[0.08552140000392683],111.60104390000197,None,,001,2022_Nov_17_1338,TMT_fmri,2021.2.3,143.87661141982346,
TMTstop-A_1_1.xlsx,0:26,18,['3'],3,TMTstop-A_1_1linestimulus15.png,TMTstop-A_1_1greenlinestimulus15.png,TMTstop-A_1_1redlinestimulus15.png,TMT_A,1,18,None,2,,,,,,,,,0,0,0,0,0,17,17,17,,,,,,,,,,,,,,,,,,,,,,,1,1,88.69881650000025,,,,,,,,111.7293193000005,None,['3'],1,[0.04594380000344245],111.7293193000005,None,,001,2022_Nov_17_1338,TMT_fmri,2021.2.3,143.87661141982346,
TMTstop-A_1_1.xlsx,0:26,19,['2'],2,TMTstop-A_1_1linestimulus16.png,TMTstop-A_1_1greenlinestimulus16.png,TMTstop-A_1_1redlinestimulus16.png,TMT_A,1,19,None,2,,,,,,,,,0,0,0,0,0,18,18,18,,,,,,,,,,,,,,,,,,,,,,,1,1,88.7388712000029,,,,,,,,111.81965660000424,None,['2'],1,[-0.007076099995174445],111.81965660000424,None,,001,2022_Nov_17_1338,TMT_fmri,2021.2.3,143.87661141982346,
TMTstop-A_1_1.xlsx,0:26,20,['3'],3,TMTstop-A_1_1linestimulus17.png,TMTstop-A_1_1greenlinestimulus17.png,TMTstop-A_1_1redlinestimulus17.png,TMT_A,1,20,None,2,,,,,,,,,0,0,0,0,0,19,19,19,,,,,,,,,,,,,,,,,,,,,,,2,0,88.98349969999981,,,,,,,,111.86022460000095,None,"['1', '3']",1,"[0.08600840000144672, 0.196313000000373]",111.86022460000095,None,,001,2022_Nov_17_1338,TMT_fmri,2021.2.3,143.87661141982346,
TMTstop-A_1_1.xlsx,0:26,21,['1'],1,TMTstop-A_1_1linestimulus18.png,TMTstop-A_1_1greenlinestimulus18.png,TMTstop-A_1_1redlinestimulus18.png,TMT_A,1,21,None,2,,,,,,,,,0,0,0,0,0,20,20,20,,,,,,,,,,,,,,,,,,,,,,,2,0,89.17930960000376,,,,,,,,112.1062144000025,None,"['2', '1']",1,"[-0.02170549999573268, 0.11942040000576526]",112.1062144000025,None,,001,2022_Nov_17_1338,TMT_fmri,2021.2.3,143.87661141982346,
TMTstop-A_1_1.xlsx,0:26,22,['3'],3,TMTstop-A_1_1linestimulus19.png,TMTstop-A_1_1greenlinestimulus19.png,TMTstop-A_1_1redlinestimulus19.png,TMT_A,1,22,None,2,,,,,,,,,0,0,0,0,0,21,21,21,,,,,,,,,,,,,,,,,,,,,,,3,0,89.56345610000426,,,,,,,,112.30016000000614,None,"['2', '1', '3']",1,"[0.07688990000315243, 0.21518210000067484, 0.3287211999995634]",112.30016000000614,None,,001,2022_Nov_17_1338,TMT_fmri,2021.2.3,143.87661141982346,
TMTstop-A_1_1.xlsx,0:26,23,['1'],1,TMTstop-A_1_1linestimulus20.png,TMTstop-A_1_1greenlinestimulus20.png,TMTstop-A_1_1redlinestimulus20.png,TMT_A,1,23,None,2,,,,,,,,,0,0,0,0,0,22,22,22,,,,,,,,,,,,,,,,,,,,,,,2,0,89.7591362000021,,,,,,,,112.68556220000028,None,"['2', '1']",1,"[-0.015947500003676396, 0.1310786999965785]",112.68556220000028,None,,001,2022_Nov_17_1338,TMT_fmri,2021.2.3,143.87661141982346,
TMTstop-A_1_1.xlsx,0:26,24,['3'],3,TMTstop-A_1_1linestimulus21.png,TMTstop-A_1_1greenlinestimulus21.png,TMTstop-A_1_1redlinestimulus21.png,TMT_A,1,24,None,2,,,,,,,,,0,0,0,0,0,23,23,23,,,,,,,,,,,,,,,,,,,,,,,1,1,89.86502910000127,,,,,,,,112.88184620000538,None,['3'],1,[0.06467759999941336],112.88184620000538,None,,001,2022_Nov_17_1338,TMT_fmri,2021.2.3,143.87661141982346,
TMTstop-A_1_1.xlsx,0:26,25,['1'],1,TMTstop-A_1_1linestimulus22.png,TMTstop-A_1_1greenlinestimulus22.png,TMTstop-A_1_1redlinestimulus22.png,TMT_A,1,25,None,2,,,,,,,,,0,0,0,0,0,24,24,24,,,,,,,,,,,,,,,,,,,,,,,2,0,90.05468670000118,,,,,,,,112.98777030000201,None,"['2', '1']",1,"[-0.010199800002737902, 0.1398304999966058]",112.98777030000201,None,,001,2022_Nov_17_1338,TMT_fmri,2021.2.3,143.87661141982346,
TMTstop-A_1_1.xlsx,0:26,None,None,None,TMTstop-A_1_1linestimulus23.png,TMTstop-A_1_1greenlinestimulus23.png,TMTstop-A_1_1redlinestimulus23.png,TMT_A,1,Feedback_last,None,2,,,,,,,,,0,0,0,0,0,25,25,25,,,,,,,,,,,,,,,,,,,,,,,6,0,,,,,,,,,113.17831030000525,None,"['3', '2', '1', '3', '2', '1']",0,"[0.08008289999997942, 0.13086440000188304, 0.27239530000224477, 0.3927328999998281, 0.4302144999965094, 0.603805899998406]",113.17831030000525,None,,001,2022_Nov_17_1338,TMT_fmri,2021.2.3,143.87661141982346,
TMTstop-A_1_2.xlsx,26:52,1,['1'],1,TMTstop-A_1_2.png,TMTstop-A_1_2.png,TMTstop-A_1_2.png,TMT_A,2,26,None,2,,,,,,,,,0,1,1,1,0,0,0,0,,,,,,,,,,,,,,,,,,,,,,,3,0,94.7889609000049,,,,,,,,117.34210150000581,None,"['2', '3', '1']",1,"[0.3774122000031639, 0.38210370000160765, 0.5015870999995968]",117.34210150000581,None,,001,2022_Nov_17_1338,TMT_fmri,2021.2.3,143.87661141982346,
TMTstop-A_1_2.xlsx,26:52,2,['3'],3,TMTstop-A_1_2.png,TMTstop-A_1_2firstgreen.png,TMTstop-A_1_2firstred.png,TMT_A,2,27,None,2,,,,,,,,,0,1,1,1,0,1,1,1,,,,,,,,,,,,,,,,,,,,,,,1,1,94.8767394000024,,,,,,,,117.91269870000542,None,['3'],1,[0.04648829999496229],117.91269870000542,None,,001,2022_Nov_17_1338,TMT_fmri,2021.2.3,143.87661141982346,
TMTstop-A_1_2.xlsx,26:52,3,['1'],1,TMTstop-A_1_2linestimulus0.png,TMTstop-A_1_2greenlinestimulus0.png,TMTstop-A_1_2redlinestimulus0.png,TMT_A,2,28,None,2,,,,,,,,,0,1,1,1,0,2,2,2,,,,,,,,,,,,,,,,,,,,,,,2,0,95.07482110000274,,,,,,,,117.99989769999956,None,"['2', '1']",1,"[-0.005935699999099597, 0.11941530000331113]",117.99989769999956,None,,001,2022_Nov_17_1338,TMT_fmri,2021.2.3,143.87661141982346,
TMTstop-A_1_2.xlsx,26:52,4,['2'],2,TMTstop-A_1_2linestimulus1.png,TMTstop-A_1_2greenlinestimulus1.png,TMTstop-A_1_2redlinestimulus1.png,TMT_A,2,29,None,2,,,,,,,,,0,1,1,1,0,3,3,3,,,,,,,,,,,,,,,,,,,,,,,2,0,95.18287630000123,,,,,,,,118.19843070000206,None,"['3', '2']",1,"[0.023463799996534362, 0.045782699999108445]",118.19843070000206,None,,001,2022_Nov_17_1338,TMT_fmri,2021.2.3,143.87661141982346,
TMTstop-A_1_2.xlsx,26:52,5,['1'],1,TMTstop-A_1_2linestimulus2.png,TMTstop-A_1_2greenlinestimulus2.png,TMTstop-A_1_2redlinestimulus2.png,TMT_A,2,30,None,2,,,,,,,,,0,1,1,1,0,4,4,4,,,,,,,,,,,,,,,,,,,,,,,1,1,95.29075010000088,,,,,,,,118.30763300000399,None,['1'],1,[0.06056420000095386],118.30763300000399,None,,001,2022_Nov_17_1338,TMT_fmri,2021.2.3,143.87661141982346,
TMTstop-A_1_2.xlsx,26:52,6,['3'],3,TMTstop-A_1_2linestimulus3.png,TMTstop-A_1_2greenlinestimulus3.png,TMTstop-A_1_2redlinestimulus3.png,TMT_A,2,31,None,2,,,,,,,,,0,1,1,1,0,5,5,5,,,,,,,,,,,,,,,,,,,,,,,1,1,95.40277849999984,,,,,,,,118.41348660000222,None,['3'],1,[0.06541080000170041],118.41348660000222,None,,001,2022_Nov_17_1338,TMT_fmri,2021.2.3,143.87661141982346,
TMTstop-A_1_2.xlsx,26:52,7,['2'],2,TMTstop-A_1_2linestimulus4.png,TMTstop-A_1_2greenlinestimulus4.png,TMTstop-A_1_2redlinestimulus4.png,TMT_A,2,32,None,2,,,,,,,,,0,1,1,1,0,6,6,6,,,,,,,,,,,,,,,,,,,,,,,1,1,95.44401579999976,,,,,,,,118.52460129999963,None,['2'],1,[-0.010037599997303914],118.52460129999963,None,,001,2022_Nov_17_1338,TMT_fmri,2021.2.3,143.87661141982346,
TMTstop-A_1_2.xlsx,26:52,8,['1'],1,TMTstop-A_1_2linestimulus5.png,TMTstop-A_1_2greenlinestimulus5.png,TMTstop-A_1_2redlinestimulus5.png,TMT_A,2,33,None,2,,,,,,,,,0,1,1,1,0,7,7,7,,,,,,,,,,,,,,,,,,,,,,,1,1,95.55672720000439,,,,,,,,118.5663274000035,None,['1'],1,[0.07257050000043819],118.5663274000035,None,,001,2022_Nov_17_1338,TMT_fmri,2021.2.3,143.87661141982346,
TMTstop-A_1_2.xlsx,26:52,9,['3'],3,TMTstop-A_1_2linestimulus6.png,TMTstop-A_1_2greenlinestimulus6.png,TMTstop-A_1_2redlinestimulus6.png,TMT_A,2,34,None,2,,,,,,,,,0,1,1,1,0,8,8,8,,,,,,,,,,,,,,,,,,,,,,,1,1,95.67836700000043,,,,,,,,118.6764714000019,None,['3'],1,[0.08357600000454113],118.6764714000019,None,,001,2022_Nov_17_1338,TMT_fmri,2021.2.3,143.87661141982346,
TMTstop-A_1_2.xlsx,26:52,10,['2'],2,TMTstop-A_1_2linestimulus7.png,TMTstop-A_1_2greenlinestimulus7.png,TMTstop-A_1_2redlinestimulus7.png,TMT_A,2,35,None,2,,,,,,,,,0,1,1,1,0,9,9,9,,,,,,,,,,,,,,,,,,,,,,,1,1,95.71865020000405,,,,,,,,118.79992420000053,None,['2'],1,[-0.009589199995389208],118.79992420000053,None,,001,2022_Nov_17_1338,TMT_fmri,2021.2.3,143.87661141982346,
TMTstop-A_1_2.xlsx,26:52,11,['1'],1,TMTstop-A_1_2linestimulus8.png,TMTstop-A_1_2greenlinestimulus8.png,TMTstop-A_1_2redlinestimulus8.png,TMT_A,2,36,None,2,,,,,,,,,0,1,1,1,0,10,10,10,,,,,,,,,,,,,,,,,,,,,,,1,1,95.83465850000357,,,,,,,,118.8396303000045,None,['1'],1,[0.07072519999928772],118.8396303000045,None,,001,2022_Nov_17_1338,TMT_fmri,2021.2.3,143.87661141982346,
TMTstop-A_1_2.xlsx,26:52,12,['2'],2,TMTstop-A_1_2linestimulus9.png,TMTstop-A_1_2greenlinestimulus9.png,TMTstop-A_1_2redlinestimulus9.png,TMT_A,2,37,None,2,,,,,,,,,0,1,1,1,0,11,11,11,,,,,,,,,,,,,,,,,,,,,,,2,0,95.99885100000392,,,,,,,,118.95703440000216,None,"['3', '2']",1,"[0.07889979999890784, 0.10771229999954812]",118.95703440000216,None,,001,2022_Nov_17_1338,TMT_fmri,2021.2.3,143.87661141982346,
TMTstop-A_1_2.xlsx,26:52,13,['1'],1,TMTstop-A_1_2linestimulus10.png,TMTstop-A_1_2greenlinestimulus10.png,TMTstop-A_1_2redlinestimulus10.png,TMT_A,2,38,None,2,,,,,,,,,0,1,1,1,0,12,12,12,,,,,,,,,,,,,,,,,,,,,,,1,1,96.1124232000002,,,,,,,,119.12161530000594,None,['1'],1,[0.06687280000187457],119.12161530000594,None,,001,2022_Nov_17_1338,TMT_fmri,2021.2.3,143.87661141982346,
TMTstop-A_1_2.xlsx,26:52,14,['3'],3,TMTstop-A_1_2linestimulus11.png,TMTstop-A_1_2greenlinestimulus11.png,TMTstop-A_1_2redlinestimulus11.png,TMT_A,2,39,None,2,,,,,,,,,0,1,1,1,0,13,13,13,,,,,,,,,,,,,,,,,,,,,,,1,1,96.25154690000636,,,,,,,,119.23125250000157,None,['3'],1,[0.09939009999652626],119.23125250000157,None,,001,2022_Nov_17_1338,TMT_fmri,2021.2.3,143.87661141982346,
TMTstop-A_1_2.xlsx,26:52,15,['1'],1,TMTstop-A_1_2linestimulus12.png,TMTstop-A_1_2greenlinestimulus12.png,TMTstop-A_1_2redlinestimulus12.png,TMT_A,2,40,None,2,,,,,,,,,0,1,1,1,0,14,14,14,,,,,,,,,,,,,,,,,,,,,,,2,0,96.44616640000459,,,,,,,,119.36945779999951,None,"['2', '1']",1,"[0.0029279999944265, 0.1305556000006618]",119.36945779999951,None,,001,2022_Nov_17_1338,TMT_fmri,2021.2.3,143.87661141982346,
TMTstop-A_1_2.xlsx,26:52,16,['3'],3,TMTstop-A_1_2linestimulus13.png,TMTstop-A_1_2greenlinestimulus13.png,TMTstop-A_1_2redlinestimulus13.png,TMT_A,2,41,None,2,,,,,,,,,0,1,1,1,0,15,15,15,,,,,,,,,,,,,,,,,,,,,,,1,1,96.5243122000029,,,,,,,,119.56828479999967,None,['3'],1,[0.03369160000147531],119.56828479999967,None,,001,2022_Nov_17_1338,TMT_fmri,2021.2.3,143.87661141982346,
TMTstop-A_1_2.xlsx,26:52,17,['1'],1,TMTstop-A_1_2linestimulus14.png,TMTstop-A_1_2greenlinestimulus14.png,TMTstop-A_1_2redlinestimulus14.png,TMT_A,2,42,None,2,,,,,,,,,0,1,1,1,0,16,16,16,,,,,,,,,,,,,,,,,,,,,,,2,0,96.73699920000217,,,,,,,,119.64720020000095,None,"['2', '1']",1,"[0.020024699995701667, 0.16044639999745414]",119.64720020000095,None,,001,2022_Nov_17_1338,TMT_fmri,2021.2.3,143.87661141982346,
TMTstop-A_1_2.xlsx,26:52,18,['2'],2,TMTstop-A_1_2linestimulus15.png,TMTstop-A_1_2greenlinestimulus15.png,TMTstop-A_1_2redlinestimulus15.png,TMT_A,2,43,None,2,,,,,,,,,0,1,1,1,0,17,17,17,,,,,,,,,,,,,,,,,,,,,,,2,0,96.89065710000432,,,,,,,,119.85743770000408,None,"['3', '2']",1,"[0.07644669999717735, 0.10239410000212956]",119.85743770000408,None,,001,2022_Nov_17_1338,TMT_fmri,2021.2.3,143.87661141982346,
TMTstop-A_1_2.xlsx,26:52,19,['1'],1,TMTstop-A_1_2linestimulus16.png,TMTstop-A_1_2greenlinestimulus16.png,TMTstop-A_1_2redlinestimulus16.png,TMT_A,2,44,None,2,,,,,,,,,0,1,1,1,0,18,18,18,,,,,,,,,,,,,,,,,,,,,,,1,1,97.03317410000454,,,,,,,,120.0143864000056,None,['1'],1,[0.09777400000166381],120.0143864000056,None,,001,2022_Nov_17_1338,TMT_fmri,2021.2.3,143.87661141982346,
TMTstop-A_1_2.xlsx,26:52,20,['2'],2,TMTstop-A_1_2linestimulus17.png,TMTstop-A_1_2greenlinestimulus17.png,TMTstop-A_1_2redlinestimulus17.png,TMT_A,2,45,None,2,,,,,,,,,0,1,1,1,0,19,19,19,,,,,,,,,,,,,,,,,,,,,,,2,0,97.23192540000309,,,,,,,,120.15490590000263,None,"['3', '2']",1,"[0.07572720000462141, 0.12469700000656303]",120.15490590000263,None,,001,2022_Nov_17_1338,TMT_fmri,2021.2.3,143.87661141982346,
TMTstop-A_1_2.xlsx,26:52,21,['3'],3,TMTstop-A_1_2linestimulus18.png,TMTstop-A_1_2greenlinestimulus18.png,TMTstop-A_1_2redlinestimulus18.png,TMT_A,2,46,None,2,,,,,,,,,0,1,1,1,0,20,20,20,,,,,,,,,,,,,,,,,,,,,,,2,0,97.48096540000552,,,,,,,,120.35741590000544,None,"['1', '3']",1,"[0.05682899999374058, 0.18997680000029504]",120.35741590000544,None,,001,2022_Nov_17_1338,TMT_fmri,2021.2.3,143.87661141982346,
TMTstop-A_1_2.xlsx,26:52,22,['2'],2,TMTstop-A_1_2linestimulus19.png,TMTstop-A_1_2greenlinestimulus19.png,TMTstop-A_1_2redlinestimulus19.png,TMT_A,2,47,None,2,,,,,,,,,0,1,1,1,0,21,21,21,,,,,,,,,,,,,,,,,,,,,,,1,1,97.5210928000015,,,,,,,,120.6018955000036,None,['2'],1,[-0.026283999999577645],120.6018955000036,None,,001,2022_Nov_17_1338,TMT_fmri,2021.2.3,143.87661141982346,
TMTstop-A_1_2.xlsx,26:52,23,['3'],3,TMTstop-A_1_2linestimulus20.png,TMTstop-A_1_2greenlinestimulus20.png,TMTstop-A_1_2redlinestimulus20.png,TMT_A,2,48,None,2,,,,,,,,,0,1,1,1,0,22,22,22,,,,,,,,,,,,,,,,,,,,,,,9,0,98.59839610000199,,,,,,,,120.6444077000051,None,"['1', '3', '2', '1', '2', '1', '2', '1', '3']",1,"[0.049518200001330115, 0.16970259999652626, 0.20654199999989942, 0.3446318999995128, 0.4953949999980978, 0.6331150999976671, 0.7856183999974746, 0.9539116000014474, 1.022683399998641]",120.6444077000051,None,,001,2022_Nov_17_1338,TMT_fmri,2021.2.3,143.87661141982346,
TMTstop-A_1_2.xlsx,26:52,24,['2'],2,TMTstop-A_1_2linestimulus21.png,TMTstop-A_1_2greenlinestimulus21.png,TMTstop-A_1_2redlinestimulus21.png,TMT_A,2,49,None,2,,,,,,,,,0,1,1,1,0,23,23,23,,,,,,,,,,,,,,,,,,,,,,,3,0,99.00846660000389,,,,,,,,121.72442890000093,None,"['1', '3', '2']",1,"[0.172625600003812, 0.33695950000401353, 0.360734500005492]",121.72442890000093,None,,001,2022_Nov_17_1338,TMT_fmri,2021.2.3,143.87661141982346,
TMTstop-A_1_2.xlsx,26:52,25,['3'],3,TMTstop-A_1_2linestimulus22.png,TMTstop-A_1_2greenlinestimulus22.png,TMTstop-A_1_2redlinestimulus22.png,TMT_A,2,50,None,2,,,,,,,,,0,1,1,1,0,24,24,24,,,,,,,,,,,,,,,,,,,,,,,2,0,99.3064790999997,,,,,,,,122.13274320000346,None,"['1', '3']",1,"[0.10371499999746447, 0.22359799999685492]",122.13274320000346,None,,001,2022_Nov_17_1338,TMT_fmri,2021.2.3,143.87661141982346,
TMTstop-A_1_2.xlsx,26:52,None,None,None,TMTstop-A_1_2linestimulus23.png,TMTstop-A_1_2greenlinestimulus23.png,TMTstop-A_1_2redlinestimulus23.png,TMT_A,2,Feedback_last,None,2,,,,,,,,,0,1,1,1,0,25,25,25,,,,,,,,,,,,,,,,,,,,,,,4,0,,,,,,,,,122.42961930000456,None,"['2', '1', '3', '2']",0,"[0.0033279999988735653, 0.11302900000009686, 0.23213959999702638, 0.27642670000204816]",122.42961930000456,None,,001,2022_Nov_17_1338,TMT_fmri,2021.2.3,143.87661141982346,
TMTstop-A_1_3.xlsx,52:78,1,['1'],1,TMTstop-A_1_3.png,TMTstop-A_1_3.png,TMTstop-A_1_3.png,TMT_A,3,51,None,2,,,,,,,,,0,2,2,2,0,0,0,0,,,,,,,,,,,,,,,,,,,,,,,3,0,104.69213030000537,,,,,,,,126.549468600002,None,"['3', '2', '1']",1,"[1.075606999998854, 1.0937550000016927, 1.2167399999962072]",126.549468600002,None,,001,2022_Nov_17_1338,TMT_fmri,2021.2.3,143.87661141982346,
TMTstop-A_1_3.xlsx,52:78,2,['3'],3,TMTstop-A_1_3.png,TMTstop-A_1_3firstgreen.png,TMTstop-A_1_3firstred.png,TMT_A,3,52,None,2,,,,,,,,,0,2,2,2,0,1,1,1,,,,,,,,,,,,,,,,,,,,,,,1,1,104.80462190000253,,,,,,,,127.81373950000125,None,['3'],1,[0.0731350000060047],127.81373950000125,None,,001,2022_Nov_17_1338,TMT_fmri,2021.2.3,143.87661141982346,
TMTstop-A_1_3.xlsx,52:78,3,['2'],2,TMTstop-A_1_3linestimulus0.png,TMTstop-A_1_3greenlinestimulus0.png,TMTstop-A_1_3redlinestimulus0.png,TMT_A,3,53,None,2,,,,,,,,,0,2,2,2,0,2,2,2,,,,,,,,,,,,,,,,,,,,,,,1,1,104.84461250000459,,,,,,,,127.92545670000254,None,['2'],1,[-0.007270299996889662],127.92545670000254,None,,001,2022_Nov_17_1338,TMT_fmri,2021.2.3,143.87661141982346,
TMTstop-A_1_3.xlsx,52:78,4,['3'],3,TMTstop-A_1_3linestimulus1.png,TMTstop-A_1_3greenlinestimulus1.png,TMTstop-A_1_3redlinestimulus1.png,TMT_A,3,54,None,2,,,,,,,,,0,2,2,2,0,3,3,3,,,,,,,,,,,,,,,,,,,,,,,2,0,105.08256560000154,,,,,,,,127.96542960000079,None,"['1', '3']",1,"[0.07895279999502236, 0.18154819999472238]",127.96542960000079,None,,001,2022_Nov_17_1338,TMT_fmri,2021.2.3,143.87661141982346,
TMTstop-A_1_3.xlsx,52:78,5,['2'],2,TMTstop-A_1_3linestimulus2.png,TMTstop-A_1_3greenlinestimulus2.png,TMTstop-A_1_3redlinestimulus2.png,TMT_A,3,55,None,2,,,,,,,,,0,2,2,2,0,4,4,4,,,,,,,,,,,,,,,,,,,,,,,3,0,105.39945570000418,,,,,,,,128.2118782000034,None,"['1', '3', '2']",1,"[0.08006109999405453, 0.2061184999984107, 0.25858019999577664]",128.2118782000034,None,,001,2022_Nov_17_1338,TMT_fmri,2021.2.3,143.87661141982346,
TMTstop-A_1_3.xlsx,52:78,6,['1'],1,TMTstop-A_1_3linestimulus3.png,TMTstop-A_1_3greenlinestimulus3.png,TMTstop-A_1_3redlinestimulus3.png,TMT_A,3,56,None,2,,,,,,,,,0,2,2,2,0,5,5,5,,,,,,,,,,,,,,,,,,,,,,,1,1,105.48858350000228,,,,,,,,128.52021160000004,None,['1'],1,[0.049530199998116586],128.52021160000004,None,,001,2022_Nov_17_1338,TMT_fmri,2021.2.3,143.87661141982346,
TMTstop-A_1_3.xlsx,52:78,7,['3'],3,TMTstop-A_1_3linestimulus4.png,TMTstop-A_1_3greenlinestimulus4.png,TMTstop-A_1_3redlinestimulus4.png,TMT_A,3,57,None,2,,,,,,,,,0,2,2,2,0,6,6,6,,,,,,,,,,,,,,,,,,,,,,,1,1,105.60906990000512,,,,,,,,128.6097521000047,None,['3'],1,[0.0753748999995878],128.6097521000047,None,,001,2022_Nov_17_1338,TMT_fmri,2021.2.3,143.87661141982346,
TMTstop-A_1_3.xlsx,52:78,8,['1'],1,TMTstop-A_1_3linestimulus5.png,TMTstop-A_1_3greenlinestimulus5.png,TMTstop-A_1_3redlinestimulus5.png,TMT_A,3,58,None,2,,,,,,,,,0,2,2,2,0,7,7,7,,,,,,,,,,,,,,,,,,,,,,,2,0,105.7687517000013,,,,,,,,128.73338380000496,None,"['2', '1']",1,"[-0.010463400001754053, 0.09054509999987204]",128.73338380000496,None,,001,2022_Nov_17_1338,TMT_fmri,2021.2.3,143.87661141982346,
TMTstop-A_1_3.xlsx,52:78,9,['3'],3,TMTstop-A_1_3linestimulus6.png,TMTstop-A_1_3greenlinestimulus6.png,TMTstop-A_1_3redlinestimulus6.png,TMT_A,3,59,None,2,,,,,,,,,0,2,2,2,0,8,8,8,,,,,,,,,,,,,,,,,,,,,,,1,1,105.88686030000099,,,,,,,,128.89079970000603,None,['3'],1,[0.07626300000265473],128.89079970000603,None,,001,2022_Nov_17_1338,TMT_fmri,2021.2.3,143.87661141982346,
TMTstop-A_1_3.xlsx,52:78,10,['2'],2,TMTstop-A_1_3linestimulus7.png,TMTstop-A_1_3greenlinestimulus7.png,TMTstop-A_1_3redlinestimulus7.png,TMT_A,3,60,None,2,,,,,,,,,0,2,2,2,0,9,9,9,,,,,,,,,,,,,,,,,,,,,,,1,1,105.92880250000599,,,,,,,,129.00956730000325,None,['2'],1,[-0.007292800000868738],129.00956730000325,None,,001,2022_Nov_17_1338,TMT_fmri,2021.2.3,143.87661141982346,
TMTstop-A_1_3.xlsx,52:78,11,['3'],3,TMTstop-A_1_3linestimulus8.png,TMTstop-A_1_3greenlinestimulus8.png,TMTstop-A_1_3redlinestimulus8.png,TMT_A,3,61,None,2,,,,,,,,,0,2,2,2,0,10,10,10,,,,,,,,,,,,,,,,,,,,,,,5,0,106.46006430000125,,,,,,,,129.05080060000182,None,"['1', '3', '2', '1', '3']",1,"[0.05724539999937406, 0.1888976999980514, 0.2137153000003309, 0.343265399998927, 0.47096659999806434]",129.05080060000182,None,,001,2022_Nov_17_1338,TMT_fmri,2021.2.3,143.87661141982346,
TMTstop-A_1_3.xlsx,52:78,12,['2'],2,TMTstop-A_1_3linestimulus9.png,TMTstop-A_1_3greenlinestimulus9.png,TMTstop-A_1_3redlinestimulus9.png,TMT_A,3,62,None,2,,,,,,,,,0,2,2,2,0,11,11,11,,,,,,,,,,,,,,,,,,,,,,,1,1,106.5000571000055,,,,,,,,129.5806878000003,None,['2'],1,[-0.03647810000256868],129.5806878000003,None,,001,2022_Nov_17_1338,TMT_fmri,2021.2.3,143.87661141982346,
TMTstop-A_1_3.xlsx,52:78,13,['1'],1,TMTstop-A_1_3linestimulus10.png,TMTstop-A_1_3greenlinestimulus10.png,TMTstop-A_1_3redlinestimulus10.png,TMT_A,3,63,None,2,,,,,,,,,0,2,2,2,0,12,12,12,,,,,,,,,,,,,,,,,,,,,,,1,1,106.58797060000506,,,,,,,,129.62123850000353,None,['1'],1,[0.043028700005379505],129.62123850000353,None,,001,2022_Nov_17_1338,TMT_fmri,2021.2.3,143.87661141982346,
TMTstop-A_1_3.xlsx,52:78,14,['2'],2,TMTstop-A_1_3linestimulus11.png,TMTstop-A_1_3greenlinestimulus11.png,TMTstop-A_1_3redlinestimulus11.png,TMT_A,3,64,None,2,,,,,,,,,0,2,2,2,0,13,13,13,,,,,,,,,,,,,,,,,,,,,,,2,0,106.78619980000076,,,,,,,,129.71068640000158,None,"['3', '2']",1,"[0.07742159999907017, 0.13222420000238344]",129.71068640000158,None,,001,2022_Nov_17_1338,TMT_fmri,2021.2.3,143.87661141982346,
TMTstop-A_1_3.xlsx,52:78,15,['3'],3,TMTstop-A_1_3linestimulus12.png,TMTstop-A_1_3greenlinestimulus12.png,TMTstop-A_1_3redlinestimulus12.png,TMT_A,3,65,None,2,,,,,,,,,0,2,2,2,0,14,14,14,,,,,,,,,,,,,,,,,,,,,,,2,0,106.99880600000324,,,,,,,,129.90811560000293,None,"['1', '3']",1,"[0.052424399997107685, 0.16274519999569748]",129.90811560000293,None,,001,2022_Nov_17_1338,TMT_fmri,2021.2.3,143.87661141982346,
TMTstop-A_1_3.xlsx,52:78,16,['2'],2,TMTstop-A_1_3linestimulus13.png,TMTstop-A_1_3greenlinestimulus13.png,TMTstop-A_1_3redlinestimulus13.png,TMT_A,3,66,None,2,,,,,,,,,0,2,2,2,0,15,15,15,,,,,,,,,,,,,,,,,,,,,,,1,1,107.03868520000105,,,,,,,,130.1194844000056,None,['2'],1,[-0.023153199996158946],130.1194844000056,None,,001,2022_Nov_17_1338,TMT_fmri,2021.2.3,143.87661141982346,
TMTstop-A_1_3.xlsx,52:78,17,['3'],3,TMTstop-A_1_3linestimulus14.png,TMTstop-A_1_3greenlinestimulus14.png,TMTstop-A_1_3redlinestimulus14.png,TMT_A,3,67,None,2,,,,,,,,,0,2,2,2,0,16,16,16,,,,,,,,,,,,,,,,,,,,,,,2,0,107.30210600000282,,,,,,,,130.1593484000041,None,"['1', '3']",1,"[0.05918820000078995, 0.20492440000089118]",130.1593484000041,None,,001,2022_Nov_17_1338,TMT_fmri,2021.2.3,143.87661141982346,
TMTstop-A_1_3.xlsx,52:78,18,['2'],2,TMTstop-A_1_3linestimulus15.png,TMTstop-A_1_3greenlinestimulus15.png,TMTstop-A_1_3redlinestimulus15.png,TMT_A,3,68,None,2,,,,,,,,,0,2,2,2,0,17,17,17,,,,,,,,,,,,,,,,,,,,,,,1,1,107.34196210000664,,,,,,,,130.42293540000537,None,['2'],1,[-0.015970499996910803],130.42293540000537,None,,001,2022_Nov_17_1338,TMT_fmri,2021.2.3,143.87661141982346,
TMTstop-A_1_3.xlsx,52:78,19,['3'],3,TMTstop-A_1_3linestimulus16.png,TMTstop-A_1_3greenlinestimulus16.png,TMTstop-A_1_3redlinestimulus16.png,TMT_A,3,69,None,2,,,,,,,,,0,2,2,2,0,18,18,18,,,,,,,,,,,,,,,,,,,,,,,2,0,107.58398510000552,,,,,,,,130.4637709000017,None,"['1', '3']",1,"[0.04701589999604039, 0.19417869999597315]",130.4637709000017,None,,001,2022_Nov_17_1338,TMT_fmri,2021.2.3,143.87661141982346,
TMTstop-A_1_3.xlsx,52:78,20,['1'],1,TMTstop-A_1_3linestimulus17.png,TMTstop-A_1_3greenlinestimulus17.png,TMTstop-A_1_3redlinestimulus17.png,TMT_A,3,70,None,2,,,,,,,,,0,2,2,2,0,19,19,19,,,,,,,,,,,,,,,,,,,,,,,2,0,107.73410120000335,,,,,,,,130.70581870000024,None,"['2', '1']",1,"[0.025795299996389076, 0.10991069999727188]",130.70581870000024,None,,001,2022_Nov_17_1338,TMT_fmri,2021.2.3,143.87661141982346,
TMTstop-A_1_3.xlsx,52:78,21,['2'],2,TMTstop-A_1_3linestimulus18.png,TMTstop-A_1_3greenlinestimulus18.png,TMTstop-A_1_3redlinestimulus18.png,TMT_A,3,71,None,2,,,,,,,,,0,2,2,2,0,20,20,20,,,,,,,,,,,,,,,,,,,,,,,2,0,107.91374619999988,,,,,,,,130.85630160000437,None,"['3', '2']",1,"[0.0962913999974262, 0.12034999999741558]",130.85630160000437,None,,001,2022_Nov_17_1338,TMT_fmri,2021.2.3,143.87661141982346,
TMTstop-A_1_3.xlsx,52:78,22,['3'],3,TMTstop-A_1_3linestimulus19.png,TMTstop-A_1_3greenlinestimulus19.png,TMTstop-A_1_3redlinestimulus19.png,TMT_A,3,72,None,2,,,,,,,,,0,2,2,2,0,21,21,21,,,,,,,,,,,,,,,,,,,,,,,8,0,108.75872560000425,,,,,,,,131.03660700000182,None,"['1', '3', '2', '1', '3', '2', '1', '3']",1,"[0.07613420000416227, 0.20610320000560023, 0.2286212000035448, 0.3652741000041715, 0.49014980000356445, 0.5039237000019057, 0.6583984000026248, 0.7944109000018216]",131.03660700000182,None,,001,2022_Nov_17_1338,TMT_fmri,2021.2.3,143.87661141982346,
TMTstop-A_1_3.xlsx,52:78,23,['2'],2,TMTstop-A_1_3linestimulus20.png,TMTstop-A_1_3greenlinestimulus20.png,TMTstop-A_1_3redlinestimulus20.png,TMT_A,3,73,None,2,,,,,,,,,0,2,2,2,0,22,22,22,,,,,,,,,,,,,,,,,,,,,,,1,1,108.80058320000535,,,,,,,,131.88154000000213,None,['2'],1,[-0.0193991999985883],131.88154000000213,None,,001,2022_Nov_17_1338,TMT_fmri,2021.2.3,143.87661141982346,
TMTstop-A_1_3.xlsx,52:78,24,['1'],1,TMTstop-A_1_3linestimulus21.png,TMTstop-A_1_3greenlinestimulus21.png,TMTstop-A_1_3redlinestimulus21.png,TMT_A,3,74,None,2,,,,,,,,,0,2,2,2,0,23,23,23,,,,,,,,,,,,,,,,,,,,,,,1,1,108.94092649999948,,,,,,,,131.92257020000397,None,['1'],1,[0.10047689999919385],131.92257020000397,None,,001,2022_Nov_17_1338,TMT_fmri,2021.2.3,143.87661141982346,
TMTstop-A_1_3.xlsx,52:78,25,['2'],2,TMTstop-A_1_3linestimulus22.png,TMTstop-A_1_3greenlinestimulus22.png,TMTstop-A_1_3redlinestimulus22.png,TMT_A,3,75,None,2,,,,,,,,,0,2,2,2,0,24,24,24,,,,,,,,,,,,,,,,,,,,,,,2,0,109.11561920000531,,,,,,,,132.0637421000065,None,"['3', '2']",1,"[0.09174209999764571, 0.1240722000002279]",132.0637421000065,None,,001,2022_Nov_17_1338,TMT_fmri,2021.2.3,143.87661141982346,
TMTstop-A_1_3.xlsx,52:78,None,None,None,TMTstop-A_1_3linestimulus23.png,TMTstop-A_1_3greenlinestimulus23.png,TMTstop-A_1_3redlinestimulus23.png,TMT_A,3,Feedback_last,None,2,,,,,,,,,0,2,2,2,0,25,25,25,,,,,,,,,,,,,,,,,,,,,,,4,0,,,,,,,,,132.23737450000044,None,"['1', '3', '2', '1']",0,"[0.1016003000040655, 0.22707739999896148, 0.25315019999834476, 0.3859775000018999]",132.23737450000044,None,,001,2022_Nov_17_1338,TMT_fmri,2021.2.3,143.87661141982346,
TMTstop-Control_1_3.xlsx,52:78,1,['2'],2,TMTstop-control_1_3.png,TMTstop-control_1_3.png,TMTstop-control_1_3.png,TMT_Control,3,51,None,1,,,,,,,,,,,,,,,,,0,0,0,0,0,0,0,0,,,,,,,,,,,,,,,2,0,127.14891450000141,146.4090842000005,None,"['3', '2']",1,"[3.733840599998075, 3.810745599999791]",146.4090842000005,None,,,,,,,,,001,2022_Nov_17_1338,TMT_fmri,2021.2.3,143.87661141982346,
TMTstop-Control_1_3.xlsx,52:78,2,['1'],1,TMTstop-control_1_3.png,TMTstop-control_1_3firstgreen.png,TMTstop-control_1_3firstred.png,TMT_Control,3,52,None,1,,,,,,,,,,,,,,,,,0,0,0,0,0,1,1,1,,,,,,,,,,,,,,,1,1,127.2469740000015,150.27168590000656,None,['1'],1,[0.05721449999691686],150.27168590000656,None,,,,,,,,,001,2022_Nov_17_1338,TMT_fmri,2021.2.3,143.87661141982346,
TMTstop-Control_1_3.xlsx,52:78,3,['2'],2,TMTstop-control_1_3linestimulus0.png,TMTstop-control_1_3greenlinestimulus0.png,TMTstop-control_1_3redlinestimulus0.png,TMT_Control,3,53,None,1,,,,,,,,,,,,,,,,,0,0,0,0,0,2,2,2,,,,,,,,,,,,,,,2,0,127.42771670000366,150.36612550000427,None,"['3', '2']",1,"[0.10165479999704985, 0.13099169999622973]",150.36612550000427,None,,,,,,,,,001,2022_Nov_17_1338,TMT_fmri,2021.2.3,143.87661141982346,
TMTstop-Control_1_3.xlsx,52:78,4,['1'],1,TMTstop-control_1_3linestimulus1.png,TMTstop-control_1_3greenlinestimulus1.png,TMTstop-control_1_3redlinestimulus1.png,TMT_Control,3,54,None,1,,,,,,,,,,,,,,,,,0,0,0,0,0,3,3,3,,,,,,,,,,,,,,,1,1,127.5527132999996,150.54844050000247,None,['1'],1,[0.08605720000196015],150.54844050000247,None,,,,,,,,,001,2022_Nov_17_1338,TMT_fmri,2021.2.3,143.87661141982346,
TMTstop-Control_1_3.xlsx,52:78,5,['3'],3,TMTstop-control_1_3linestimulus2.png,TMTstop-control_1_3greenlinestimulus2.png,TMTstop-control_1_3redlinestimulus2.png,TMT_Control,3,55,None,1,,,,,,,,,,,,,,,,,0,0,0,0,0,4,4,4,,,,,,,,,,,,,,,1,1,127.67664810000133,150.67278710000392,None,['3'],1,[0.08572530000674305],150.67278710000392,None,,,,,,,,,001,2022_Nov_17_1338,TMT_fmri,2021.2.3,143.87661141982346,
TMTstop-Control_1_3.xlsx,52:78,6,['1'],1,TMTstop-control_1_3linestimulus3.png,TMTstop-control_1_3greenlinestimulus3.png,TMTstop-control_1_3redlinestimulus3.png,TMT_Control,3,56,None,1,,,,,,,,,,,,,,,,,0,0,0,0,0,5,5,5,,,,,,,,,,,,,,,2,0,127.85753510000359,150.79939550000563,None,"['2', '1']",1,"[-0.014019000002008397, 0.11932209999940824]",150.79939550000563,None,,,,,,,,,001,2022_Nov_17_1338,TMT_fmri,2021.2.3,143.87661141982346,
TMTstop-Control_1_3.xlsx,52:78,7,['2'],2,TMTstop-control_1_3linestimulus4.png,TMTstop-control_1_3greenlinestimulus4.png,TMTstop-control_1_3redlinestimulus4.png,TMT_Control,3,57,None,1,,,,,,,,,,,,,,,,,0,0,0,0,0,6,6,6,,,,,,,,,,,,,,,2,0,128.0306985999996,150.97672690000036,None,"['3', '2']",1,"[0.0991347000017413, 0.12706120000075316]",150.97672690000036,None,,,,,,,,,001,2022_Nov_17_1338,TMT_fmri,2021.2.3,143.87661141982346,
TMTstop-Control_1_3.xlsx,52:78,8,['3'],3,TMTstop-control_1_3linestimulus4.png,TMTstop-control_1_3greenlinestimulus5.png,TMTstop-control_1_3redlinestimulus5.png,TMT_Control,3,58,None,1,,,,,,,,,,,,,,,,,0,0,0,0,0,7,7,7,,,,,,,,,,,,,,,2,0,128.29838450000534,151.15149890000612,None,"['1', '3']",1,"[0.07405149999976857, 0.22173840000323253]",151.15149890000612,None,,,,,,,,,001,2022_Nov_17_1338,TMT_fmri,2021.2.3,143.87661141982346,
TMTstop-Control_1_3.xlsx,52:78,9,['1'],1,TMTstop-control_1_3linestimulus6.png,TMTstop-control_1_3greenlinestimulus6.png,TMTstop-control_1_3redlinestimulus6.png,TMT_Control,3,59,None,1,,,,,,,,,,,,,,,,,0,0,0,0,0,8,8,8,,,,,,,,,,,,,,,2,0,128.44842270000663,151.42083260000072,None,"['2', '1']",1,"[-0.016446100002212916, 0.10682090000045719]",151.42083260000072,None,,,,,,,,,001,2022_Nov_17_1338,TMT_fmri,2021.2.3,143.87661141982346,
TMTstop-Control_1_3.xlsx,52:78,10,['2'],2,TMTstop-control_1_3linestimulus7.png,TMTstop-control_1_3greenlinestimulus7.png,TMTstop-control_1_3redlinestimulus7.png,TMT_Control,3,60,None,1,,,,,,,,,,,,,,,,,0,0,0,0,0,9,9,9,,,,,,,,,,,,,,,2,0,128.59740070000407,151.56820470000093,None,"['3', '2']",1,"[0.06852339999750257, 0.10607850000087637]",151.56820470000093,None,,,,,,,,,001,2022_Nov_17_1338,TMT_fmri,2021.2.3,143.87661141982346,
TMTstop-Control_1_3.xlsx,52:78,11,['1'],1,TMTstop-control_1_3linestimulus8.png,TMTstop-control_1_3greenlinestimulus8.png,TMTstop-control_1_3redlinestimulus8.png,TMT_Control,3,61,None,1,,,,,,,,,,,,,,,,,0,0,0,0,0,10,10,10,,,,,,,,,,,,,,,1,1,128.72301100000186,151.71888200000103,None,['1'],1,[0.08427500000107102],151.71888200000103,None,,,,,,,,,001,2022_Nov_17_1338,TMT_fmri,2021.2.3,143.87661141982346,
TMTstop-Control_1_3.xlsx,52:78,12,['2'],2,TMTstop-control_1_3linestimulus9.png,TMTstop-control_1_3greenlinestimulus9.png,TMTstop-control_1_3redlinestimulus9.png,TMT_Control,3,62,None,1,,,,,,,,,,,,,,,,,0,0,0,0,0,11,11,11,,,,,,,,,,,,,,,2,0,128.87895109999954,151.84509380000236,None,"['3', '2']",1,"[0.07913480000570416, 0.10202399999980116]",151.84509380000236,None,,,,,,,,,001,2022_Nov_17_1338,TMT_fmri,2021.2.3,143.87661141982346,
TMTstop-Control_1_3.xlsx,52:78,13,['3'],3,TMTstop-control_1_3linestimulus10.png,TMTstop-control_1_3greenlinestimulus10.png,TMTstop-control_1_3redlinestimulus10.png,TMT_Control,3,63,None,1,,,,,,,,,,,,,,,,,0,0,0,0,0,12,12,12,,,,,,,,,,,,,,,2,0,129.2013705999998,151.99964510000427,None,"['1', '3']",1,"[0.135566299999482, 0.2515237999978126]",151.99964510000427,None,,,,,,,,,001,2022_Nov_17_1338,TMT_fmri,2021.2.3,143.87661141982346,
TMTstop-Control_1_3.xlsx,52:78,14,['2'],2,TMTstop-control_1_3linestimulus11.png,TMTstop-control_1_3greenlinestimulus11.png,TMTstop-control_1_3redlinestimulus11.png,TMT_Control,3,64,None,1,,,,,,,,,,,,,,,,,0,0,0,0,0,13,13,13,,,,,,,,,,,,,,,1,1,129.23936669999966,152.32058880000113,None,['2'],1,[-0.014902100003382657],152.32058880000113,None,,,,,,,,,001,2022_Nov_17_1338,TMT_fmri,2021.2.3,143.87661141982346,
TMTstop-Control_1_3.xlsx,52:78,15,['1'],1,TMTstop-control_1_3linestimulus12.png,TMTstop-control_1_3greenlinestimulus12.png,TMTstop-control_1_3redlinestimulus12.png,TMT_Control,3,65,None,1,,,,,,,,,,,,,,,,,0,0,0,0,0,14,14,14,,,,,,,,,,,,,,,1,1,129.37066100000084,152.36017990000255,None,['1'],1,[0.08654419999948004],152.36017990000255,None,,,,,,,,,001,2022_Nov_17_1338,TMT_fmri,2021.2.3,143.87661141982346,
TMTstop-Control_1_3.xlsx,52:78,16,['3'],3,TMTstop-control_1_3linestimulus13.png,TMTstop-control_1_3greenlinestimulus13.png,TMTstop-control_1_3redlinestimulus13.png,TMT_Control,3,66,None,1,,,,,,,,,,,,,,,,,0,0,0,0,0,15,15,15,,,,,,,,,,,,,,,1,1,129.48046280000563,152.49277350000193,None,['3'],1,[0.06509010000445414],152.49277350000193,None,,,,,,,,,001,2022_Nov_17_1338,TMT_fmri,2021.2.3,143.87661141982346,
TMTstop-Control_1_3.xlsx,52:78,17,['1'],1,TMTstop-control_1_3linestimulus14.png,TMTstop-control_1_3greenlinestimulus14.png,TMTstop-control_1_3redlinestimulus14.png,TMT_Control,3,67,None,1,,,,,,,,,,,,,,,,,0,0,0,0,0,16,16,16,,,,,,,,,,,,,,,2,0,129.66389329999947,152.60160100000212,None,"['2', '1']",1,"[-0.012821399999666028, 0.13529380000545643]",152.60160100000212,None,,,,,,,,,001,2022_Nov_17_1338,TMT_fmri,2021.2.3,143.87661141982346,
TMTstop-Control_1_3.xlsx,52:78,18,['3'],3,TMTstop-control_1_3linestimulus15.png,TMTstop-control_1_3greenlinestimulus15.png,TMTstop-control_1_3redlinestimulus15.png,TMT_Control,3,68,None,1,,,,,,,,,,,,,,,,,0,0,0,0,0,17,17,17,,,,,,,,,,,,,,,1,1,129.77363750000222,152.78381810000428,None,['3'],1,[0.06866789999912726],152.78381810000428,None,,,,,,,,,001,2022_Nov_17_1338,TMT_fmri,2021.2.3,143.87661141982346,
TMTstop-Control_1_3.xlsx,52:78,19,['2'],2,TMTstop-control_1_3linestimulus16.png,TMTstop-control_1_3greenlinestimulus16.png,TMTstop-control_1_3redlinestimulus16.png,TMT_Control,3,69,None,1,,,,,,,,,,,,,,,,,0,0,0,0,0,18,18,18,,,,,,,,,,,,,,,1,1,129.81380490000447,152.89470120000624,None,['2'],1,[-0.0012052999954903498],152.89470120000624,None,,,,,,,,,001,2022_Nov_17_1338,TMT_fmri,2021.2.3,143.87661141982346,
TMTstop-Control_1_3.xlsx,52:78,20,['1'],1,TMTstop-control_1_3linestimulus17.png,TMTstop-control_1_3greenlinestimulus17.png,TMTstop-control_1_3redlinestimulus17.png,TMT_Control,3,70,None,1,,,,,,,,,,,,,,,,,0,0,0,0,0,19,19,19,,,,,,,,,,,,,,,1,1,129.95667400000093,152.93276400000468,None,['1'],1,[0.10098909999942407],152.93276400000468,None,,,,,,,,,001,2022_Nov_17_1338,TMT_fmri,2021.2.3,143.87661141982346,
TMTstop-Control_1_3.xlsx,52:78,21,['3'],3,TMTstop-control_1_3linestimulus18.png,TMTstop-control_1_3greenlinestimulus18.png,TMTstop-control_1_3redlinestimulus18.png,TMT_Control,3,71,None,1,,,,,,,,,,,,,,,,,0,0,0,0,0,20,20,20,,,,,,,,,,,,,,,1,1,130.0790735000046,153.07636270000512,None,['3'],1,[0.08325289999629604],153.07636270000512,None,,,,,,,,,001,2022_Nov_17_1338,TMT_fmri,2021.2.3,143.87661141982346,
TMTstop-Control_1_3.xlsx,52:78,22,['2'],2,TMTstop-control_1_3linestimulus19.png,TMTstop-control_1_3greenlinestimulus19.png,TMTstop-control_1_3redlinestimulus19.png,TMT_Control,3,72,None,1,,,,,,,,,,,,,,,,,0,0,0,0,0,21,21,21,,,,,,,,,,,,,,,1,1,130.11709650000557,153.19806490000337,None,['2'],1,[-0.014888700003211852],153.19806490000337,None,,,,,,,,,001,2022_Nov_17_1338,TMT_fmri,2021.2.3,143.87661141982346,
TMTstop-Control_1_3.xlsx,52:78,23,['3'],3,TMTstop-control_1_3linestimulus20.png,TMTstop-control_1_3greenlinestimulus20.png,TMTstop-control_1_3redlinestimulus20.png,TMT_Control,3,73,None,1,,,,,,,,,,,,,,,,,0,0,0,0,0,22,22,22,,,,,,,,,,,,,,,5,0,130.69764980000036,153.23595590000332,None,"['1', '3', '2', '1', '3']",1,"[0.10276980000344338, 0.2311143000042648, 0.2526757000014186, 0.4007682000010391, 0.5154142000028514]",153.23595590000332,None,,,,,,,,,001,2022_Nov_17_1338,TMT_fmri,2021.2.3,143.87661141982346,
TMTstop-Control_1_3.xlsx,52:78,24,['1'],1,TMTstop-control_1_3linestimulus21.png,TMTstop-control_1_3greenlinestimulus21.png,TMTstop-control_1_3redlinestimulus21.png,TMT_Control,3,74,None,1,,,,,,,,,,,,,,,,,0,0,0,0,0,23,23,23,,,,,,,,,,,,,,,2,0,130.8776743000053,153.81640600000537,None,"['2', '1']",1,"[-0.02392110000073444, 0.11879720000433736]",153.81640600000537,None,,,,,,,,,001,2022_Nov_17_1338,TMT_fmri,2021.2.3,143.87661141982346,
TMTstop-Control_1_3.xlsx,52:78,25,['2'],2,TMTstop-control_1_3linestimulus22.png,TMTstop-control_1_3greenlinestimulus22.png,TMTstop-control_1_3redlinestimulus22.png,TMT_Control,3,75,None,1,,,,,,,,,,,,,,,,,0,0,0,0,0,24,24,24,,,,,,,,,,,,,,,2,0,131.0096432000064,153.99854540000524,None,"['3', '2']",1,"[0.05070010000054026, 0.08614460000535473]",153.99854540000524,None,,,,,,,,,001,2022_Nov_17_1338,TMT_fmri,2021.2.3,143.87661141982346,
TMTstop-Control_1_3.xlsx,52:78,None,None,None,TMTstop-control_1_3linestimulus23.png,TMTstop-control_1_3greenlinestimulus23.png,TMTstop-control_1_3redlinestimulus23.png,TMT_Control,3,Feedback_last,None,1,,,,,,,,,,,,,,,,,0,0,0,0,0,25,25,25,,,,,,,,,,,,,,,6,0,,154.1305785000004,None,"['1', '3', '2', '1', '3', '2']",0,"[0.09275220000563422, 0.21560000000317814, 0.2356694000045536, 0.37182559999928344, 0.5006400000056601, 0.5706676000045263]",154.1305785000004,None,,,,,,,,,001,2022_Nov_17_1338,TMT_fmri,2021.2.3,143.87661141982346,
TMTstop-Control_1_4.xlsx,78:104,1,['2'],2,TMTstop-control_1_4.png,TMTstop-control_1_4.png,TMTstop-control_1_4.png,TMT_Control,4,76,None,1,,,,,,,,,,,,,,,,,0,1,1,1,0,0,0,0,,,,,,,,,,,,,,,2,0,135.62985440000193,158.25943490000645,None,"['3', '2']",1,"[0.36072759999660775, 0.4291425999981584]",158.25943490000645,None,,,,,,,,,001,2022_Nov_17_1338,TMT_fmri,2021.2.3,143.87661141982346,
TMTstop-Control_1_4.xlsx,78:104,2,['1'],1,TMTstop-control_1_4.png,TMTstop-control_1_4firstgreen.png,TMTstop-control_1_4firstred.png,TMT_Control,4,77,None,1,,,,,,,,,,,,,,,,,0,1,1,1,0,1,1,1,,,,,,,,,,,,,,,3,0,135.96028090000618,158.75157310000213,None,"['3', '2', '1']",1,"[0.14456950000021607, 0.17604059999575838, 0.2674750999940443]",158.75157310000213,None,,,,,,,,,001,2022_Nov_17_1338,TMT_fmri,2021.2.3,143.87661141982346,
TMTstop-Control_1_4.xlsx,78:104,3,['3'],3,TMTstop-control_1_4linestimulus0.png,TMTstop-control_1_4greenlinestimulus0.png,TMTstop-control_1_4redlinestimulus0.png,TMT_Control,4,78,None,1,,,,,,,,,,,,,,,,,0,1,1,1,0,2,2,2,,,,,,,,,,,,,,,1,1,136.05211690000579,159.07725380000193,None,['3'],1,[0.05181540000194218],159.07725380000193,None,,,,,,,,,001,2022_Nov_17_1338,TMT_fmri,2021.2.3,143.87661141982346,
TMTstop-Control_1_4.xlsx,78:104,4,['1'],1,TMTstop-control_1_4linestimulus1.png,TMTstop-control_1_4greenlinestimulus1.png,TMTstop-control_1_4redlinestimulus1.png,TMT_Control,4,79,None,1,,,,,,,,,,,,,,,,,0,1,1,1,0,3,3,3,,,,,,,,,,,,,,,2,0,136.21811340000568,159.17331790000026,None,"['2', '1']",1,"[0.013143500000296626, 0.09032409999781521]",159.17331790000026,None,,,,,,,,,001,2022_Nov_17_1338,TMT_fmri,2021.2.3,143.87661141982346,
TMTstop-Control_1_4.xlsx,78:104,5,['3'],3,TMTstop-control_1_4linestimulus2.png,TMTstop-control_1_4greenlinestimulus2.png,TMTstop-control_1_4redlinestimulus2.png,TMT_Control,4,80,None,1,,,,,,,,,,,,,,,,,0,1,1,1,0,4,4,4,,,,,,,,,,,,,,,1,1,136.3008220000047,159.33898469999986,None,['3'],1,[0.038737000002583954],159.33898469999986,None,,,,,,,,,001,2022_Nov_17_1338,TMT_fmri,2021.2.3,143.87661141982346,
TMTstop-Control_1_4.xlsx,78:104,6,['1'],1,TMTstop-control_1_4linestimulus3.png,TMTstop-control_1_4greenlinestimulus3.png,TMTstop-control_1_4redlinestimulus3.png,TMT_Control,4,81,None,1,,,,,,,,,,,,,,,,,0,1,1,1,0,5,5,5,,,,,,,,,,,,,,,2,0,136.4318704000034,159.41964569999982,None,"['2', '1']",1,"[0.053207999997539446, 0.09283549999963725]",159.41964569999982,None,,,,,,,,,001,2022_Nov_17_1338,TMT_fmri,2021.2.3,143.87661141982346,
TMTstop-Control_1_4.xlsx,78:104,7,['3'],3,TMTstop-control_1_4linestimulus4.png,TMTstop-control_1_4greenlinestimulus4.png,TMTstop-control_1_4redlinestimulus4.png,TMT_Control,4,82,None,1,,,,,,,,,,,,,,,,,0,1,1,1,0,6,6,6,,,,,,,,,,,,,,,1,1,136.5564583000014,159.5512405000045,None,['3'],1,[0.08365570000023581],159.5512405000045,None,,,,,,,,,001,2022_Nov_17_1338,TMT_fmri,2021.2.3,143.87661141982346,
TMTstop-Control_1_4.xlsx,78:104,8,['1'],1,TMTstop-control_1_4linestimulus4.png,TMTstop-control_1_4greenlinestimulus5.png,TMTstop-control_1_4redlinestimulus5.png,TMT_Control,4,83,None,1,,,,,,,,,,,,,,,,,0,1,1,1,0,7,7,7,,,,,,,,,,,,,,,2,0,136.71618560000206,159.6776852000039,None,"['2', '1']",1,"[0.00834440000471659, 0.08580739999888465]",159.6776852000039,None,,,,,,,,,001,2022_Nov_17_1338,TMT_fmri,2021.2.3,143.87661141982346,
TMTstop-Control_1_4.xlsx,78:104,9,['3'],3,TMTstop-control_1_4linestimulus6.png,TMTstop-control_1_4greenlinestimulus6.png,TMTstop-control_1_4redlinestimulus6.png,TMT_Control,4,84,None,1,,,,,,,,,,,,,,,,,0,1,1,1,0,8,8,8,,,,,,,,,,,,,,,1,1,136.81218800000352,159.83686110000417,None,['3'],1,[0.05093250000209082],159.83686110000417,None,,,,,,,,,001,2022_Nov_17_1338,TMT_fmri,2021.2.3,143.87661141982346,
TMTstop-Control_1_4.xlsx,78:104,10,['2'],2,TMTstop-control_1_4linestimulus7.png,TMTstop-control_1_4greenlinestimulus7.png,TMTstop-control_1_4redlinestimulus7.png,TMT_Control,4,85,None,1,,,,,,,,,,,,,,,,,0,1,1,1,0,9,9,9,,,,,,,,,,,,,,,1,1,136.84956430000602,159.93012020000606,None,['2'],1,[-0.006639899998845067],159.93012020000606,None,,,,,,,,,001,2022_Nov_17_1338,TMT_fmri,2021.2.3,143.87661141982346,
TMTstop-Control_1_4.xlsx,78:104,11,['1'],1,TMTstop-control_1_4linestimulus8.png,TMTstop-control_1_4greenlinestimulus8.png,TMTstop-control_1_4redlinestimulus8.png,TMT_Control,4,86,None,1,,,,,,,,,,,,,,,,,0,1,1,1,0,10,10,10,,,,,,,,,,,,,,,1,1,136.9489634000056,159.96852670000226,None,['1'],1,[0.05811119999998482],159.96852670000226,None,,,,,,,,,001,2022_Nov_17_1338,TMT_fmri,2021.2.3,143.87661141982346,
TMTstop-Control_1_4.xlsx,78:104,12,['3'],3,TMTstop-control_1_4linestimulus9.png,TMTstop-control_1_4greenlinestimulus9.png,TMTstop-control_1_4redlinestimulus9.png,TMT_Control,4,87,None,1,,,,,,,,,,,,,,,,,0,1,1,1,0,11,11,11,,,,,,,,,,,,,,,1,1,137.07224720000522,160.06811670000025,None,['3'],1,[0.08526480000000447],160.06811670000025,None,,,,,,,,,001,2022_Nov_17_1338,TMT_fmri,2021.2.3,143.87661141982346,
TMTstop-Control_1_4.xlsx,78:104,13,['2'],2,TMTstop-control_1_4linestimulus10.png,TMTstop-control_1_4greenlinestimulus10.png,TMTstop-control_1_4redlinestimulus10.png,TMT_Control,4,88,None,1,,,,,,,,,,,,,,,,,0,1,1,1,0,12,12,12,,,,,,,,,,,,,,,1,1,137.12823980000394,160.19506879999972,None,['2'],1,[0.014501099998597056],160.19506879999972,None,,,,,,,,,001,2022_Nov_17_1338,TMT_fmri,2021.2.3,143.87661141982346,
TMTstop-Control_1_4.xlsx,78:104,14,['3'],3,TMTstop-control_1_4linestimulus11.png,TMTstop-control_1_4greenlinestimulus11.png,TMTstop-control_1_4redlinestimulus11.png,TMT_Control,4,89,None,1,,,,,,,,,,,,,,,,,0,1,1,1,0,13,13,13,,,,,,,,,,,,,,,2,0,137.34824170000502,160.24944650000543,None,"['1', '3']",1,"[0.06671479999931762, 0.18075400000088848]",160.24944650000543,None,,,,,,,,,001,2022_Nov_17_1338,TMT_fmri,2021.2.3,143.87661141982346,
TMTstop-Control_1_4.xlsx,78:104,15,['2'],2,TMTstop-control_1_4linestimulus12.png,TMTstop-control_1_4greenlinestimulus12.png,TMTstop-control_1_4redlinestimulus12.png,TMT_Control,4,90,None,1,,,,,,,,,,,,,,,,,0,1,1,1,0,14,14,14,,,,,,,,,,,,,,,1,1,137.4223975000059,160.46725210000295,None,['2'],1,[0.03612799999973504],160.46725210000295,None,,,,,,,,,001,2022_Nov_17_1338,TMT_fmri,2021.2.3,143.87661141982346,
TMTstop-Control_1_4.xlsx,78:104,16,['1'],1,TMTstop-control_1_4linestimulus13.png,TMTstop-control_1_4greenlinestimulus13.png,TMTstop-control_1_4redlinestimulus13.png,TMT_Control,4,91,None,1,,,,,,,,,,,,,,,,,0,1,1,1,0,15,15,15,,,,,,,,,,,,,,,1,1,137.51634449999983,160.54111070000363,None,['1'],1,[0.050836599999456666],160.54111070000363,None,,,,,,,,,001,2022_Nov_17_1338,TMT_fmri,2021.2.3,143.87661141982346,
TMTstop-Control_1_4.xlsx,78:104,17,['3'],3,TMTstop-control_1_4linestimulus14.png,TMTstop-control_1_4greenlinestimulus14.png,TMTstop-control_1_4redlinestimulus14.png,TMT_Control,4,92,None,1,,,,,,,,,,,,,,,,,0,1,1,1,0,16,16,16,,,,,,,,,,,,,,,1,1,137.6480057000008,160.63516000000527,None,['3'],1,[0.09384660000068834],160.63516000000527,None,,,,,,,,,001,2022_Nov_17_1338,TMT_fmri,2021.2.3,143.87661141982346,
TMTstop-Control_1_4.xlsx,78:104,18,['1'],1,TMTstop-control_1_4linestimulus15.png,TMTstop-control_1_4greenlinestimulus15.png,TMTstop-control_1_4redlinestimulus15.png,TMT_Control,4,93,None,1,,,,,,,,,,,,,,,,,0,1,1,1,0,17,17,17,,,,,,,,,,,,,,,2,0,137.80101819999982,160.77131740000186,None,"['2', '1']",1,"[-0.02591690000554081, 0.10437509999610484]",160.77131740000186,None,,,,,,,,,001,2022_Nov_17_1338,TMT_fmri,2021.2.3,143.87661141982346,
TMTstop-Control_1_4.xlsx,78:104,19,['2'],2,TMTstop-control_1_4linestimulus16.png,TMTstop-control_1_4greenlinestimulus16.png,TMTstop-control_1_4redlinestimulus16.png,TMT_Control,4,94,None,1,,,,,,,,,,,,,,,,,0,1,1,1,0,18,18,18,,,,,,,,,,,,,,,2,0,138.0384308000066,160.921831700005,None,"['3', '2']",1,"[0.09070830000564456, 0.18689990000711987]",160.921831700005,None,,,,,,,,,001,2022_Nov_17_1338,TMT_fmri,2021.2.3,143.87661141982346,
TMTstop-Control_1_4.xlsx,78:104,20,['1'],1,TMTstop-control_1_4linestimulus17.png,TMTstop-control_1_4greenlinestimulus17.png,TMTstop-control_1_4redlinestimulus17.png,TMT_Control,4,95,None,1,,,,,,,,,,,,,,,,,0,1,1,1,0,19,19,19,,,,,,,,,,,,,,,1,1,138.1185642000055,161.1572079000034,None,['1'],1,[0.03745820000040112],161.1572079000034,None,,,,,,,,,001,2022_Nov_17_1338,TMT_fmri,2021.2.3,143.87661141982346,
TMTstop-Control_1_4.xlsx,78:104,21,['2'],2,TMTstop-control_1_4linestimulus18.png,TMTstop-control_1_4greenlinestimulus18.png,TMTstop-control_1_4redlinestimulus18.png,TMT_Control,4,96,None,1,,,,,,,,,,,,,,,,,0,1,1,1,0,20,20,20,,,,,,,,,,,,,,,2,0,138.31998230000318,161.24154690000432,None,"['3', '2']",1,"[0.08077509999566246, 0.15906790000008186]",161.24154690000432,None,,,,,,,,,001,2022_Nov_17_1338,TMT_fmri,2021.2.3,143.87661141982346,
TMTstop-Control_1_4.xlsx,78:104,22,['1'],1,TMTstop-control_1_4linestimulus19.png,TMTstop-control_1_4greenlinestimulus19.png,TMTstop-control_1_4redlinestimulus19.png,TMT_Control,4,97,None,1,,,,,,,,,,,,,,,,,0,1,1,1,0,21,21,21,,,,,,,,,,,,,,,1,1,138.40897250000125,161.4406078000029,None,['1'],1,[0.05015370000182884],161.4406078000029,None,,,,,,,,,001,2022_Nov_17_1338,TMT_fmri,2021.2.3,143.87661141982346,
TMTstop-Control_1_4.xlsx,78:104,23,['2'],2,TMTstop-control_1_4linestimulus20.png,TMTstop-control_1_4greenlinestimulus20.png,TMTstop-control_1_4redlinestimulus20.png,TMT_Control,4,98,None,1,,,,,,,,,,,,,,,,,0,1,1,1,0,22,22,22,,,,,,,,,,,,,,,2,0,138.61686490000284,161.53098730000056,None,"['3', '2']",1,"[0.09607539999706205, 0.15689199999906123]",161.53098730000056,None,,,,,,,,,001,2022_Nov_17_1338,TMT_fmri,2021.2.3,143.87661141982346,
TMTstop-Control_1_4.xlsx,78:104,24,['1'],1,TMTstop-control_1_4linestimulus21.png,TMTstop-control_1_4greenlinestimulus21.png,TMTstop-control_1_4redlinestimulus21.png,TMT_Control,4,99,None,1,,,,,,,,,,,,,,,,,0,1,1,1,0,23,23,23,,,,,,,,,,,,,,,1,1,138.70584910000616,161.73715150000498,None,['1'],1,[0.0509509000039543],161.73715150000498,None,,,,,,,,,001,2022_Nov_17_1338,TMT_fmri,2021.2.3,143.87661141982346,
TMTstop-Control_1_4.xlsx,78:104,25,['2'],2,TMTstop-control_1_4linestimulus22.png,TMTstop-control_1_4greenlinestimulus22.png,TMTstop-control_1_4redlinestimulus22.png,TMT_Control,4,100,None,1,,,,,,,,,,,,,,,,,0,1,1,1,0,24,24,24,,,,,,,,,,,,,,,2,0,138.88284070000373,161.82486770000105,None,"['3', '2']",1,"[0.09835130000283243, 0.12455249999766238]",161.82486770000105,None,,,,,,,,,001,2022_Nov_17_1338,TMT_fmri,2021.2.3,143.87661141982346,
TMTstop-Control_1_4.xlsx,78:104,None,None,None,TMTstop-control_1_4linestimulus23.png,TMTstop-control_1_4greenlinestimulus23.png,TMTstop-control_1_4redlinestimulus23.png,TMT_Control,4,Feedback_last,None,1,,,,,,,,,,,,,,,,,0,1,1,1,0,25,25,25,,,,,,,,,,,,,,,4,0,,162.004471500004,None,"['1', '3', '2', '1']",0,"[0.08644959999946877, 0.1929556999966735, 0.22532520000095246, 0.3443362999969395]",162.004471500004,None,,,,,,,,,001,2022_Nov_17_1338,TMT_fmri,2021.2.3,143.87661141982346,
TMTstop-B_1_1.xlsx,0:26,1,['3'],3,TMTstop-B_1_1.png,TMTstop-B_1_1.png,TMTstop-B_1_1.png,TMT_B,1,1,1,3,,,,,,,,,,,,,,,,,,,,,,,,,0,0,0,0,0,0,0,0,,,,,,,1,1,160.31526740000118,,,,,,,,176.17105400000582,None,['3'],1,[7.224397500001942],176.17105400000582,None,,001,2022_Nov_17_1338,TMT_fmri,2021.2.3,143.87661141982346,
TMTstop-B_1_1.xlsx,0:26,A,['1'],1,TMTstop-B_1_1.png,TMTstop-B_1_1firstgreen.png,TMTstop-B_1_1firstred.png,TMT_B,1,2,None,3,,,,,,,,,,,,,,,,,,,,,,,,,0,0,0,0,0,1,1,1,,,,,,,1,1,161.2740255000026,,,,,,,,183.43312460000016,None,['1'],1,[0.9226223999939975],183.43312460000016,None,,001,2022_Nov_17_1338,TMT_fmri,2021.2.3,143.87661141982346,
TMTstop-B_1_1.xlsx,0:26,2,['3'],3,TMTstop-B_1_1linestimulus0.png,TMTstop-B_1_1greenlinestimulus0.png,TMTstop-B_1_1redlinestimulus0.png,TMT_B,1,3,None,3,,,,,,,,,,,,,,,,,,,,,,,,,0,0,0,0,0,2,2,2,,,,,,,1,1,162.5525775999995,,,,,,,,184.3919636999999,None,['3'],1,[1.2423448999979883],184.3919636999999,None,,001,2022_Nov_17_1338,TMT_fmri,2021.2.3,143.87661141982346,
TMTstop-B_1_1.xlsx,0:26,B,['2'],2,TMTstop-B_1_1linestimulus1.png,TMTstop-B_1_1greenlinestimulus1.png,TMTstop-B_1_1redlinestimulus1.png,TMT_B,1,4,None,3,,,,,,,,,,,,,,,,,,,,,,,,,0,0,0,0,0,3,3,3,,,,,,,1,1,163.39641710000433,,,,,,,,185.67328880000423,None,['2'],1,[0.7989545999953407],185.67328880000423,None,,001,2022_Nov_17_1338,TMT_fmri,2021.2.3,143.87661141982346,
TMTstop-B_1_1.xlsx,0:26,3,['1'],1,TMTstop-B_1_1linestimulus2.png,TMTstop-B_1_1greenlinestimulus2.png,TMTstop-B_1_1redlinestimulus2.png,TMT_B,1,5,None,3,,,,,,,,,,,,,,,,,,,,,,,,,0,0,0,0,0,4,4,4,,,,,,,1,1,164.35931020000135,,,,,,,,186.51692020000337,None,['1'],1,[0.9245940999971936],186.51692020000337,None,,001,2022_Nov_17_1338,TMT_fmri,2021.2.3,143.87661141982346,
TMTstop-B_1_1.xlsx,0:26,C,['3'],3,TMTstop-B_1_1linestimulus3.png,TMTstop-B_1_1greenlinestimulus3.png,TMTstop-B_1_1redlinestimulus3.png,TMT_B,1,6,None,3,,,,,,,,,,,,,,,,,,,,,,,,,0,0,0,0,0,5,5,5,,,,,,,1,1,165.50119960000302,,,,,,,,187.47847390000243,None,['3'],1,[1.098195600003237],187.47847390000243,None,,001,2022_Nov_17_1338,TMT_fmri,2021.2.3,143.87661141982346,
TMTstop-B_1_1.xlsx,0:26,4,['2'],2,TMTstop-B_1_1linestimulus4.png,TMTstop-B_1_1greenlinestimulus4.png,TMTstop-B_1_1redlinestimulus4.png,TMT_B,1,7,None,3,,,,,,,,,,,,,,,,,,,,,,,,,0,0,0,0,0,6,6,6,,,,,,,1,1,166.54544780000288,,,,,,,,188.62106940000376,None,['2'],1,[1.0063833000021987],188.62106940000376,None,,001,2022_Nov_17_1338,TMT_fmri,2021.2.3,143.87661141982346,
TMTstop-B_1_1.xlsx,0:26,D,['1'],1,TMTstop-B_1_1linestimulus5.png,TMTstop-B_1_1greenlinestimulus5.png,TMTstop-B_1_1redlinestimulus5.png,TMT_B,1,8,None,3,,,,,,,,,,,,,,,,,,,,,,,,,0,0,0,0,0,7,7,7,,,,,,,1,1,168.4869278000042,,,,,,,,189.664574800001,None,['1'],1,[1.8976697999969474],189.664574800001,None,,001,2022_Nov_17_1338,TMT_fmri,2021.2.3,143.87661141982346,
TMTstop-B_1_1.xlsx,0:26,5,['3'],3,TMTstop-B_1_1linestimulus6.png,TMTstop-B_1_1greenlinestimulus6.png,TMTstop-B_1_1redlinestimulus6.png,TMT_B,1,9,None,3,,,,,,,,,,,,,,,,,,,,,,,,,0,0,0,0,0,8,8,8,,,,,,,1,1,186.75600330000452,,,,,,,,191.6054332000058,None,['3'],1,[18.22608390000096],191.6054332000058,None,,001,2022_Nov_17_1338,TMT_fmri,2021.2.3,143.87661141982346,
TMTstop-B_1_1.xlsx,0:26,E,['1'],1,TMTstop-B_1_1linestimulus7.png,TMTstop-B_1_1greenlinestimulus7.png,TMTstop-B_1_1redlinestimulus7.png,TMT_B,1,10,None,3,,,,,,,,,,,,,,,,,,,,,,,,,0,0,0,0,0,9,9,9,,,,,,,1,1,188.76331030000438,,,,,,,,209.89646310000535,None,['1'],1,[1.9436614000005648],209.89646310000535,None,,001,2022_Nov_17_1338,TMT_fmri,2021.2.3,143.87661141982346,
TMTstop-B_1_1.xlsx,0:26,6,['3'],3,TMTstop-B_1_1linestimulus8.png,TMTstop-B_1_1greenlinestimulus8.png,TMTstop-B_1_1redlinestimulus8.png,TMT_B,1,11,None,3,,,,,,,,,,,,,,,,,,,,,,,,,0,0,0,0,0,10,10,10,,,,,,,1,1,189.8218721000012,,,,,,,,211.88717540000653,None,['3'],1,[1.0120638000007602],211.88717540000653,None,,001,2022_Nov_17_1338,TMT_fmri,2021.2.3,143.87661141982346,
TMTstop-B_1_1.xlsx,0:26,F,['1'],1,TMTstop-B_1_1linestimulus9.png,TMTstop-B_1_1greenlinestimulus9.png,TMTstop-B_1_1redlinestimulus9.png,TMT_B,1,12,None,3,,,,,,,,,,,,,,,,,,,,,,,,,0,0,0,0,0,11,11,11,,,,,,,1,1,190.53084110000054,,,,,,,,212.94357200000377,None,['1'],1,[0.662879299998167],212.94357200000377,None,,001,2022_Nov_17_1338,TMT_fmri,2021.2.3,143.87661141982346,
,,,,,,,,,,,,,,,,,,,,,,,,,,,,,,,,,,,,,,,,,,,,,,,,,,,0,0,,,,,,,,,,,,,,,,,,,,,,
