NumberLetter,corrAns,Correct,StimFile,Correct_StimFile,False_StimFile,Version,Paper,TrialNumber_Version,Round,Block,n,Stim.started_mean,Stim.started_raw,Stim.started_std,Stim.stopped_raw,key_resp_2.corr_mean,key_resp_2.corr_raw,key_resp_2.corr_std,key_resp_2.keys_raw,key_resp_2.rt_raw,key_resp_2.started_mean,key_resp_2.started_raw,key_resp_2.started_std,key_resp_2.stopped_raw,order
1,['2'],2,TMTstop-A_1_4.png,TMTstop-A_1_4.png,TMTstop-A_1_4.png,TMT_A,4,76,2,5,1.0,218.13970947265625,218.13970947265625,0.0,,1.0,1.0,0.0,1,2,0.8445328000016161,0.908009700004186,218.13970947265625,218.13970947265625,0.0,,0.0
2,['3'],3,TMTstop-A_1_4.png,TMTstop-A_1_4firstgreen.png,TMTstop-A_1_4firstred.png,TMT_A,4,77,None,5,1.0,219.14935302734375,219.14935302734375,0.0,,1.0,1.0,0.0,3,0.009675000001152512,219.14935302734375,219.14935302734375,0.0,,1.0
3,['1'],1,TMTstop-A_1_4linestimulus0.png,TMTstop-A_1_4greenlinestimulus0.png,TMTstop-A_1_4redlinestimulus0.png,TMT_A,4,78,None,5,1.0,219.24017333984375,219.24017333984375,0.0,,1.0,1.0,0.0,1,0.09042309999495046,219.24017333984375,219.24017333984375,0.0,,2.0
4,['3'],3,TMTstop-A_1_4linestimulus1.png,TMTstop-A_1_4greenlinestimulus1.png,TMTstop-A_1_4redlinestimulus1.png,TMT_A,4,79,None,5,1.0,219.39039611816406,219.39039611816406,0.0,,1.0,1.0,0.0,2,3,-0.02683400000387337,0.1175643999958993,219.39039611816406,219.39039611816406,0.0,,3.0
5,['2'],2,TMTstop-A_1_4linestimulus2.png,TMTstop-A_1_4greenlinestimulus2.png,TMTstop-A_1_4redlinestimulus2.png,TMT_A,4,80,None,5,1.0,219.58755493164062,219.58755493164062,0.0,,1.0,1.0,0.0,1,2,0.0973738000029698,0.10784680000506341,219.58755493164062,219.58755493164062,0.0,,4.0
6,['1'],1,TMTstop-A_1_4linestimulus3.png,TMTstop-A_1_4greenlinestimulus3.png,TMTstop-A_1_4redlinestimulus3.png,TMT_A,4,81,None,5,1.0,219.7877960205078,219.7877960205078,0.0,,1.0,1.0,0.0,1,0.7095831999977236,219.7877960205078,219.7877960205078,0.0,,5.0
7,['2'],2,TMTstop-A_1_4linestimulus4.png,TMTstop-A_1_4greenlinestimulus4.png,TMTstop-A_1_4redlinestimulus4.png,TMT_A,4,82,None,5,1.0,220.5631561279297,220.5631561279297,0.0,,1.0,1.0,0.0,2,-0.0325924999997369,220.5631561279297,220.5631561279297,0.0,,6.0
8,['1'],1,TMTstop-A_1_4linestimulus5.png,TMTstop-A_1_4greenlinestimulus5.png,TMTstop-A_1_4redlinestimulus5.png,TMT_A,4,83,None,5,1.0,220.61317443847656,220.61317443847656,0.0,,1.0,1.0,0.0,3,1,0.19957769999746233,0.28691459999390645,220.61317443847656,220.61317443847656,0.0,,7.0
9,['3'],3,TMTstop-A_1_4linestimulus6.png,TMTstop-A_1_4greenlinestimulus6.png,TMTstop-A_1_4redlinestimulus6.png,TMT_A,4,84,None,5,1.0,220.95379638671875,220.95379638671875,0.0,,1.0,1.0,0.0,2,1,2,3,0.03289829999994254,0.5205507999999099,0.5801204000017606,0.7883789999978035,220.95379638671875,220.95379638671875,0.0,,8.0
10,['2'],2,TMTstop-A_1_4linestimulus7.png,TMTstop-A_1_4greenlinestimulus7.png,TMTstop-A_1_4redlinestimulus7.png,TMT_A,4,85,None,5,1.0,221.82382202148438,221.82382202148438,0.0,,1.0,1.0,0.0,1,2,0.2024643999975524,0.21647599999414524,221.82382202148438,221.82382202148438,0.0,,9.0
11,['3'],3,TMTstop-A_1_4linestimulus8.png,TMTstop-A_1_4greenlinestimulus8.png,TMTstop-A_1_4redlinestimulus8.png,TMT_A,4,86,None,5,1.0,222.09852600097656,222.09852600097656,0.0,,1.0,1.0,0.0,3,0.13298309999663616,222.09852600097656,222.09852600097656,0.0,,10.0
12,['1'],1,TMTstop-A_1_4linestimulus9.png,TMTstop-A_1_4greenlinestimulus9.png,TMTstop-A_1_4redlinestimulus9.png,TMT_A,4,87,None,5,1.0,222.28941345214844,222.28941345214844,0.0,,1.0,1.0,0.0,1,0.13148760000331094,222.28941345214844,222.28941345214844,0.0,,11.0
13,['3'],3,TMTstop-A_1_4linestimulus10.png,TMTstop-A_1_4greenlinestimulus10.png,TMTstop-A_1_4redlinestimulus10.png,TMT_A,4,88,None,5,1.0,222.48095703125,222.48095703125,0.0,,1.0,1.0,0.0,2,3,-0.011811599993961863,0.1725644000034663,222.48095703125,222.48095703125,0.0,,12.0
14,['1'],1,TMTstop-A_1_4linestimulus11.png,TMTstop-A_1_4greenlinestimulus11.png,TMTstop-A_1_4redlinestimulus11.png,TMT_A,4,89,None,5,1.0,222.74322509765625,222.74322509765625,0.0,,1.0,1.0,0.0,1,0.0230160999999498,222.74322509765625,222.74322509765625,0.0,,13.0
15,['2'],2,TMTstop-A_1_4linestimulus12.png,TMTstop-A_1_4greenlinestimulus12.png,TMTstop-A_1_4redlinestimulus12.png,TMT_A,4,90,None,5,1.0,222.84393310546875,222.84393310546875,0.0,,1.0,1.0,0.0,2,-0.04381079999438953,222.84393310546875,222.84393310546875,0.0,,14.0
16,['1'],1,TMTstop-A_1_4linestimulus13.png,TMTstop-A_1_4greenlinestimulus13.png,TMTstop-A_1_4redlinestimulus13.png,TMT_A,4,91,None,5,1.0,222.8939971923828,222.8939971923828,0.0,,1.0,1.0,0.0,2,1,0.2652204999976675,0.5307635999997729,222.8939971923828,222.8939971923828,0.0,,15.0
17,['3'],3,TMTstop-A_1_4linestimulus14.png,TMTstop-A_1_4greenlinestimulus14.png,TMTstop-A_1_4redlinestimulus14.png,TMT_A,4,92,None,5,1.0,223.51466369628906,223.51466369628906,0.0,,1.0,1.0,0.0,2,3,0.01690229999803705,0.1182730000000447,223.51466369628906,223.51466369628906,0.0,,16.0
18,['2'],2,TMTstop-A_1_4linestimulus15.png,TMTstop-A_1_4greenlinestimulus15.png,TMTstop-A_1_4redlinestimulus15.png,TMT_A,4,93,None,5,1.0,223.6876983642578,223.6876983642578,0.0,,1.0,1.0,0.0,1,2,0.23361610000574728,0.27896529999998165,223.6876983642578,223.6876983642578,0.0,,17.0
19,['3'],3,TMTstop-A_1_4linestimulus16.png,TMTstop-A_1_4greenlinestimulus16.png,TMTstop-A_1_4redlinestimulus16.png,TMT_A,4,94,None,5,1.0,224.0284423828125,224.0284423828125,0.0,,1.0,1.0,0.0,3,0.15681129999575205,224.0284423828125,224.0284423828125,0.0,,18.0
20,['2'],2,TMTstop-A_1_4linestimulus17.png,TMTstop-A_1_4greenlinestimulus17.png,TMTstop-A_1_4redlinestimulus17.png,TMT_A,4,95,None,5,1.0,224.253173828125,224.253173828125,0.0,,1.0,1.0,0.0,1,2,0.09126999999716645,0.14337890000024345,224.253173828125,224.253173828125,0.0,,19.0
21,['1'],1,TMTstop-A_1_4linestimulus18.png,TMTstop-A_1_4greenlinestimulus18.png,TMTstop-A_1_4redlinestimulus18.png,TMT_A,4,96,None,5,1.0,224.4605712890625,224.4605712890625,0.0,,1.0,1.0,0.0,3,1,2,3,1,0.13453329999902053,0.5151151999962167,0.5390562999964459,0.7574725999947987,1.4833688999933656,224.4605712890625,224.4605712890625,0.0,,20.0
22,['3'],3,TMTstop-A_1_4linestimulus19.png,TMTstop-A_1_4greenlinestimulus19.png,TMTstop-A_1_4redlinestimulus19.png,TMT_A,4,97,None,5,1.0,226.0060272216797,226.0060272216797,0.0,,1.0,1.0,0.0,2,1,2,3,-0.03431629999977304,0.5022765000030631,0.5681714000020293,0.7008128000015859,226.0060272216797,226.0060272216797,0.0,,21.0
23,['1'],1,TMTstop-A_1_4linestimulus20.png,TMTstop-A_1_4greenlinestimulus20.png,TMTstop-A_1_4redlinestimulus20.png,TMT_A,4,98,None,5,1.0,226.76304626464844,226.76304626464844,0.0,,1.0,1.0,0.0,1,0.2883505000063451,226.76304626464844,226.76304626464844,0.0,,22.0
24,['2'],2,TMTstop-A_1_4linestimulus21.png,TMTstop-A_1_4greenlinestimulus21.png,TMTstop-A_1_4redlinestimulus21.png,TMT_A,4,99,None,5,1.0,227.1223602294922,227.1223602294922,0.0,,1.0,1.0,0.0,2,-0.02196410000033211,227.1223602294922,227.1223602294922,0.0,,23.0
25,['3'],3,TMTstop-A_1_4linestimulus22.png,TMTstop-A_1_4greenlinestimulus22.png,TMTstop-A_1_4redlinestimulus22.png,TMT_A,4,100,None,5,1.0,227.17257690429688,227.17257690429688,0.0,,1.0,1.0,0.0,3,0.07416200000443496,227.17257690429688,227.17257690429688,0.0,,24.0
None,None,None,TMTstop-A_1_4linestimulus23.png,TMTstop-A_1_4greenlinestimulus23.png,TMTstop-A_1_4redlinestimulus23.png,TMT_A,4,Feedback_last,None,5,1.0,227.30613708496094,227.30613708496094,0.0,,0.0,0.0,0.0,1,2,3,1,2,0.11525989999790909,0.15766729999450035,0.32507859999896027,0.4856482999966829,0.5355319999944186,227.30613708496094,227.30613708496094,0.0,,25.0

extraInfo
participant,
session,001
date,2022_May_23_1222
expName,TMT_fmri
psychopyVersion,2021.2.3
frameRate,59.98821831237917
﻿NumberLetter,corrAns,Correct,StimFile,Correct_StimFile,False_StimFile,Version,Paper,TrialNumber_Version,Round,Block,n,Stim.started_mean,Stim.started_raw,Stim.started_std,Stim.stopped_raw,key_resp_2.corr_mean,key_resp_2.corr_raw,key_resp_2.corr_std,key_resp_2.keys_raw,key_resp_2.rt_raw,key_resp_2.started_mean,key_resp_2.started_raw,key_resp_2.started_std,key_resp_2.stopped_raw,order
1,['2'],2,TMTstop-A_1_5.png,TMTstop-A_1_5.png,TMTstop-A_1_5.png,TMT_A,5,101,None,5,1.0,231.43807983398438,231.43807983398438,0.0,,1.0,1.0,0.0,1,2,0.527844999996887,0.6196288999999524,231.43807983398438,231.43807983398438,0.0,,0.0
2,['1'],1,TMTstop-A_1_5.png,TMTstop-A_1_5firstgreen.png,TMTstop-A_1_5firstred.png,TMT_A,5,102,None,5,1.0,232.13360595703125,232.13360595703125,0.0,,1.0,1.0,0.0,3,1,0.056316900001547765,0.22370029999729013,232.13360595703125,232.13360595703125,0.0,,1.0
3,['3'],3,TMTstop-A_1_5linestimulus0.png,TMTstop-A_1_5greenlinestimulus0.png,TMTstop-A_1_5redlinestimulus0.png,TMT_A,5,103,None,5,1.0,232.42617797851562,232.42617797851562,0.0,,1.0,1.0,0.0,2,3,-0.023138800002925564,0.13528999999834923,232.42617797851562,232.42617797851562,0.0,,2.0
4,['1'],1,TMTstop-A_1_5linestimulus1.png,TMTstop-A_1_5greenlinestimulus1.png,TMTstop-A_1_5redlinestimulus1.png,TMT_A,5,104,None,5,1.0,232.62583923339844,232.62583923339844,0.0,,1.0,1.0,0.0,1,0.08690489999571582,232.62583923339844,232.62583923339844,0.0,,3.0
5,['2'],2,TMTstop-A_1_5linestimulus2.png,TMTstop-A_1_5greenlinestimulus2.png,TMTstop-A_1_5redlinestimulus2.png,TMT_A,5,105,None,5,1.0,232.77757263183594,232.77757263183594,0.0,,1.0,1.0,0.0,2,0.004070800001500174,232.77757263183594,232.77757263183594,0.0,,4.0
6,['1'],1,TMTstop-A_1_5linestimulus3.png,TMTstop-A_1_5greenlinestimulus3.png,TMTstop-A_1_5redlinestimulus3.png,TMT_A,5,106,None,5,1.0,232.86048889160156,232.86048889160156,0.0,,1.0,1.0,0.0,3,1,0.06697359999816399,0.20566649999818765,232.86048889160156,232.86048889160156,0.0,,5.0
7,['3'],3,TMTstop-A_1_5linestimulus4.png,TMTstop-A_1_5greenlinestimulus4.png,TMTstop-A_1_5redlinestimulus4.png,TMT_A,5,107,None,5,1.0,233.12355041503906,233.12355041503906,0.0,,1.0,1.0,0.0,2,3,-0.004007299998193048,0.12784530000499217,233.12355041503906,233.12355041503906,0.0,,6.0
8,['2'],2,TMTstop-A_1_5linestimulus5.png,TMTstop-A_1_5greenlinestimulus5.png,TMTstop-A_1_5redlinestimulus5.png,TMT_A,5,108,None,5,1.0,233.3236846923828,233.3236846923828,0.0,,1.0,1.0,0.0,1,2,0.25144860000000335,0.3383384999979171,233.3236846923828,233.3236846923828,0.0,,7.0
9,['3'],3,TMTstop-A_1_5linestimulus6.png,TMTstop-A_1_5greenlinestimulus6.png,TMTstop-A_1_5redlinestimulus6.png,TMT_A,5,109,None,5,1.0,233.73631286621094,233.73631286621094,0.0,,1.0,1.0,0.0,3,0.05358930000511464,233.73631286621094,233.73631286621094,0.0,,8.0
10,['1'],1,TMTstop-A_1_5linestimulus7.png,TMTstop-A_1_5greenlinestimulus7.png,TMTstop-A_1_5redlinestimulus7.png,TMT_A,5,110,None,5,1.0,233.85305786132812,233.85305786132812,0.0,,1.0,1.0,0.0,1,0.09247879999747965,233.85305786132812,233.85305786132812,0.0,,9.0
11,['3'],3,TMTstop-A_1_5linestimulus8.png,TMTstop-A_1_5greenlinestimulus8.png,TMTstop-A_1_5redlinestimulus8.png,TMT_A,5,111,None,5,1.0,234.00274658203125,234.00274658203125,0.0,,1.0,1.0,0.0,2,3,0.010395400000561494,0.13979760000074748,234.00274658203125,234.00274658203125,0.0,,10.0
12,['2'],2,TMTstop-A_1_5linestimulus9.png,TMTstop-A_1_5greenlinestimulus9.png,TMTstop-A_1_5redlinestimulus9.png,TMT_A,5,112,None,5,1.0,234.2340087890625,234.2340087890625,0.0,,1.0,1.0,0.0,1,2,0.0873896000048262,0.11133669999981066,234.2340087890625,234.2340087890625,0.0,,11.0
13,['3'],3,TMTstop-A_1_5linestimulus10.png,TMTstop-A_1_5greenlinestimulus10.png,TMTstop-A_1_5redlinestimulus10.png,TMT_A,5,113,None,5,1.0,234.43423461914062,234.43423461914062,0.0,,1.0,1.0,0.0,3,0.09943700000440003,234.43423461914062,234.43423461914062,0.0,,12.0
14,['2'],2,TMTstop-A_1_5linestimulus11.png,TMTstop-A_1_5greenlinestimulus11.png,TMTstop-A_1_5redlinestimulus11.png,TMT_A,5,114,None,5,1.0,234.58441162109375,234.58441162109375,0.0,,1.0,1.0,0.0,1,2,0.09063170000445098,0.14508300000306917,234.58441162109375,234.58441162109375,0.0,,13.0
15,['3'],3,TMTstop-A_1_5linestimulus12.png,TMTstop-A_1_5greenlinestimulus12.png,TMTstop-A_1_5redlinestimulus12.png,TMT_A,5,115,None,5,1.0,234.79241943359375,234.79241943359375,0.0,,1.0,1.0,0.0,3,0.07407160000002477,234.79241943359375,234.79241943359375,0.0,,14.0
16,['2'],2,TMTstop-A_1_5linestimulus13.png,TMTstop-A_1_5greenlinestimulus13.png,TMTstop-A_1_5redlinestimulus13.png,TMT_A,5,116,None,5,1.0,234.92552185058594,234.92552185058594,0.0,,1.0,1.0,0.0,1,2,0.11020270000153687,0.15201879999949597,234.92552185058594,234.92552185058594,0.0,,15.0
17,['1'],1,TMTstop-A_1_5linestimulus14.png,TMTstop-A_1_5greenlinestimulus14.png,TMTstop-A_1_5redlinestimulus14.png,TMT_A,5,117,None,5,1.0,235.13336181640625,235.13336181640625,0.0,,1.0,1.0,0.0,3,1,0.09500580000167247,0.29249649999837857,235.13336181640625,235.13336181640625,0.0,,16.0
18,['3'],3,TMTstop-A_1_5linestimulus15.png,TMTstop-A_1_5greenlinestimulus15.png,TMTstop-A_1_5redlinestimulus15.png,TMT_A,5,118,None,5,1.0,235.50433349609375,235.50433349609375,0.0,,1.0,1.0,0.0,2,3,-0.040534700005082414,0.1188248999969801,235.50433349609375,235.50433349609375,0.0,,17.0
19,['2'],2,TMTstop-A_1_5linestimulus16.png,TMTstop-A_1_5greenlinestimulus16.png,TMTstop-A_1_5redlinestimulus16.png,TMT_A,5,119,None,5,1.0,235.70455932617188,235.70455932617188,0.0,,1.0,1.0,0.0,1,2,0.08302099999855272,0.14184100000420585,235.70455932617188,235.70455932617188,0.0,,18.0
20,['1'],1,TMTstop-A_1_5linestimulus17.png,TMTstop-A_1_5greenlinestimulus17.png,TMTstop-A_1_5redlinestimulus17.png,TMT_A,5,120,None,5,1.0,235.9378662109375,235.9378662109375,0.0,,1.0,1.0,0.0,3,1,0.060596800001803786,0.2134829000060563,235.9378662109375,235.9378662109375,0.0,,19.0
21,['2'],2,TMTstop-A_1_5linestimulus18.png,TMTstop-A_1_5greenlinestimulus18.png,TMTstop-A_1_5redlinestimulus18.png,TMT_A,5,121,None,5,1.0,236.2185821533203,236.2185821533203,0.0,,1.0,1.0,0.0,2,0.01387339999928372,236.2185821533203,236.2185821533203,0.0,,20.0
22,['3'],3,TMTstop-A_1_5linestimulus19.png,TMTstop-A_1_5greenlinestimulus19.png,TMTstop-A_1_5redlinestimulus19.png,TMT_A,5,122,None,5,1.0,236.29241943359375,236.29241943359375,0.0,,1.0,1.0,0.0,3,0.08172629999899073,236.29241943359375,236.29241943359375,0.0,,21.0
23,['2'],2,TMTstop-A_1_5linestimulus20.png,TMTstop-A_1_5greenlinestimulus20.png,TMTstop-A_1_5redlinestimulus20.png,TMT_A,5,123,None,5,1.0,236.4254608154297,236.4254608154297,0.0,,1.0,1.0,0.0,1,2,0.1134338999981992,0.1683508999994956,236.4254608154297,236.4254608154297,0.0,,22.0
24,['3'],3,TMTstop-A_1_5linestimulus21.png,TMTstop-A_1_5greenlinestimulus21.png,TMTstop-A_1_5redlinestimulus21.png,TMT_A,5,124,None,5,1.0,236.6504669189453,236.6504669189453,0.0,,1.0,1.0,0.0,3,0.09059780000097817,236.6504669189453,236.6504669189453,0.0,,23.0
25,['1'],1,TMTstop-A_1_5linestimulus22.png,TMTstop-A_1_5greenlinestimulus22.png,TMTstop-A_1_5redlinestimulus22.png,TMT_A,5,125,None,5,1.0,236.80072021484375,236.80072021484375,0.0,,1.0,1.0,0.0,1,0.07376859999931185,236.80072021484375,236.80072021484375,0.0,,24.0
None,None,None,TMTstop-A_1_5linestimulus23.png,TMTstop-A_1_5greenlinestimulus23.png,TMTstop-A_1_5redlinestimulus23.png,TMT_A,5,Feedback_last,None,5,1.0,236.94200134277344,236.94200134277344,0.0,,0.0,0.0,0.0,2,3,-0.01739110000198707,0.13194079999811947,236.94200134277344,236.94200134277344,0.0,,25.0

extraInfo
participant,
session,001
date,2022_May_23_1222
expName,TMT_fmri
psychopyVersion,2021.2.3
frameRate,59.98821831237917
﻿NumberLetter,corrAns,Correct,StimFile,Correct_StimFile,False_StimFile,Version,Paper,TrialNumber_Version,Round,Block,n,Stim.started_mean,Stim.started_raw,Stim.started_std,Stim.stopped_raw,key_resp_2.corr_mean,key_resp_2.corr_raw,key_resp_2.corr_std,key_resp_2.keys_raw,key_resp_2.rt_raw,key_resp_2.started_mean,key_resp_2.started_raw,key_resp_2.started_std,key_resp_2.stopped_raw,order
1,['3'],3,TMTstop-A_1_6.png,TMTstop-A_1_6.png,TMTstop-A_1_6.png,TMT_A,6,126,None,5,1.0,241.04664611816406,241.04664611816406,0.0,,1.0,1.0,0.0,1,2,3,0.5500162000025739,0.6293862000020454,0.7483296000064001,241.04664611816406,241.04664611816406,0.0,,0.0
2,['1'],1,TMTstop-A_1_6.png,TMTstop-A_1_6firstgreen.png,TMTstop-A_1_6firstred.png,TMT_A,6,127,None,5,1.0,241.86709594726562,241.86709594726562,0.0,,1.0,1.0,0.0,1,0.10570799999550218,241.86709594726562,241.86709594726562,0.0,,1.0
3,['2'],2,TMTstop-A_1_6linestimulus0.png,TMTstop-A_1_6greenlinestimulus0.png,TMTstop-A_1_6redlinestimulus0.png,TMT_A,6,128,None,5,1.0,242.03390502929688,242.03390502929688,0.0,,1.0,1.0,0.0,2,-0.011484399998153094,242.03390502929688,242.03390502929688,0.0,,2.0
4,['1'],1,TMTstop-A_1_6linestimulus1.png,TMTstop-A_1_6greenlinestimulus1.png,TMTstop-A_1_6redlinestimulus1.png,TMT_A,6,129,None,5,1.0,242.08377075195312,242.08377075195312,0.0,,1.0,1.0,0.0,3,1,0.16905470000347123,0.25978459999896586,242.08377075195312,242.08377075195312,0.0,,3.0
5,['2'],2,TMTstop-A_1_6linestimulus2.png,TMTstop-A_1_6greenlinestimulus2.png,TMTstop-A_1_6redlinestimulus2.png,TMT_A,6,130,None,5,1.0,242.4078369140625,242.4078369140625,0.0,,1.0,1.0,0.0,2,-0.009790700001758523,242.4078369140625,242.4078369140625,0.0,,4.0
6,['3'],3,TMTstop-A_1_6linestimulus3.png,TMTstop-A_1_6greenlinestimulus3.png,TMTstop-A_1_6redlinestimulus3.png,TMT_A,6,131,None,5,1.0,242.4635772705078,242.4635772705078,0.0,,1.0,1.0,0.0,3,0.09654709999449551,242.4635772705078,242.4635772705078,0.0,,5.0
7,['2'],2,TMTstop-A_1_6linestimulus4.png,TMTstop-A_1_6greenlinestimulus4.png,TMTstop-A_1_6redlinestimulus4.png,TMT_A,6,132,None,5,1.0,242.61387634277344,242.61387634277344,0.0,,1.0,1.0,0.0,1,2,0.09786130000429694,0.15287000000535045,242.61387634277344,242.61387634277344,0.0,,6.0
8,['1'],1,TMTstop-A_1_6linestimulus5.png,TMTstop-A_1_6greenlinestimulus5.png,TMTstop-A_1_6redlinestimulus5.png,TMT_A,6,133,None,5,1.0,242.82200622558594,242.82200622558594,0.0,,1.0,1.0,0.0,3,1,0.1414775000012014,0.2465276000002632,242.82200622558594,242.82200622558594,0.0,,7.0
9,['3'],3,TMTstop-A_1_6linestimulus6.png,TMTstop-A_1_6greenlinestimulus6.png,TMTstop-A_1_6redlinestimulus6.png,TMT_A,6,134,None,5,1.0,243.16943359375,243.16943359375,0.0,,1.0,1.0,0.0,2,3,1,2,1,2,3,-0.04408479999983683,0.20746400000643916,0.2500392000001739,0.3301370000044699,0.5215108000047621,0.5307697000025655,0.7232336000015493,243.16943359375,243.16943359375,0.0,,8.0
10,['1'],1,TMTstop-A_1_6linestimulus7.png,TMTstop-A_1_6greenlinestimulus7.png,TMTstop-A_1_6redlinestimulus7.png,TMT_A,6,135,None,5,1.0,243.97325134277344,243.97325134277344,0.0,,1.0,1.0,0.0,1,0.18099570000049425,243.97325134277344,243.97325134277344,0.0,,9.0
11,['3'],3,TMTstop-A_1_6linestimulus8.png,TMTstop-A_1_6greenlinestimulus8.png,TMTstop-A_1_6redlinestimulus8.png,TMT_A,6,136,None,5,1.0,244.2144012451172,244.2144012451172,0.0,,1.0,1.0,0.0,2,1,2,3,0.005559299999731593,0.4643512000038754,0.5035682000016095,0.627901900006691,244.2144012451172,244.2144012451172,0.0,,10.0
12,['2'],2,TMTstop-A_1_6linestimulus9.png,TMTstop-A_1_6greenlinestimulus9.png,TMTstop-A_1_6redlinestimulus9.png,TMT_A,6,137,None,5,1.0,244.93936157226562,244.93936157226562,0.0,,1.0,1.0,0.0,1,2,0.09105479999561794,0.12688199999684002,244.93936157226562,244.93936157226562,0.0,,11.0
13,['3'],3,TMTstop-A_1_6linestimulus10.png,TMTstop-A_1_6greenlinestimulus10.png,TMTstop-A_1_6redlinestimulus10.png,TMT_A,6,138,None,5,1.0,245.14625549316406,245.14625549316406,0.0,,1.0,1.0,0.0,3,0.06204219999926863,245.14625549316406,245.14625549316406,0.0,,12.0
14,['1'],1,TMTstop-A_1_6linestimulus11.png,TMTstop-A_1_6greenlinestimulus11.png,TMTstop-A_1_6redlinestimulus11.png,TMT_A,6,139,None,5,1.0,245.26248168945312,245.26248168945312,0.0,,1.0,1.0,0.0,1,0.09633109999413136,245.26248168945312,245.26248168945312,0.0,,13.0
15,['3'],3,TMTstop-A_1_6linestimulus12.png,TMTstop-A_1_6greenlinestimulus12.png,TMTstop-A_1_6redlinestimulus12.png,TMT_A,6,140,None,5,1.0,245.4126434326172,245.4126434326172,0.0,,1.0,1.0,0.0,2,3,-0.006867600000987295,0.14340719999745488,245.4126434326172,245.4126434326172,0.0,,14.0
16,['1'],1,TMTstop-A_1_6linestimulus13.png,TMTstop-A_1_6greenlinestimulus13.png,TMTstop-A_1_6redlinestimulus13.png,TMT_A,6,141,None,5,1.0,245.6253204345703,245.6253204345703,0.0,,1.0,1.0,0.0,1,0.1028050999957486,245.6253204345703,245.6253204345703,0.0,,15.0
17,['3'],3,TMTstop-A_1_6linestimulus14.png,TMTstop-A_1_6greenlinestimulus14.png,TMTstop-A_1_6redlinestimulus14.png,TMT_A,6,142,None,5,1.0,245.7923126220703,245.7923126220703,0.0,,1.0,1.0,0.0,2,3,-0.03540919999795733,0.12171220000163885,245.7923126220703,245.7923126220703,0.0,,16.0
18,['2'],2,TMTstop-A_1_6linestimulus15.png,TMTstop-A_1_6greenlinestimulus15.png,TMTstop-A_1_6redlinestimulus15.png,TMT_A,6,143,None,5,1.0,246.00453186035156,246.00453186035156,0.0,,1.0,1.0,0.0,1,2,0.07476329999917652,0.13425189999543363,246.00453186035156,246.00453186035156,0.0,,17.0
19,['3'],3,TMTstop-A_1_6linestimulus16.png,TMTstop-A_1_6greenlinestimulus16.png,TMTstop-A_1_6redlinestimulus16.png,TMT_A,6,144,None,5,1.0,246.19223022460938,246.19223022460938,0.0,,1.0,1.0,0.0,3,0.10120710000046529,246.19223022460938,246.19223022460938,0.0,,18.0
20,['1'],1,TMTstop-A_1_6linestimulus17.png,TMTstop-A_1_6greenlinestimulus17.png,TMTstop-A_1_6redlinestimulus17.png,TMT_A,6,145,None,5,1.0,246.34559631347656,246.34559631347656,0.0,,1.0,1.0,0.0,1,0.1089057999997749,246.34559631347656,246.34559631347656,0.0,,19.0
21,['2'],2,TMTstop-A_1_6linestimulus18.png,TMTstop-A_1_6greenlinestimulus18.png,TMTstop-A_1_6redlinestimulus18.png,TMT_A,6,146,None,5,1.0,246.51255798339844,246.51255798339844,0.0,,1.0,1.0,0.0,2,0.01034609999624081,246.51255798339844,246.51255798339844,0.0,,20.0
22,['1'],1,TMTstop-A_1_6linestimulus19.png,TMTstop-A_1_6greenlinestimulus19.png,TMTstop-A_1_6redlinestimulus19.png,TMT_A,6,147,None,5,1.0,246.5791015625,246.5791015625,0.0,,1.0,1.0,0.0,3,1,0.12620669999887468,0.2936386000001221,246.5791015625,246.5791015625,0.0,,21.0
23,['2'],2,TMTstop-A_1_6linestimulus20.png,TMTstop-A_1_6greenlinestimulus20.png,TMTstop-A_1_6redlinestimulus20.png,TMT_A,6,148,None,5,1.0,246.93215942382812,246.93215942382812,0.0,,1.0,1.0,0.0,2,-0.0035913000028813258,246.93215942382812,246.93215942382812,0.0,,22.0
24,['3'],3,TMTstop-A_1_6linestimulus21.png,TMTstop-A_1_6greenlinestimulus21.png,TMTstop-A_1_6redlinestimulus21.png,TMT_A,6,149,None,5,1.0,246.98277282714844,246.98277282714844,0.0,,1.0,1.0,0.0,3,0.10883630000171252,246.98277282714844,246.98277282714844,0.0,,23.0
25,['2'],2,TMTstop-A_1_6linestimulus22.png,TMTstop-A_1_6greenlinestimulus22.png,TMTstop-A_1_6redlinestimulus22.png,TMT_A,6,150,None,5,1.0,247.14959716796875,247.14959716796875,0.0,,1.0,1.0,0.0,1,2,0.13414190000185044,0.19233710000116844,247.14959716796875,247.14959716796875,0.0,,24.0
None,None,None,TMTstop-A_1_6linestimulus23.png,TMTstop-A_1_6greenlinestimulus23.png,TMTstop-A_1_6redlinestimulus23.png,TMT_A,6,Feedback_last,None,5,1.0,247.3909912109375,247.3909912109375,0.0,,0.0,0.0,0.0,3,1,2,3,0.11730610000086017,0.2723944000026677,0.33173209999949904,0.47089689999847906,247.3909912109375,247.3909912109375,0.0,,25.0

extraInfo
participant,
session,001
date,2022_May_23_1222
expName,TMT_fmri
psychopyVersion,2021.2.3
frameRate,59.98821831237917
