NumberLetter,corrAns,Correct,StimFile,Correct_StimFile,False_StimFile,Version,Block,TrialNumber_session,n,Stim.started_mean,Stim.started_raw,Stim.started_std,Stim.stopped_raw,key_resp_2.corr_mean,key_resp_2.corr_raw,key_resp_2.corr_std,key_resp_2.keys_raw,key_resp_2.rt_raw,key_resp_2.started_mean,key_resp_2.started_raw,key_resp_2.started_std,key_resp_2.stopped_raw,order
1,['3'],3,TMTstop-B_1_1.png,TMTstop-B_1_1.png,TMTstop-B_1_1.png,TMT_B,1,1,1.0,55.52214431762695,55.52214431762695,0.0,,1.0,1.0,0.0,2,3,1.1649946000106866,1.3281386000016937,55.52214431762695,55.52214431762695,0.0,,0.0
A,['1'],1,TMTstop-B_1_1.png,TMTstop-B_1_1firstgreen.png,TMTstop-B_1_1firstred.png,TMT_B,1,2,1.0,56.93926239013672,56.93926239013672,0.0,,1.0,1.0,0.0,1,0.04588750000402797,56.93926239013672,56.93926239013672,0.0,,1.0
2,['3'],3,TMTstop-B_1_1linestimulus0.png,TMTstop-B_1_1greenlinestimulus0.png,TMTstop-B_1_1redlinestimulus0.png,TMT_B,1,3,1.0,57.064353942871094,57.064353942871094,0.0,,1.0,1.0,0.0,2,3,0.015133199995034374,0.10719539999263361,57.064353942871094,57.064353942871094,0.0,,2.0
B,['2'],2,TMTstop-B_1_1linestimulus1.png,TMTstop-B_1_1greenlinestimulus1.png,TMTstop-B_1_1redlinestimulus1.png,TMT_B,1,4,1.0,57.25180435180664,57.25180435180664,0.0,,1.0,1.0,0.0,1,2,0.08869070000946522,0.148949000009452,57.25180435180664,57.25180435180664,0.0,,3.0
3,['1'],1,TMTstop-B_1_1linestimulus2.png,TMTstop-B_1_1greenlinestimulus2.png,TMTstop-B_1_1redlinestimulus2.png,TMT_B,1,5,1.0,57.49461364746094,57.49461364746094,0.0,,1.0,1.0,0.0,3,1,-0.006210699997609481,0.13465710000309628,57.49461364746094,57.49461364746094,0.0,,4.0
C,['3'],3,TMTstop-B_1_1linestimulus3.png,TMTstop-B_1_1greenlinestimulus3.png,TMTstop-B_1_1redlinestimulus3.png,TMT_B,1,6,1.0,57.82206726074219,57.82206726074219,0.0,,1.0,1.0,0.0,2,3,-0.1552356000029249,-0.044396400000550784,57.82206726074219,57.82206726074219,0.0,,5.0
4,['2'],2,TMTstop-B_1_1linestimulus4.png,TMTstop-B_1_1greenlinestimulus4.png,TMTstop-B_1_1redlinestimulus4.png,TMT_B,1,7,1.0,57.94587326049805,57.94587326049805,0.0,,1.0,1.0,0.0,1,2,-0.038531300000613555,0.015996899994206615,57.94587326049805,57.94587326049805,0.0,,6.0
D,['1'],1,TMTstop-B_1_1linestimulus5.png,TMTstop-B_1_1greenlinestimulus5.png,TMTstop-B_1_1redlinestimulus5.png,TMT_B,1,8,1.0,58.06404495239258,58.06404495239258,0.0,,1.0,1.0,0.0,3,1,-0.0064208999974653125,0.15866049999021925,58.06404495239258,58.06404495239258,0.0,,7.0
5,['3'],3,TMTstop-B_1_1linestimulus6.png,TMTstop-B_1_1greenlinestimulus6.png,TMTstop-B_1_1redlinestimulus6.png,TMT_B,1,9,1.0,58.307376861572266,58.307376861572266,0.0,,1.0,1.0,0.0,2,2,3,-0.017052199997124262,1.212285300003714,1.5821825000020908,58.307376861572266,58.307376861572266,0.0,,8.0
E,['1'],1,TMTstop-B_1_1linestimulus7.png,TMTstop-B_1_1greenlinestimulus7.png,TMTstop-B_1_1redlinestimulus7.png,TMT_B,1,10,1.0,60.0017204284668,60.0017204284668,0.0,,1.0,1.0,0.0,1,1.3580507000006037,60.0017204284668,60.0017204284668,0.0,,9.0
6,['3'],3,TMTstop-B_1_1linestimulus8.png,TMTstop-B_1_1greenlinestimulus8.png,TMTstop-B_1_1redlinestimulus8.png,TMT_B,1,11,1.0,61.43224334716797,61.43224334716797,0.0,,1.0,1.0,0.0,3,1.5299492999911308,61.43224334716797,61.43224334716797,0.0,,10.0
F,['1'],1,TMTstop-B_1_1linestimulus9.png,TMTstop-B_1_1greenlinestimulus9.png,TMTstop-B_1_1redlinestimulus9.png,TMT_B,1,12,1.0,63.15037536621094,63.15037536621094,0.0,,1.0,1.0,0.0,1,1.4784829999989597,63.15037536621094,63.15037536621094,0.0,,11.0
7,['3'],3,TMTstop-B_1_1linestimulus10.png,TMTstop-B_1_1greenlinestimulus10.png,TMTstop-B_1_1redlinestimulus10.png,TMT_B,1,13,1.0,64.70321655273438,64.70321655273438,0.0,,1.0,1.0,0.0,2,2,3,2.109488899994176,3.7758967999980086,5.005350699997507,64.70321655273438,64.70321655273438,0.0,,12.0
G,['2'],2,TMTstop-B_1_1linestimulus11.png,TMTstop-B_1_1greenlinestimulus11.png,TMTstop-B_1_1redlinestimulus11.png,TMT_B,1,14,1.0,69.77934265136719,69.77934265136719,0.0,,0.0,0.0,0.0,,'--',69.77934265136719,69.77934265136719,0.0,,13.0
8,['3'],3,TMTstop-B_1_1linestimulus12.png,TMTstop-B_1_1greenlinestimulus12.png,TMTstop-B_1_1redlinestimulus12.png,TMT_B,1,15,0.0,,,,'--',,,,'--','--',,,,'--',
H,['1'],1,TMTstop-B_1_1linestimulus13.png,TMTstop-B_1_1greenlinestimulus13.png,TMTstop-B_1_1redlinestimulus13.png,TMT_B,1,16,0.0,,,,'--',,,,'--','--',,,,'--',
9,['3'],3,TMTstop-B_1_1linestimulus14.png,TMTstop-B_1_1greenlinestimulus14.png,TMTstop-B_1_1redlinestimulus14.png,TMT_B,1,17,0.0,,,,'--',,,,'--','--',,,,'--',
I,['2'],2,TMTstop-B_1_1linestimulus15.png,TMTstop-B_1_1greenlinestimulus15.png,TMTstop-B_1_1redlinestimulus15.png,TMT_B,1,18,0.0,,,,'--',,,,'--','--',,,,'--',
10,['3'],3,TMTstop-B_1_1linestimulus16.png,TMTstop-B_1_1greenlinestimulus16.png,TMTstop-B_1_1redlinestimulus16.png,TMT_B,1,19,0.0,,,,'--',,,,'--','--',,,,'--',
J,['2'],2,TMTstop-B_1_1linestimulus17.png,TMTstop-B_1_1greenlinestimulus17.png,TMTstop-B_1_1redlinestimulus17.png,TMT_B,1,20,0.0,,,,'--',,,,'--','--',,,,'--',
11,['1'],1,TMTstop-B_1_1linestimulus18.png,TMTstop-B_1_1greenlinestimulus18.png,TMTstop-B_1_1redlinestimulus18.png,TMT_B,1,21,0.0,,,,'--',,,,'--','--',,,,'--',
K,['2'],2,TMTstop-B_1_1linestimulus19.png,TMTstop-B_1_1greenlinestimulus19.png,TMTstop-B_1_1redlinestimulus19.png,TMT_B,1,22,0.0,,,,'--',,,,'--','--',,,,'--',
12,['1'],1,TMTstop-B_1_1linestimulus20.png,TMTstop-B_1_1greenlinestimulus20.png,TMTstop-B_1_1redlinestimulus20.png,TMT_B,1,23,0.0,,,,'--',,,,'--','--',,,,'--',
L,['2'],2,TMTstop-B_1_1linestimulus21.png,TMTstop-B_1_1greenlinestimulus21.png,TMTstop-B_1_1redlinestimulus21.png,TMT_B,1,24,0.0,,,,'--',,,,'--','--',,,,'--',
13,['1'],1,TMTstop-B_1_1linestimulus22.png,TMTstop-B_1_1greenlinestimulus22.png,TMTstop-B_1_1redlinestimulus22.png,TMT_B,1,25,0.0,,,,'--',,,,'--','--',,,,'--',
None,None,None,TMTstop-B_1_1linestimulus23.png,TMTstop-B_1_1greenlinestimulus23.png,TMTstop-B_1_1redlinestimulus23.png,TMT_B,1,Feedback_last,0.0,,,,'--',,,,'--','--',,,,'--',

extraInfo
participant,
session,001
date,2022_Mar_30_1524
expName,TMT_fmri
psychopyVersion,2021.2.3
frameRate,143.55976535962884
