NumberLetter,corrAns,Correct,StimFile,Correct_StimFile,False_StimFile,Version,Paper,TrialNumber_Version,Round,Block,n,Stim.started_mean,Stim.started_raw,Stim.started_std,Stim.stopped_raw,key_resp_2.corr_mean,key_resp_2.corr_raw,key_resp_2.corr_std,key_resp_2.keys_raw,key_resp_2.rt_raw,key_resp_2.started_mean,key_resp_2.started_raw,key_resp_2.started_std,key_resp_2.stopped_raw,order
1,['1'],1,TMTstop-A_1_1.png,TMTstop-A_1_1.png,TMTstop-A_1_1.png,TMT_A,1,1,1,2,1.0,63.862205505371094,63.862205505371094,0.0,,1.0,1.0,0.0,1,1.2311308999778703,63.862205505371094,63.862205505371094,0.0,,0.0
2,['3'],3,TMTstop-A_1_1.png,TMTstop-A_1_1firstgreen.png,TMTstop-A_1_1firstred.png,TMT_A,1,2,None,2,1.0,65.15453338623047,65.15453338623047,0.0,,1.0,1.0,0.0,2,3,0.06699260001187213,0.16356509999604896,65.15453338623047,65.15453338623047,0.0,,1.0
3,['1'],1,TMTstop-A_1_1linestimulus0.png,TMTstop-A_1_1greenlinestimulus0.png,TMTstop-A_1_1redlinestimulus0.png,TMT_A,1,3,None,2,1.0,65.3863525390625,65.3863525390625,0.0,,1.0,1.0,0.0,1,0.09986899999785237,65.3863525390625,65.3863525390625,0.0,,2.0
4,['3'],3,TMTstop-A_1_1linestimulus1.png,TMTstop-A_1_1greenlinestimulus1.png,TMTstop-A_1_1redlinestimulus1.png,TMT_A,1,4,None,2,1.0,65.53660583496094,65.53660583496094,0.0,,1.0,1.0,0.0,2,3,-0.0028331000066827983,0.11184349999530241,65.53660583496094,65.53660583496094,0.0,,3.0
5,['1'],1,TMTstop-A_1_1linestimulus2.png,TMTstop-A_1_1greenlinestimulus2.png,TMTstop-A_1_1redlinestimulus2.png,TMT_A,1,5,None,2,1.0,65.74842071533203,65.74842071533203,0.0,,1.0,1.0,0.0,1,0.041719799977727234,65.74842071533203,65.74842071533203,0.0,,4.0
6,['3'],3,TMTstop-A_1_1linestimulus3.png,TMTstop-A_1_1greenlinestimulus3.png,TMTstop-A_1_1redlinestimulus3.png,TMT_A,1,6,None,2,1.0,65.8486099243164,65.8486099243164,0.0,,1.0,1.0,0.0,2,3,-0.013277199992444366,0.10652510001091287,65.8486099243164,65.8486099243164,0.0,,5.0
7,['1'],1,TMTstop-A_1_1linestimulus4.png,TMTstop-A_1_1greenlinestimulus4.png,TMTstop-A_1_1redlinestimulus4.png,TMT_A,1,7,None,2,1.0,66.04888916015625,66.04888916015625,0.0,,1.0,1.0,0.0,1,0.07262759999139234,66.04888916015625,66.04888916015625,0.0,,6.0
8,['2'],2,TMTstop-A_1_1linestimulus5.png,TMTstop-A_1_1greenlinestimulus5.png,TMTstop-A_1_1redlinestimulus5.png,TMT_A,1,8,None,2,1.0,66.18182373046875,66.18182373046875,0.0,,1.0,1.0,0.0,2,0.017535700026201084,66.18182373046875,66.18182373046875,0.0,,7.0
9,['3'],3,TMTstop-A_1_1linestimulus6.png,TMTstop-A_1_1greenlinestimulus6.png,TMTstop-A_1_1redlinestimulus6.png,TMT_A,1,9,None,2,1.0,66.26519012451172,66.26519012451172,0.0,,1.0,1.0,0.0,3,0.04202249998343177,66.26519012451172,66.26519012451172,0.0,,8.0
10,['1'],1,TMTstop-A_1_1linestimulus7.png,TMTstop-A_1_1greenlinestimulus7.png,TMTstop-A_1_1redlinestimulus7.png,TMT_A,1,10,None,2,1.0,66.36541748046875,66.36541748046875,0.0,,1.0,1.0,0.0,1,0.09139889999642037,66.36541748046875,66.36541748046875,0.0,,9.0
11,['3'],3,TMTstop-A_1_1linestimulus8.png,TMTstop-A_1_1greenlinestimulus8.png,TMTstop-A_1_1redlinestimulus8.png,TMT_A,1,11,None,2,1.0,66.5156021118164,66.5156021118164,0.0,,1.0,1.0,0.0,2,3,0.007718000008026138,0.09149250001064502,66.5156021118164,66.5156021118164,0.0,,10.0
12,['2'],2,TMTstop-A_1_1linestimulus9.png,TMTstop-A_1_1greenlinestimulus9.png,TMTstop-A_1_1redlinestimulus9.png,TMT_A,1,12,None,2,1.0,66.6891860961914,66.6891860961914,0.0,,1.0,1.0,0.0,1,2,0.09517659997800365,0.15115769999101758,66.6891860961914,66.6891860961914,0.0,,11.0
13,['1'],1,TMTstop-A_1_1linestimulus10.png,TMTstop-A_1_1greenlinestimulus10.png,TMTstop-A_1_1redlinestimulus10.png,TMT_A,1,13,None,2,1.0,66.88936614990234,66.88936614990234,0.0,,1.0,1.0,0.0,3,1,0.07463120002648793,0.3302374000195414,66.88936614990234,66.88936614990234,0.0,,12.0
14,['2'],2,TMTstop-A_1_1linestimulus11.png,TMTstop-A_1_1greenlinestimulus11.png,TMTstop-A_1_1redlinestimulus11.png,TMT_A,1,14,None,2,1.0,67.28148651123047,67.28148651123047,0.0,,1.0,1.0,0.0,2,-0.0027818000235129148,67.28148651123047,67.28148651123047,0.0,,13.0
15,['1'],1,TMTstop-A_1_1linestimulus12.png,TMTstop-A_1_1greenlinestimulus12.png,TMTstop-A_1_1redlinestimulus12.png,TMT_A,1,15,None,2,1.0,67.33153533935547,67.33153533935547,0.0,,1.0,1.0,0.0,3,1,2,3,1,0.05127680001896806,0.21730610000668094,0.2517408000130672,0.4178307000256609,0.5552601000235882,67.33153533935547,67.33153533935547,0.0,,14.0
16,['2'],2,TMTstop-A_1_1linestimulus13.png,TMTstop-A_1_1greenlinestimulus13.png,TMTstop-A_1_1redlinestimulus13.png,TMT_A,1,16,None,2,1.0,67.98470306396484,67.98470306396484,0.0,,1.0,1.0,0.0,2,-0.03299039998091757,67.98470306396484,67.98470306396484,0.0,,15.0
17,['1'],1,TMTstop-A_1_1linestimulus14.png,TMTstop-A_1_1greenlinestimulus14.png,TMTstop-A_1_1redlinestimulus14.png,TMT_A,1,17,None,2,1.0,68.03571319580078,68.03571319580078,0.0,,1.0,1.0,0.0,3,1,0.004457400005776435,0.17568270000629127,68.03571319580078,68.03571319580078,0.0,,16.0
18,['3'],3,TMTstop-A_1_1linestimulus15.png,TMTstop-A_1_1greenlinestimulus15.png,TMTstop-A_1_1redlinestimulus15.png,TMT_A,1,18,None,2,1.0,68.27417755126953,68.27417755126953,0.0,,1.0,1.0,0.0,2,3,0.04141079998225905,0.1505876999872271,68.27417755126953,68.27417755126953,0.0,,17.0
19,['2'],2,TMTstop-A_1_1linestimulus16.png,TMTstop-A_1_1greenlinestimulus16.png,TMTstop-A_1_1redlinestimulus16.png,TMT_A,1,19,None,2,1.0,68.48335266113281,68.48335266113281,0.0,,1.0,1.0,0.0,1,2,0.31448609998915344,0.3283192999952007,68.48335266113281,68.48335266113281,0.0,,18.0
20,['3'],3,TMTstop-A_1_1linestimulus17.png,TMTstop-A_1_1greenlinestimulus17.png,TMTstop-A_1_1redlinestimulus17.png,TMT_A,1,20,None,2,1.0,68.90837097167969,68.90837097167969,0.0,,1.0,1.0,0.0,3,0.04234089999226853,68.90837097167969,68.90837097167969,0.0,,19.0
21,['1'],1,TMTstop-A_1_1linestimulus18.png,TMTstop-A_1_1greenlinestimulus18.png,TMTstop-A_1_1redlinestimulus18.png,TMT_A,1,21,None,2,1.0,69.00839233398438,69.00839233398438,0.0,,1.0,1.0,0.0,1,0.13266410000505857,69.00839233398438,69.00839233398438,0.0,,20.0
22,['3'],3,TMTstop-A_1_1linestimulus19.png,TMTstop-A_1_1greenlinestimulus19.png,TMTstop-A_1_1redlinestimulus19.png,TMT_A,1,22,None,2,1.0,69.19978332519531,69.19978332519531,0.0,,1.0,1.0,0.0,2,3,0.007064800010994077,0.1915832000086084,69.19978332519531,69.19978332519531,0.0,,21.0
23,['1'],1,TMTstop-A_1_1linestimulus20.png,TMTstop-A_1_1greenlinestimulus20.png,TMTstop-A_1_1redlinestimulus20.png,TMT_A,1,23,None,2,1.0,69.48939514160156,69.48939514160156,0.0,,1.0,1.0,0.0,1,0.05268429999705404,69.48939514160156,69.48939514160156,0.0,,22.0
24,['3'],3,TMTstop-A_1_1linestimulus21.png,TMTstop-A_1_1greenlinestimulus21.png,TMTstop-A_1_1redlinestimulus21.png,TMT_A,1,24,None,2,1.0,69.60619354248047,69.60619354248047,0.0,,1.0,1.0,0.0,2,3,0.014923100010491908,0.11529420001897961,69.60619354248047,69.60619354248047,0.0,,23.0
25,['1'],1,TMTstop-A_1_1linestimulus22.png,TMTstop-A_1_1greenlinestimulus22.png,TMTstop-A_1_1redlinestimulus22.png,TMT_A,1,25,None,2,1.0,69.78983306884766,69.78983306884766,0.0,,1.0,1.0,0.0,1,0.07001429999945685,69.78983306884766,69.78983306884766,0.0,,24.0
None,None,None,TMTstop-A_1_1linestimulus23.png,TMTstop-A_1_1greenlinestimulus23.png,TMTstop-A_1_1redlinestimulus23.png,TMT_A,1,Feedback_last,None,2,1.0,69.92325592041016,69.92325592041016,0.0,,0.0,0.0,0.0,2,3,-0.02466850000200793,0.0894933000090532,69.92325592041016,69.92325592041016,0.0,,25.0

extraInfo
participant,
session,001
date,2022_May_11_1110
expName,TMT_fmri
psychopyVersion,2021.2.3
frameRate,59.94176058854945
﻿NumberLetter,corrAns,Correct,StimFile,Correct_StimFile,False_StimFile,Version,Paper,TrialNumber_Version,Round,Block,n,Stim.started_mean,Stim.started_raw,Stim.started_std,Stim.stopped_raw,key_resp_2.corr_mean,key_resp_2.corr_raw,key_resp_2.corr_std,key_resp_2.keys_raw,key_resp_2.rt_raw,key_resp_2.started_mean,key_resp_2.started_raw,key_resp_2.started_std,key_resp_2.stopped_raw,order
1,['1'],1,TMTstop-A_1_2.png,TMTstop-A_1_2.png,TMTstop-A_1_2.png,TMT_A,2,26,None,2,1.0,74.07997131347656,74.07997131347656,0.0,,1.0,1.0,0.0,1,0.6742653999826871,74.07997131347656,74.07997131347656,0.0,,0.0
2,['3'],3,TMTstop-A_1_2.png,TMTstop-A_1_2firstgreen.png,TMTstop-A_1_2firstred.png,TMT_A,2,27,None,2,1.0,74.82335662841797,74.82335662841797,0.0,,1.0,1.0,0.0,2,3,0.056599399977130815,0.13427260000025854,74.82335662841797,74.82335662841797,0.0,,1.0
3,['1'],1,TMTstop-A_1_2linestimulus0.png,TMTstop-A_1_2greenlinestimulus0.png,TMTstop-A_1_2redlinestimulus0.png,TMT_A,2,28,None,2,1.0,75.00724792480469,75.00724792480469,0.0,,1.0,1.0,0.0,1,0.15018170000985265,75.00724792480469,75.00724792480469,0.0,,2.0
4,['2'],2,TMTstop-A_1_2linestimulus1.png,TMTstop-A_1_2greenlinestimulus1.png,TMTstop-A_1_2redlinestimulus1.png,TMT_A,2,29,None,2,1.0,75.21577453613281,75.21577453613281,0.0,,1.0,1.0,0.0,2,-0.015081900026416406,75.21577453613281,75.21577453613281,0.0,,3.0
5,['1'],1,TMTstop-A_1_2linestimulus2.png,TMTstop-A_1_2greenlinestimulus2.png,TMTstop-A_1_2redlinestimulus2.png,TMT_A,2,30,None,2,1.0,75.26545715332031,75.26545715332031,0.0,,1.0,1.0,0.0,3,1,0.05574239999987185,0.2220501000119839,75.26545715332031,75.26545715332031,0.0,,4.0
6,['3'],3,TMTstop-A_1_2linestimulus3.png,TMTstop-A_1_2greenlinestimulus3.png,TMTstop-A_1_2redlinestimulus3.png,TMT_A,2,31,None,2,1.0,75.54325866699219,75.54325866699219,0.0,,1.0,1.0,0.0,2,3,-0.013433299987809733,0.10015839998959564,75.54325866699219,75.54325866699219,0.0,,5.0
7,['2'],2,TMTstop-A_1_2linestimulus4.png,TMTstop-A_1_2greenlinestimulus4.png,TMTstop-A_1_2redlinestimulus4.png,TMT_A,2,32,None,2,1.0,75.6934814453125,75.6934814453125,0.0,,1.0,1.0,0.0,1,2,0.0947143999801483,0.16101629997137934,75.6934814453125,75.6934814453125,0.0,,6.0
8,['1'],1,TMTstop-A_1_2linestimulus5.png,TMTstop-A_1_2greenlinestimulus5.png,TMTstop-A_1_2redlinestimulus5.png,TMT_A,2,33,None,2,1.0,75.95333862304688,75.95333862304688,0.0,,1.0,1.0,0.0,3,1,0.005277699994621798,0.14847280000685714,75.95333862304688,75.95333862304688,0.0,,7.0
9,['3'],3,TMTstop-A_1_2linestimulus6.png,TMTstop-A_1_2greenlinestimulus6.png,TMTstop-A_1_2redlinestimulus6.png,TMT_A,2,34,None,2,1.0,76.18367767333984,76.18367767333984,0.0,,1.0,1.0,0.0,3,0.054987700015772134,76.18367767333984,76.18367767333984,0.0,,8.0
10,['2'],2,TMTstop-A_1_2linestimulus7.png,TMTstop-A_1_2greenlinestimulus7.png,TMTstop-A_1_2redlinestimulus7.png,TMT_A,2,35,None,2,1.0,76.31781768798828,76.31781768798828,0.0,,1.0,1.0,0.0,1,2,0.07852510001976043,0.1737450000073295,76.31781768798828,76.31781768798828,0.0,,9.0
11,['1'],1,TMTstop-A_1_2linestimulus8.png,TMTstop-A_1_2greenlinestimulus8.png,TMTstop-A_1_2redlinestimulus8.png,TMT_A,2,36,None,2,1.0,76.55828094482422,76.55828094482422,0.0,,1.0,1.0,0.0,3,1,0.020343100011814386,0.14330860000336543,76.55828094482422,76.55828094482422,0.0,,10.0
12,['2'],2,TMTstop-A_1_2linestimulus9.png,TMTstop-A_1_2greenlinestimulus9.png,TMTstop-A_1_2redlinestimulus9.png,TMT_A,2,37,None,2,1.0,76.7645263671875,76.7645263671875,0.0,,1.0,1.0,0.0,2,0.10267550000571646,76.7645263671875,76.7645263671875,0.0,,11.0
13,['1'],1,TMTstop-A_1_2linestimulus10.png,TMTstop-A_1_2greenlinestimulus10.png,TMTstop-A_1_2redlinestimulus10.png,TMT_A,2,38,None,2,1.0,76.93171691894531,76.93171691894531,0.0,,1.0,1.0,0.0,3,1,0.005268999986583367,0.1460957000090275,76.93171691894531,76.93171691894531,0.0,,12.0
14,['3'],3,TMTstop-A_1_2linestimulus11.png,TMTstop-A_1_2greenlinestimulus11.png,TMTstop-A_1_2redlinestimulus11.png,TMT_A,2,39,None,2,1.0,77.15538024902344,77.15538024902344,0.0,,1.0,1.0,0.0,2,3,-0.019587600021623075,0.10173809999832883,77.15538024902344,77.15538024902344,0.0,,13.0
15,['1'],1,TMTstop-A_1_2linestimulus12.png,TMTstop-A_1_2greenlinestimulus12.png,TMTstop-A_1_2redlinestimulus12.png,TMT_A,2,40,None,2,1.0,77.30546569824219,77.30546569824219,0.0,,1.0,1.0,0.0,1,0.09824680001474917,77.30546569824219,77.30546569824219,0.0,,14.0
16,['3'],3,TMTstop-A_1_2linestimulus13.png,TMTstop-A_1_2greenlinestimulus13.png,TMTstop-A_1_2redlinestimulus13.png,TMT_A,2,41,None,2,1.0,77.45578002929688,77.45578002929688,0.0,,1.0,1.0,0.0,2,3,0.03226169999106787,0.12705819998518564,77.45578002929688,77.45578002929688,0.0,,15.0
17,['1'],1,TMTstop-A_1_2linestimulus14.png,TMTstop-A_1_2greenlinestimulus14.png,TMTstop-A_1_2redlinestimulus14.png,TMT_A,2,42,None,2,1.0,77.64558410644531,77.64558410644531,0.0,,1.0,1.0,0.0,1,0.06037240001023747,77.64558410644531,77.64558410644531,0.0,,16.0
18,['2'],2,TMTstop-A_1_2linestimulus15.png,TMTstop-A_1_2greenlinestimulus15.png,TMTstop-A_1_2redlinestimulus15.png,TMT_A,2,43,None,2,1.0,77.76292419433594,77.76292419433594,0.0,,1.0,1.0,0.0,2,0.0007053999870549887,77.76292419433594,77.76292419433594,0.0,,17.0
19,['1'],1,TMTstop-A_1_2linestimulus16.png,TMTstop-A_1_2greenlinestimulus16.png,TMTstop-A_1_2redlinestimulus16.png,TMT_A,2,44,None,2,1.0,77.8198471069336,77.8198471069336,0.0,,1.0,1.0,0.0,3,1,0.06512610000208952,0.20966950000729412,77.8198471069336,77.8198471069336,0.0,,18.0
20,['2'],2,TMTstop-A_1_2linestimulus17.png,TMTstop-A_1_2greenlinestimulus17.png,TMTstop-A_1_2redlinestimulus17.png,TMT_A,2,45,None,2,1.0,78.11185455322266,78.11185455322266,0.0,,1.0,1.0,0.0,2,-0.04628070001490414,78.11185455322266,78.11185455322266,0.0,,19.0
21,['3'],3,TMTstop-A_1_2linestimulus18.png,TMTstop-A_1_2greenlinestimulus18.png,TMTstop-A_1_2redlinestimulus18.png,TMT_A,2,46,None,2,1.0,78.16178894042969,78.16178894042969,0.0,,1.0,1.0,0.0,3,0.03231200002483092,78.16178894042969,78.16178894042969,0.0,,20.0
22,['2'],2,TMTstop-A_1_2linestimulus19.png,TMTstop-A_1_2greenlinestimulus19.png,TMTstop-A_1_2redlinestimulus19.png,TMT_A,2,47,None,2,1.0,78.2614974975586,78.2614974975586,0.0,,1.0,1.0,0.0,1,2,0.09326379999401979,0.14738429998396896,78.2614974975586,78.2614974975586,0.0,,21.0
23,['3'],3,TMTstop-A_1_2linestimulus20.png,TMTstop-A_1_2greenlinestimulus20.png,TMTstop-A_1_2redlinestimulus20.png,TMT_A,2,48,None,2,1.0,78.46174621582031,78.46174621582031,0.0,,1.0,1.0,0.0,3,0.0797422000032384,78.46174621582031,78.46174621582031,0.0,,22.0
24,['2'],2,TMTstop-A_1_2linestimulus21.png,TMTstop-A_1_2greenlinestimulus21.png,TMTstop-A_1_2redlinestimulus21.png,TMT_A,2,49,None,2,1.0,78.60297393798828,78.60297393798828,0.0,,1.0,1.0,0.0,1,2,0.07663660001708195,0.11398039999767207,78.60297393798828,78.60297393798828,0.0,,23.0
25,['3'],3,TMTstop-A_1_2linestimulus22.png,TMTstop-A_1_2greenlinestimulus22.png,TMTstop-A_1_2redlinestimulus22.png,TMT_A,2,50,None,2,1.0,78.79471588134766,78.79471588134766,0.0,,1.0,1.0,0.0,3,0.087986099999398,78.79471588134766,78.79471588134766,0.0,,24.0
None,None,None,TMTstop-A_1_2linestimulus23.png,TMTstop-A_1_2greenlinestimulus23.png,TMTstop-A_1_2redlinestimulus23.png,TMT_A,2,Feedback_last,None,2,1.0,78.94440460205078,78.94440460205078,0.0,,0.0,0.0,0.0,1,2,3,0.07432230000267737,0.11268649998237379,0.2490457999811042,78.94440460205078,78.94440460205078,0.0,,25.0

extraInfo
participant,
session,001
date,2022_May_11_1110
expName,TMT_fmri
psychopyVersion,2021.2.3
frameRate,59.94176058854945
﻿NumberLetter,corrAns,Correct,StimFile,Correct_StimFile,False_StimFile,Version,Paper,TrialNumber_Version,Round,Block,n,Stim.started_mean,Stim.started_raw,Stim.started_std,Stim.stopped_raw,key_resp_2.corr_mean,key_resp_2.corr_raw,key_resp_2.corr_std,key_resp_2.keys_raw,key_resp_2.rt_raw,key_resp_2.started_mean,key_resp_2.started_raw,key_resp_2.started_std,key_resp_2.stopped_raw,order
1,['1'],1,TMTstop-A_1_3.png,TMTstop-A_1_3.png,TMTstop-A_1_3.png,TMT_A,3,51,None,2,1.0,83.10002136230469,83.10002136230469,0.0,,1.0,1.0,0.0,2,1,0.5844114999927115,0.6148638000013307,83.10002136230469,83.10002136230469,0.0,,0.0
2,['3'],3,TMTstop-A_1_3.png,TMTstop-A_1_3firstgreen.png,TMTstop-A_1_3firstred.png,TMT_A,3,52,None,2,1.0,83.7923583984375,83.7923583984375,0.0,,1.0,1.0,0.0,3,0.10560599999735132,83.7923583984375,83.7923583984375,0.0,,1.0
3,['2'],2,TMTstop-A_1_3linestimulus0.png,TMTstop-A_1_3greenlinestimulus0.png,TMTstop-A_1_3redlinestimulus0.png,TMT_A,3,53,None,2,1.0,83.95907592773438,83.95907592773438,0.0,,1.0,1.0,0.0,1,2,0.0835961000120733,0.15148810000391677,83.95907592773438,83.95907592773438,0.0,,2.0
4,['3'],3,TMTstop-A_1_3linestimulus1.png,TMTstop-A_1_3greenlinestimulus1.png,TMTstop-A_1_3redlinestimulus1.png,TMT_A,3,54,None,2,1.0,84.2061538696289,84.2061538696289,0.0,,1.0,1.0,0.0,3,0.028231100004632026,84.2061538696289,84.2061538696289,0.0,,3.0
5,['2'],2,TMTstop-A_1_3linestimulus2.png,TMTstop-A_1_3greenlinestimulus2.png,TMTstop-A_1_3redlinestimulus2.png,TMT_A,3,55,None,2,1.0,84.32379913330078,84.32379913330078,0.0,,1.0,1.0,0.0,1,2,0.036896999983582646,0.13884309999411926,84.32379913330078,84.32379913330078,0.0,,4.0
6,['1'],1,TMTstop-A_1_3linestimulus3.png,TMTstop-A_1_3greenlinestimulus3.png,TMTstop-A_1_3redlinestimulus3.png,TMT_A,3,56,None,2,1.0,84.54493713378906,84.54493713378906,0.0,,1.0,1.0,0.0,3,1,0.0017477000073995441,0.1494644999911543,84.54493713378906,84.54493713378906,0.0,,5.0
7,['3'],3,TMTstop-A_1_3linestimulus4.png,TMTstop-A_1_3greenlinestimulus4.png,TMTstop-A_1_3redlinestimulus4.png,TMT_A,3,57,None,2,1.0,84.75556945800781,84.75556945800781,0.0,,1.0,1.0,0.0,2,3,0.02786450000712648,0.10510340001201257,84.75556945800781,84.75556945800781,0.0,,6.0
8,['1'],1,TMTstop-A_1_3linestimulus5.png,TMTstop-A_1_3greenlinestimulus5.png,TMTstop-A_1_3redlinestimulus5.png,TMT_A,3,58,None,2,1.0,84.93867492675781,84.93867492675781,0.0,,1.0,1.0,0.0,1,0.03556010001921095,84.93867492675781,84.93867492675781,0.0,,7.0
9,['3'],3,TMTstop-A_1_3linestimulus6.png,TMTstop-A_1_3greenlinestimulus6.png,TMTstop-A_1_3redlinestimulus6.png,TMT_A,3,59,None,2,1.0,85.03865051269531,85.03865051269531,0.0,,1.0,1.0,0.0,2,3,0.004170100000919774,0.1014689999865368,85.03865051269531,85.03865051269531,0.0,,8.0
10,['2'],2,TMTstop-A_1_3linestimulus7.png,TMTstop-A_1_3greenlinestimulus7.png,TMTstop-A_1_3redlinestimulus7.png,TMT_A,3,60,None,2,1.0,85.21724700927734,85.21724700927734,0.0,,1.0,1.0,0.0,1,2,0.06400360001134686,0.1512434000032954,85.21724700927734,85.21724700927734,0.0,,9.0
11,['3'],3,TMTstop-A_1_3linestimulus8.png,TMTstop-A_1_3greenlinestimulus8.png,TMTstop-A_1_3redlinestimulus8.png,TMT_A,3,61,None,2,1.0,85.44743347167969,85.44743347167969,0.0,,1.0,1.0,0.0,3,0.004521399998338893,85.44743347167969,85.44743347167969,0.0,,10.0
12,['2'],2,TMTstop-A_1_3linestimulus9.png,TMTstop-A_1_3greenlinestimulus9.png,TMTstop-A_1_3redlinestimulus9.png,TMT_A,3,62,None,2,1.0,85.52175903320312,85.52175903320312,0.0,,1.0,1.0,0.0,1,2,0.07745489999069832,0.16921799999545328,85.52175903320312,85.52175903320312,0.0,,11.0
13,['1'],1,TMTstop-A_1_3linestimulus10.png,TMTstop-A_1_3greenlinestimulus10.png,TMTstop-A_1_3redlinestimulus10.png,TMT_A,3,63,None,2,1.0,85.76665496826172,85.76665496826172,0.0,,1.0,1.0,0.0,3,1,0.020771000010427088,0.1571103000023868,85.76665496826172,85.76665496826172,0.0,,12.0
14,['2'],2,TMTstop-A_1_3linestimulus11.png,TMTstop-A_1_3greenlinestimulus11.png,TMTstop-A_1_3redlinestimulus11.png,TMT_A,3,64,None,2,1.0,86.01680755615234,86.01680755615234,0.0,,1.0,1.0,0.0,2,-0.032625499996356666,86.01680755615234,86.01680755615234,0.0,,13.0
15,['3'],3,TMTstop-A_1_3linestimulus12.png,TMTstop-A_1_3greenlinestimulus12.png,TMTstop-A_1_3redlinestimulus12.png,TMT_A,3,65,None,2,1.0,86.06684875488281,86.06684875488281,0.0,,1.0,1.0,0.0,3,0.03776340000331402,86.06684875488281,86.06684875488281,0.0,,14.0
16,['2'],2,TMTstop-A_1_3linestimulus13.png,TMTstop-A_1_3greenlinestimulus13.png,TMTstop-A_1_3redlinestimulus13.png,TMT_A,3,66,None,2,1.0,86.16693878173828,86.16693878173828,0.0,,1.0,1.0,0.0,1,2,0.08844620001036674,0.15328699999372475,86.16693878173828,86.16693878173828,0.0,,15.0
17,['3'],3,TMTstop-A_1_3linestimulus14.png,TMTstop-A_1_3greenlinestimulus14.png,TMTstop-A_1_3redlinestimulus14.png,TMT_A,3,67,None,2,1.0,86.4242172241211,86.4242172241211,0.0,,1.0,1.0,0.0,3,0.008100500010186806,86.4242172241211,86.4242172241211,0.0,,16.0
18,['2'],2,TMTstop-A_1_3linestimulus15.png,TMTstop-A_1_3greenlinestimulus15.png,TMTstop-A_1_3redlinestimulus15.png,TMT_A,3,68,None,2,1.0,86.51434326171875,86.51434326171875,0.0,,1.0,1.0,0.0,1,2,0.042798399983439595,0.14008949999697506,86.51434326171875,86.51434326171875,0.0,,17.0
19,['3'],3,TMTstop-A_1_3linestimulus16.png,TMTstop-A_1_3greenlinestimulus16.png,TMTstop-A_1_3redlinestimulus16.png,TMT_A,3,69,None,2,1.0,86.71450805664062,86.71450805664062,0.0,,1.0,1.0,0.0,3,0.03492989999358542,86.71450805664062,86.71450805664062,0.0,,18.0
20,['1'],1,TMTstop-A_1_3linestimulus17.png,TMTstop-A_1_3greenlinestimulus17.png,TMTstop-A_1_3redlinestimulus17.png,TMT_A,3,70,None,2,1.0,86.81462860107422,86.81462860107422,0.0,,1.0,1.0,0.0,1,0.110987699998077,86.81462860107422,86.81462860107422,0.0,,19.0
21,['2'],2,TMTstop-A_1_3linestimulus18.png,TMTstop-A_1_3greenlinestimulus18.png,TMTstop-A_1_3redlinestimulus18.png,TMT_A,3,71,None,2,1.0,86.9809799194336,86.9809799194336,0.0,,1.0,1.0,0.0,2,0.01104380001197569,86.9809799194336,86.9809799194336,0.0,,20.0
22,['3'],3,TMTstop-A_1_3linestimulus19.png,TMTstop-A_1_3greenlinestimulus19.png,TMTstop-A_1_3redlinestimulus19.png,TMT_A,3,72,None,2,1.0,87.04823303222656,87.04823303222656,0.0,,1.0,1.0,0.0,3,0.058887299994239584,87.04823303222656,87.04823303222656,0.0,,21.0
23,['2'],2,TMTstop-A_1_3linestimulus20.png,TMTstop-A_1_3greenlinestimulus20.png,TMTstop-A_1_3redlinestimulus20.png,TMT_A,3,73,None,2,1.0,87.16508483886719,87.16508483886719,0.0,,1.0,1.0,0.0,1,2,0.080960999999661,0.1395265000173822,87.16508483886719,87.16508483886719,0.0,,22.0
24,['1'],1,TMTstop-A_1_3linestimulus21.png,TMTstop-A_1_3greenlinestimulus21.png,TMTstop-A_1_3redlinestimulus21.png,TMT_A,3,74,None,2,1.0,87.35633850097656,87.35633850097656,0.0,,1.0,1.0,0.0,3,1,0.053405100014060736,0.2113666000077501,87.35633850097656,87.35633850097656,0.0,,23.0
25,['2'],2,TMTstop-A_1_3linestimulus22.png,TMTstop-A_1_3greenlinestimulus22.png,TMTstop-A_1_3redlinestimulus22.png,TMT_A,3,75,None,2,1.0,87.63371276855469,87.63371276855469,0.0,,1.0,1.0,0.0,2,0.024966099997982383,87.63371276855469,87.63371276855469,0.0,,24.0
None,None,None,TMTstop-A_1_3linestimulus23.png,TMTstop-A_1_3greenlinestimulus23.png,TMTstop-A_1_3redlinestimulus23.png,TMT_A,3,Feedback_last,None,2,1.0,87.73377227783203,87.73377227783203,0.0,,0.0,0.0,0.0,3,1,2,0.024509199982276186,0.15976529999170452,0.3736260999867227,87.73377227783203,87.73377227783203,0.0,,25.0

extraInfo
participant,
session,001
date,2022_May_11_1110
expName,TMT_fmri
psychopyVersion,2021.2.3
frameRate,59.94176058854945
