Block_paper,Condition_rows,NumberLetter,corrAns,Correct,StimFile,Correct_StimFile,False_StimFile,Version,Paper,TrialNumber_Version,Round,Block,TrialNumber_total,Blocks_Control1.thisRepN,Blocks_Control1.thisTrialN,Blocks_Control1.thisN,Blocks_Control1.thisIndex,trials_Control1.thisRepN,trials_Control1.thisTrialN,trials_Control1.thisN,trials_Control1.thisIndex,Blocks_TMTA1.thisRepN,Blocks_TMTA1.thisTrialN,Blocks_TMTA1.thisN,Blocks_TMTA1.thisIndex,trials_TMTA1.thisRepN,trials_TMTA1.thisTrialN,trials_TMTA1.thisN,trials_TMTA1.thisIndex,Blocks_Control2.thisRepN,Blocks_Control2.thisTrialN,Blocks_Control2.thisN,Blocks_Control2.thisIndex,trials_Control2.thisRepN,trials_Control2.thisTrialN,trials_Control2.thisN,trials_Control2.thisIndex,Blocks_TMTB1.thisRepN,Blocks_TMTB1.thisTrialN,Blocks_TMTB1.thisN,Blocks_TMTB1.thisIndex,trials_TMTB1.thisRepN,trials_TMTB1.thisTrialN,trials_TMTB1.thisN,trials_TMTB1.thisIndex,Blocks_Control3.thisRepN,Blocks_Control3.thisTrialN,Blocks_Control3.thisN,Blocks_Control3.thisIndex,trials_Control3.thisRepN,trials_Control3.thisTrialN,trials_Control3.thisN,trials_Control3.thisIndex,Blocks_TMTA2.thisRepN,Blocks_TMTA2.thisTrialN,Blocks_TMTA2.thisN,Blocks_TMTA2.thisIndex,trials_TMTA2.thisRepN,trials_TMTA2.thisTrialN,trials_TMTA2.thisN,trials_TMTA2.thisIndex,Blocks_Control4.thisRepN,Blocks_Control4.thisTrialN,Blocks_Control4.thisN,Blocks_Control4.thisIndex,trials_Control4.thisRepN,trials_Control4.thisTrialN,trials_Control4.thisN,trials_Control4.thisIndex,Blocks_TMTB2.thisRepN,Blocks_TMTB2.thisTrialN,Blocks_TMTB2.thisN,Blocks_TMTB2.thisIndex,trials_TMTB2.thisRepN,trials_TMTB2.thisTrialN,trials_TMTB2.thisN,trials_TMTB2.thisIndex,key_resp_7.keys,key_resp_7.rt,key_resp_7.started,key_resp_7.stopped,polygon_2.started,polygon_2.stopped,text_2.started,text_2.stopped,Attempts,First_attempt,ResponseClock,Stim.started,Stim.stopped,key_resp_2.keys,key_resp_2.corr,key_resp_2.rt,key_resp_2.started,key_resp_2.stopped,Info2.started,Info2.stopped,participant,session,date,expName,psychopyVersion,frameRate,
,,,,,,,,,,,,,,,,,,,,,,,,,,,,,,,,,,,,,,,,,,,,,,,,,,,,,,,,,,,,,,,,,,,,,,,,,,,,,,s,5.074023099965416,14.162425100046676,None,,,,,,,,,,,,,,,,,,001,2022_Dec_20_1551,TMT_fmri,2021.2.3,59.8764031355123,
C1,0:26,1,['2'],2,Images/TMTstop-control_1_1.png,Images/TMTstop-control_1_1.png,Images/TMTstop-control_1_1.png,TMT_Control,C1,1,1,1,1,0,0,0,0,0,0,0,0,,,,,,,,,,,,,,,,,,,,,,,,,,,,,,,,,,,,,,,,,,,,,,,,,,,,,,,,,,,,,14.162425100046676,None,32.762438000005204,None,3,0,10.247407599992584,40.173199000011664,None,"['1', '3', '2']",1,"[2.563803300028667, 2.7786491999868304, 2.8035153999808244]",40.173199000011664,None,,,,001,2022_Dec_20_1551,TMT_fmri,2021.2.3,59.8764031355123,
C1,0:26,2,['1'],1,Images/TMTstop-control_1_1.png,Images/TMTstop-control_1_1firstgreen.png,Images/TMTstop-control_1_1firstred.png,TMT_Control,C1,2,None,1,2,0,0,0,0,0,1,1,1,,,,,,,,,,,,,,,,,,,,,,,,,,,,,,,,,,,,,,,,,,,,,,,,,,,,,,,,,,,,,,,,,1,1,10.456500800035428,43.04367230000207,None,['1'],1,[0.1489100999897346],43.04367230000207,None,,,,001,2022_Dec_20_1551,TMT_fmri,2021.2.3,59.8764031355123,
C1,0:26,3,['3'],3,Images/TMTstop-control_1_1linestimulus0.png,Images/TMTstop-control_1_1greenlinestimulus0.png,Images/TMTstop-control_1_1redlinestimulus0.png,TMT_Control,C1,3,None,1,3,0,0,0,0,0,2,2,2,,,,,,,,,,,,,,,,,,,,,,,,,,,,,,,,,,,,,,,,,,,,,,,,,,,,,,,,,,,,,,,,,1,1,10.606363500002772,43.24744300002931,None,['3'],1,[0.08552200003759935],43.24744300002931,None,,,,001,2022_Dec_20_1551,TMT_fmri,2021.2.3,59.8764031355123,
C1,0:26,4,['1'],1,Images/TMTstop-control_1_1linestimulus1.png,Images/TMTstop-control_1_1greenlinestimulus1.png,Images/TMTstop-control_1_1redlinestimulus1.png,TMT_Control,C1,4,None,1,4,0,0,0,0,0,3,3,3,,,,,,,,,,,,,,,,,,,,,,,,,,,,,,,,,,,,,,,,,,,,,,,,,,,,,,,,,,,,,,,,,2,0,10.781475300027523,43.40534840000328,None,"['2', '1']",1,"[0.005808099987916648, 0.09704399999463931]",43.40534840000328,None,,,,001,2022_Dec_20_1551,TMT_fmri,2021.2.3,59.8764031355123,
C1,0:26,5,['3'],3,Images/TMTstop-control_1_1linestimulus2.png,Images/TMTstop-control_1_1greenlinestimulus2.png,Images/TMTstop-control_1_1redlinestimulus2.png,TMT_Control,C1,5,None,1,5,0,0,0,0,0,4,4,4,,,,,,,,,,,,,,,,,,,,,,,,,,,,,,,,,,,,,,,,,,,,,,,,,,,,,,,,,,,,,,,,,1,1,10.918378400034271,43.576269200013485,None,['3'],1,[0.07736060000024736],43.576269200013485,None,,,,001,2022_Dec_20_1551,TMT_fmri,2021.2.3,59.8764031355123,
C1,0:26,6,['1'],1,Images/TMTstop-control_1_1linestimulus3.png,Images/TMTstop-control_1_1greenlinestimulus3.png,Images/TMTstop-control_1_1redlinestimulus3.png,TMT_Control,C1,6,None,1,6,0,0,0,0,0,5,5,5,,,,,,,,,,,,,,,,,,,,,,,,,,,,,,,,,,,,,,,,,,,,,,,,,,,,,,,,,,,,,,,,,2,0,11.108507300028577,43.70986550004454,None,"['2', '1']",1,"[0.009660699986852705, 0.11152699997182935]",43.70986550004454,None,,,,001,2022_Dec_20_1551,TMT_fmri,2021.2.3,59.8764031355123,
C1,0:26,7,['2'],2,Images/TMTstop-control_1_1linestimulus4.png,Images/TMTstop-control_1_1greenlinestimulus4.png,Images/TMTstop-control_1_1redlinestimulus4.png,TMT_Control,C1,7,None,1,7,0,0,0,0,0,6,6,6,,,,,,,,,,,,,,,,,,,,,,,,,,,,,,,,,,,,,,,,,,,,,,,,,,,,,,,,,,,,,,,,,2,0,11.291441600013059,43.899110199999996,None,"['3', '2']",1,"[0.08415000000968575, 0.12634220003383234]",43.899110199999996,None,,,,001,2022_Dec_20_1551,TMT_fmri,2021.2.3,59.8764031355123,
C1,0:26,8,['1'],1,Images/TMTstop-control_1_1linestimulus4.png,Images/TMTstop-control_1_1greenlinestimulus5.png,Images/TMTstop-control_1_1redlinestimulus5.png,TMT_Control,C1,8,None,1,8,0,0,0,0,0,7,7,7,,,,,,,,,,,,,,,,,,,,,,,,,,,,,,,,,,,,,,,,,,,,,,,,,,,,,,,,,,,,,,,,,1,1,11.399470600008499,44.08789290004643,None,['1'],1,[0.05325330002233386],44.08789290004643,None,,,,001,2022_Dec_20_1551,TMT_fmri,2021.2.3,59.8764031355123,
C1,0:26,9,['3'],3,Images/TMTstop-control_1_1linestimulus6.png,Images/TMTstop-control_1_1greenlinestimulus6.png,Images/TMTstop-control_1_1redlinestimulus6.png,TMT_Control,C1,9,None,1,9,0,0,0,0,0,8,8,8,,,,,,,,,,,,,,,,,,,,,,,,,,,,,,,,,,,,,,,,,,,,,,,,,,,,,,,,,,,,,,,,,1,1,11.557510900020134,44.19703680003295,None,['3'],1,[0.10121900000376627],44.19703680003295,None,,,,001,2022_Dec_20_1551,TMT_fmri,2021.2.3,59.8764031355123,
C1,0:26,10,['2'],2,Images/TMTstop-control_1_1linestimulus7.png,Images/TMTstop-control_1_1greenlinestimulus7.png,Images/TMTstop-control_1_1redlinestimulus7.png,TMT_Control,C1,10,None,1,10,0,0,0,0,0,9,9,9,,,,,,,,,,,,,,,,,,,,,,,,,,,,,,,,,,,,,,,,,,,,,,,,,,,,,,,,,,,,,,,,,1,1,11.641424800036475,44.34833410003921,None,['2'],1,[0.005620800016913563],44.34833410003921,None,,,,001,2022_Dec_20_1551,TMT_fmri,2021.2.3,59.8764031355123,
C1,0:26,11,['1'],1,Images/TMTstop-control_1_1linestimulus8.png,Images/TMTstop-control_1_1greenlinestimulus8.png,Images/TMTstop-control_1_1redlinestimulus8.png,TMT_Control,C1,11,None,1,11,0,0,0,0,0,10,10,10,,,,,,,,,,,,,,,,,,,,,,,,,,,,,,,,,,,,,,,,,,,,,,,,,,,,,,,,,,,,,,,,,1,1,11.740607900021132,44.431781199993566,None,['1'],1,[0.042811399966012686],44.431781199993566,None,,,,001,2022_Dec_20_1551,TMT_fmri,2021.2.3,59.8764031355123,
C1,0:26,12,['2'],2,Images/TMTstop-control_1_1linestimulus9.png,Images/TMTstop-control_1_1greenlinestimulus9.png,Images/TMTstop-control_1_1redlinestimulus9.png,TMT_Control,C1,12,None,1,12,0,0,0,0,0,11,11,11,,,,,,,,,,,,,,,,,,,,,,,,,,,,,,,,,,,,,,,,,,,,,,,,,,,,,,,,,,,,,,,,,2,0,11.941501400026027,44.53183970000828,None,"['3', '2']",1,"[0.08842129999538884, 0.13761239999439567]",44.53183970000828,None,,,,001,2022_Dec_20_1551,TMT_fmri,2021.2.3,59.8764031355123,
C1,0:26,13,['3'],3,Images/TMTstop-control_1_1linestimulus10.png,Images/TMTstop-control_1_1greenlinestimulus10.png,Images/TMTstop-control_1_1redlinestimulus10.png,TMT_Control,C1,13,None,1,13,0,0,0,0,0,12,12,12,,,,,,,,,,,,,,,,,,,,,,,,,,,,,,,,,,,,,,,,,,,,,,,,,,,,,,,,,,,,,,,,,5,0,12.532499800028745,44.73235180001939,None,"['1', '3', '2', '1', '3']",1,"[0.032474700012244284, 0.1982531999819912, 0.23489749996224418, 0.35230470000533387, 0.5103471999755129]",44.73235180001939,None,,,,001,2022_Dec_20_1551,TMT_fmri,2021.2.3,59.8764031355123,
C1,0:26,14,['2'],2,Images/TMTstop-control_1_1linestimulus11.png,Images/TMTstop-control_1_1greenlinestimulus11.png,Images/TMTstop-control_1_1redlinestimulus11.png,TMT_Control,C1,14,None,1,14,0,0,0,0,0,13,13,13,,,,,,,,,,,,,,,,,,,,,,,,,,,,,,,,,,,,,,,,,,,,,,,,,,,,,,,,,,,,,,,,,1,1,12.582346000010148,45.3229258999927,None,['2'],1,[-0.02759200002765283],45.3229258999927,None,,,,001,2022_Dec_20_1551,TMT_fmri,2021.2.3,59.8764031355123,
C1,0:26,15,['3'],3,Images/TMTstop-control_1_1linestimulus12.png,Images/TMTstop-control_1_1greenlinestimulus12.png,Images/TMTstop-control_1_1redlinestimulus12.png,TMT_Control,C1,15,None,1,15,0,0,0,0,0,14,14,14,,,,,,,,,,,,,,,,,,,,,,,,,,,,,,,,,,,,,,,,,,,,,,,,,,,,,,,,,,,,,,,,,4,0,13.269350100017618,45.37562450004043,None,"['1', '1', '2', '3']",1,"[0.006892100034747273, 0.37568420002935454, 0.5881430000299588, 0.5957583000417799]",45.37562450004043,None,,,,001,2022_Dec_20_1551,TMT_fmri,2021.2.3,59.8764031355123,
C1,0:26,16,['2'],2,Images/TMTstop-control_1_1linestimulus13.png,Images/TMTstop-control_1_1greenlinestimulus13.png,Images/TMTstop-control_1_1redlinestimulus13.png,TMT_Control,C1,16,None,1,16,0,0,0,0,0,15,15,15,,,,,,,,,,,,,,,,,,,,,,,,,,,,,,,,,,,,,,,,,,,,,,,,,,,,,,,,,,,,,,,,,6,0,13.92747390002478,46.061577400017995,None,"['1', '2', '3', '1', '3', '2']",1,"[0.04600129998289049, 0.21555199997965246, 0.21643430000403896, 0.3670138000161387, 0.5230076999869198, 0.571432399970945]",46.061577400017995,None,,,,001,2022_Dec_20_1551,TMT_fmri,2021.2.3,59.8764031355123,
C1,0:26,17,['3'],3,Images/TMTstop-control_1_1linestimulus14.png,Images/TMTstop-control_1_1greenlinestimulus14.png,Images/TMTstop-control_1_1redlinestimulus14.png,TMT_Control,C1,17,None,1,17,0,0,0,0,0,16,16,16,,,,,,,,,,,,,,,,,,,,,,,,,,,,,,,,,,,,,,,,,,,,,,,,,,,,,,,,,,,,,,,,,2,0,14.167521700030193,46.71839739999268,None,"['1', '3']",1,"[0.018187300011049956, 0.18309780000708997]",46.71839739999268,None,,,,001,2022_Dec_20_1551,TMT_fmri,2021.2.3,59.8764031355123,
C1,0:26,18,['2'],2,Images/TMTstop-control_1_1linestimulus15.png,Images/TMTstop-control_1_1greenlinestimulus15.png,Images/TMTstop-control_1_1redlinestimulus15.png,TMT_Control,C1,18,None,1,18,0,0,0,0,0,17,17,17,,,,,,,,,,,,,,,,,,,,,,,,,,,,,,,,,,,,,,,,,,,,,,,,,,,,,,,,,,,,,,,,,1,1,14.21748779999325,46.958079700008966,None,['2'],1,[-0.034633400035090744],46.958079700008966,None,,,,001,2022_Dec_20_1551,TMT_fmri,2021.2.3,59.8764031355123,
C1,0:26,19,['1'],1,Images/TMTstop-control_1_1linestimulus16.png,Images/TMTstop-control_1_1greenlinestimulus16.png,Images/TMTstop-control_1_1redlinestimulus16.png,TMT_Control,C1,19,None,1,19,0,0,0,0,0,18,18,18,,,,,,,,,,,,,,,,,,,,,,,,,,,,,,,,,,,,,,,,,,,,,,,,,,,,,,,,,,,,,,,,,1,1,14.318406700040214,47.0091112999944,None,['1'],1,[0.05109960003755987],47.0091112999944,None,,,,001,2022_Dec_20_1551,TMT_fmri,2021.2.3,59.8764031355123,
C1,0:26,20,['3'],3,Images/TMTstop-control_1_1linestimulus17.png,Images/TMTstop-control_1_1greenlinestimulus17.png,Images/TMTstop-control_1_1redlinestimulus17.png,TMT_Control,C1,20,None,1,20,0,0,0,0,0,19,19,19,,,,,,,,,,,,,,,,,,,,,,,,,,,,,,,,,,,,,,,,,,,,,,,,,,,,,,,,,,,,,,,,,1,1,14.509508199989796,47.11612800002331,None,['3'],1,[0.1295250999974087],47.11612800002331,None,,,,001,2022_Dec_20_1551,TMT_fmri,2021.2.3,59.8764031355123,
C1,0:26,21,['1'],1,Images/TMTstop-control_1_1linestimulus18.png,Images/TMTstop-control_1_1greenlinestimulus18.png,Images/TMTstop-control_1_1redlinestimulus18.png,TMT_Control,C1,21,None,1,21,0,0,0,0,0,20,20,20,,,,,,,,,,,,,,,,,,,,,,,,,,,,,,,,,,,,,,,,,,,,,,,,,,,,,,,,,,,,,,,,,2,0,14.770425800001249,47.2999730000156,None,"['2', '1']",1,"[-0.015864700020756572, 0.1716471000108868]",47.2999730000156,None,,,,001,2022_Dec_20_1551,TMT_fmri,2021.2.3,59.8764031355123,
C1,0:26,22,['2'],2,Images/TMTstop-control_1_1linestimulus19.png,Images/TMTstop-control_1_1greenlinestimulus19.png,Images/TMTstop-control_1_1redlinestimulus19.png,TMT_Control,C1,22,None,1,22,0,0,0,0,0,21,21,21,,,,,,,,,,,,,,,,,,,,,,,,,,,,,,,,,,,,,,,,,,,,,,,,,,,,,,,,,,,,,,,,,1,1,15.520512500021141,47.56110290001379,None,['2'],1,[0.694446399982553],47.56110290001379,None,,,,001,2022_Dec_20_1551,TMT_fmri,2021.2.3,59.8764031355123,
C1,0:26,23,['3'],3,Images/TMTstop-control_1_1linestimulus20.png,Images/TMTstop-control_1_1greenlinestimulus20.png,Images/TMTstop-control_1_1redlinestimulus20.png,TMT_Control,C1,23,None,1,23,0,0,0,0,0,22,22,22,,,,,,,,,,,,,,,,,,,,,,,,,,,,,,,,,,,,,,,,,,,,,,,,,,,,,,,,,,,,,,,,,1,1,15.912515400035772,48.31930030003423,None,['3'],1,[0.3345740000368096],48.31930030003423,None,,,,001,2022_Dec_20_1551,TMT_fmri,2021.2.3,59.8764031355123,
C1,0:26,24,['2'],2,Images/TMTstop-control_1_1linestimulus21.png,Images/TMTstop-control_1_1greenlinestimulus21.png,Images/TMTstop-control_1_1redlinestimulus21.png,TMT_Control,C1,24,None,1,24,0,0,0,0,0,23,23,23,,,,,,,,,,,,,,,,,,,,,,,,,,,,,,,,,,,,,,,,,,,,,,,,,,,,,,,,,,,,,,,,,1,1,16.307522199989762,48.71123620000435,None,['2'],1,[0.31840119999833405],48.71123620000435,None,,,,001,2022_Dec_20_1551,TMT_fmri,2021.2.3,59.8764031355123,
C1,0:26,25,['1'],1,Images/TMTstop-control_1_1linestimulus22.png,Images/TMTstop-control_1_1greenlinestimulus22.png,Images/TMTstop-control_1_1redlinestimulus22.png,TMT_Control,C1,25,None,1,25,0,0,0,0,0,24,24,24,,,,,,,,,,,,,,,,,,,,,,,,,,,,,,,,,,,,,,,,,,,,,,,,,,,,,,,,,,,,,,,,,1,1,16.632697099994402,49.10664870002074,None,['1'],1,[0.2628672000137158],49.10664870002074,None,,,,001,2022_Dec_20_1551,TMT_fmri,2021.2.3,59.8764031355123,
C1,0:26,None,None,None,Images/TMTstop-control_1_1linestimulus23.png,Images/TMTstop-control_1_1greenlinestimulus23.png,Images/TMTstop-control_1_1redlinestimulus23.png,TMT_Control,C1,Feedback_last,None,1,Feedback_last,0,0,0,0,0,25,25,25,,,,,,,,,,,,,,,,,,,,,,,,,,,,,,,,,,,,,,,,,,,,,,,,,,,,,,,,,,,,,,,,,0,0,,49.431184000044595,None,None,1,,49.431184000044595,None,,,,001,2022_Dec_20_1551,TMT_fmri,2021.2.3,59.8764031355123,
C2,26:52,1,['2'],2,Images/TMTstop-control_1_2.png,Images/TMTstop-control_1_2.png,Images/TMTstop-control_1_2.png,TMT_Control,C2,26,None,1,26,0,1,1,1,0,0,0,0,,,,,,,,,,,,,,,,,,,,,,,,,,,,,,,,,,,,,,,,,,,,,,,,,,,,,,,,,,,,,,,,,1,1,21.64833150000777,53.73480560001917,None,['2'],1,[0.6468773999949917],53.73480560001917,None,,,,001,2022_Dec_20_1551,TMT_fmri,2021.2.3,59.8764031355123,
C2,26:52,2,['3'],3,Images/TMTstop-control_1_2.png,Images/TMTstop-control_1_2firstgreen.png,Images/TMTstop-control_1_2firstred.png,TMT_Control,C2,27,None,1,27,0,1,1,1,0,1,1,1,,,,,,,,,,,,,,,,,,,,,,,,,,,,,,,,,,,,,,,,,,,,,,,,,,,,,,,,,,,,,,,,,1,1,21.706458500004373,54.44768860004842,None,['3'],1,[-0.008459000033326447],54.44768860004842,None,,,,001,2022_Dec_20_1551,TMT_fmri,2021.2.3,59.8764031355123,
C2,26:52,3,['2'],2,Images/TMTstop-control_1_2linestimulus0.png,Images/TMTstop-control_1_2greenlinestimulus0.png,Images/TMTstop-control_1_2redlinestimulus0.png,TMT_Control,C2,28,None,1,28,0,1,1,1,0,2,2,2,,,,,,,,,,,,,,,,,,,,,,,,,,,,,,,,,,,,,,,,,,,,,,,,,,,,,,,,,,,,,,,,,3,0,22.080490500025917,54.497722500003874,None,"['1', '3', '2']",1,"[0.06299940001918003, 0.22950680000940338, 0.3235854000085965]",54.497722500003874,None,,,,001,2022_Dec_20_1551,TMT_fmri,2021.2.3,59.8764031355123,
C2,26:52,4,['3'],3,Images/TMTstop-control_1_2linestimulus1.png,Images/TMTstop-control_1_2greenlinestimulus1.png,Images/TMTstop-control_1_2redlinestimulus1.png,TMT_Control,C2,29,None,1,29,0,1,1,1,0,3,3,3,,,,,,,,,,,,,,,,,,,,,,,,,,,,,,,,,,,,,,,,,,,,,,,,,,,,,,,,,,,,,,,,,2,0,22.35443300002953,54.87130550004076,None,"['1', '3']",1,"[0.010277000023052096, 0.17721530003473163]",54.87130550004076,None,,,,001,2022_Dec_20_1551,TMT_fmri,2021.2.3,59.8764031355123,
C2,26:52,5,['2'],2,Images/TMTstop-control_1_2linestimulus2.png,Images/TMTstop-control_1_2greenlinestimulus2.png,Images/TMTstop-control_1_2redlinestimulus2.png,TMT_Control,C2,30,None,1,30,0,1,1,1,0,4,4,4,,,,,,,,,,,,,,,,,,,,,,,,,,,,,,,,,,,,,,,,,,,,,,,,,,,,,,,,,,,,,,,,,1,1,22.40454930003034,55.144999300013296,None,['2'],1,[-0.04078420001314953],55.144999300013296,None,,,,001,2022_Dec_20_1551,TMT_fmri,2021.2.3,59.8764031355123,
C2,26:52,6,['3'],3,Images/TMTstop-control_1_2linestimulus3.png,Images/TMTstop-control_1_2greenlinestimulus3.png,Images/TMTstop-control_1_2redlinestimulus3.png,TMT_Control,C2,31,None,1,31,0,1,1,1,0,5,5,5,,,,,,,,,,,,,,,,,,,,,,,,,,,,,,,,,,,,,,,,,,,,,,,,,,,,,,,,,,,,,,,,,2,0,22.688488200015854,55.1949666000437,None,"['1', '3']",1,"[0.0675694000092335, 0.2283445000066422]",55.1949666000437,None,,,,001,2022_Dec_20_1551,TMT_fmri,2021.2.3,59.8764031355123,
C2,26:52,7,['2'],2,Images/TMTstop-control_1_2linestimulus4.png,Images/TMTstop-control_1_2greenlinestimulus4.png,Images/TMTstop-control_1_2redlinestimulus4.png,TMT_Control,C2,32,None,1,32,0,1,1,1,0,6,6,6,,,,,,,,,,,,,,,,,,,,,,,,,,,,,,,,,,,,,,,,,,,,,,,,,,,,,,,,,,,,,,,,,1,1,22.738457800005563,55.4788525000331,None,['2'],1,[-0.009574999974574894],55.4788525000331,None,,,,001,2022_Dec_20_1551,TMT_fmri,2021.2.3,59.8764031355123,
C2,26:52,8,['1'],1,Images/TMTstop-control_1_2linestimulus4.png,Images/TMTstop-control_1_2greenlinestimulus5.png,Images/TMTstop-control_1_2redlinestimulus5.png,TMT_Control,C2,33,None,1,33,0,1,1,1,0,7,7,7,,,,,,,,,,,,,,,,,,,,,,,,,,,,,,,,,,,,,,,,,,,,,,,,,,,,,,,,,,,,,,,,,1,1,22.838474499993026,55.52882090001367,None,['1'],1,[0.04898179997690022],55.52882090001367,None,,,,001,2022_Dec_20_1551,TMT_fmri,2021.2.3,59.8764031355123,
C2,26:52,9,['3'],3,Images/TMTstop-control_1_2linestimulus6.png,Images/TMTstop-control_1_2greenlinestimulus6.png,Images/TMTstop-control_1_2redlinestimulus6.png,TMT_Control,C2,34,None,1,34,0,1,1,1,0,8,8,8,,,,,,,,,,,,,,,,,,,,,,,,,,,,,,,,,,,,,,,,,,,,,,,,,,,,,,,,,,,,,,,,,1,1,23.021462000033353,55.62842040002579,None,['3'],1,[0.1254789999802597],55.62842040002579,None,,,,001,2022_Dec_20_1551,TMT_fmri,2021.2.3,59.8764031355123,
C2,26:52,10,['2'],2,Images/TMTstop-control_1_2linestimulus7.png,Images/TMTstop-control_1_2greenlinestimulus7.png,Images/TMTstop-control_1_2redlinestimulus7.png,TMT_Control,C2,35,None,1,35,0,1,1,1,0,9,9,9,,,,,,,,,,,,,,,,,,,,,,,,,,,,,,,,,,,,,,,,,,,,,,,,,,,,,,,,,,,,,,,,,1,1,23.079606100043748,55.8203847000259,None,['2'],1,[-0.044571599981281906],55.8203847000259,None,,,,001,2022_Dec_20_1551,TMT_fmri,2021.2.3,59.8764031355123,
C2,26:52,11,['3'],3,Images/TMTstop-control_1_2linestimulus8.png,Images/TMTstop-control_1_2greenlinestimulus8.png,Images/TMTstop-control_1_2redlinestimulus8.png,TMT_Control,C2,36,None,1,36,0,1,1,1,0,10,10,10,,,,,,,,,,,,,,,,,,,,,,,,,,,,,,,,,,,,,,,,,,,,,,,,,,,,,,,,,,,,,,,,,2,0,23.352454800042324,55.870365100039635,None,"['1', '3']",1,"[0.05825100000947714, 0.205252300016582]",55.870365100039635,None,,,,001,2022_Dec_20_1551,TMT_fmri,2021.2.3,59.8764031355123,
C2,26:52,12,['2'],2,Images/TMTstop-control_1_2linestimulus9.png,Images/TMTstop-control_1_2greenlinestimulus9.png,Images/TMTstop-control_1_2redlinestimulus9.png,TMT_Control,C2,37,None,1,37,0,1,1,1,0,11,11,11,,,,,,,,,,,,,,,,,,,,,,,,,,,,,,,,,,,,,,,,,,,,,,,,,,,,,,,,,,,,,,,,,1,1,23.402432500035502,56.14376720000291,None,['2'],1,[-0.02516790002118796],56.14376720000291,None,,,,001,2022_Dec_20_1551,TMT_fmri,2021.2.3,59.8764031355123,
C2,26:52,13,['3'],3,Images/TMTstop-control_1_2linestimulus10.png,Images/TMTstop-control_1_2greenlinestimulus10.png,Images/TMTstop-control_1_2redlinestimulus10.png,TMT_Control,C2,38,None,1,38,0,1,1,1,0,12,12,12,,,,,,,,,,,,,,,,,,,,,,,,,,,,,,,,,,,,,,,,,,,,,,,,,,,,,,,,,,,,,,,,,2,0,23.69745909998892,56.19329810002819,None,"['1', '3']",1,"[0.07337529998039827, 0.23159079998731613]",56.19329810002819,None,,,,001,2022_Dec_20_1551,TMT_fmri,2021.2.3,59.8764031355123,
C2,26:52,14,['2'],2,Images/TMTstop-control_1_2linestimulus11.png,Images/TMTstop-control_1_2greenlinestimulus11.png,Images/TMTstop-control_1_2redlinestimulus11.png,TMT_Control,C2,39,None,1,39,0,1,1,1,0,13,13,13,,,,,,,,,,,,,,,,,,,,,,,,,,,,,,,,,,,,,,,,,,,,,,,,,,,,,,,,,,,,,,,,,1,1,23.747434200020507,56.48831600003177,None,['2'],1,[-0.043148300028406084],56.48831600003177,None,,,,001,2022_Dec_20_1551,TMT_fmri,2021.2.3,59.8764031355123,
C2,26:52,15,['3'],3,Images/TMTstop-control_1_2linestimulus12.png,Images/TMTstop-control_1_2greenlinestimulus12.png,Images/TMTstop-control_1_2redlinestimulus12.png,TMT_Control,C2,40,None,1,40,0,1,1,1,0,14,14,14,,,,,,,,,,,,,,,,,,,,,,,,,,,,,,,,,,,,,,,,,,,,,,,,,,,,,,,,,,,,,,,,,2,0,24.02845730003901,56.53820640000049,None,"['1', '3']",1,"[0.05378409998957068, 0.2234110999852419]",56.53820640000049,None,,,,001,2022_Dec_20_1551,TMT_fmri,2021.2.3,59.8764031355123,
C2,26:52,16,['1'],1,Images/TMTstop-control_1_2linestimulus13.png,Images/TMTstop-control_1_2greenlinestimulus13.png,Images/TMTstop-control_1_2redlinestimulus13.png,TMT_Control,C2,41,None,1,41,0,1,1,1,0,15,15,15,,,,,,,,,,,,,,,,,,,,,,,,,,,,,,,,,,,,,,,,,,,,,,,,,,,,,,,,,,,,,,,,,2,0,24.229472500039265,56.81914150004741,None,"['2', '1']",1,"[-0.040598199993837625, 0.12166599999181926]",56.81914150004741,None,,,,001,2022_Dec_20_1551,TMT_fmri,2021.2.3,59.8764031355123,
C2,26:52,17,['2'],2,Images/TMTstop-control_1_2linestimulus14.png,Images/TMTstop-control_1_2greenlinestimulus14.png,Images/TMTstop-control_1_2redlinestimulus14.png,TMT_Control,C2,42,None,1,42,0,1,1,1,0,16,16,16,,,,,,,,,,,,,,,,,,,,,,,,,,,,,,,,,,,,,,,,,,,,,,,,,,,,,,,,,,,,,,,,,2,0,24.429432400036603,57.01993890001904,None,"['3', '2']",1,"[0.08752439997624606, 0.11164809996262193]",57.01993890001904,None,,,,001,2022_Dec_20_1551,TMT_fmri,2021.2.3,59.8764031355123,
C2,26:52,18,['1'],1,Images/TMTstop-control_1_2linestimulus15.png,Images/TMTstop-control_1_2greenlinestimulus15.png,Images/TMTstop-control_1_2redlinestimulus15.png,TMT_Control,C2,43,None,1,43,0,1,1,1,0,17,17,17,,,,,,,,,,,,,,,,,,,,,,,,,,,,,,,,,,,,,,,,,,,,,,,,,,,,,,,,,,,,,,,,,1,1,24.55131790001178,57.22624780004844,None,['1'],1,[0.06339259998640046],57.22624780004844,None,,,,001,2022_Dec_20_1551,TMT_fmri,2021.2.3,59.8764031355123,
C2,26:52,19,['2'],2,Images/TMTstop-control_1_2linestimulus16.png,Images/TMTstop-control_1_2greenlinestimulus16.png,Images/TMTstop-control_1_2redlinestimulus16.png,TMT_Control,C2,44,None,1,44,0,1,1,1,0,18,18,18,,,,,,,,,,,,,,,,,,,,,,,,,,,,,,,,,,,,,,,,,,,,,,,,,,,,,,,,,,,,,,,,,2,0,24.81943090003915,57.34298440004932,None,"['3', '2']",1,"[0.11162129999138415, 0.18966329999966547]",57.34298440004932,None,,,,001,2022_Dec_20_1551,TMT_fmri,2021.2.3,59.8764031355123,
C2,26:52,20,['3'],3,Images/TMTstop-control_1_2linestimulus17.png,Images/TMTstop-control_1_2greenlinestimulus17.png,Images/TMTstop-control_1_2redlinestimulus17.png,TMT_Control,C2,45,None,1,45,0,1,1,1,0,19,19,19,,,,,,,,,,,,,,,,,,,,,,,,,,,,,,,,,,,,,,,,,,,,,,,,,,,,,,,,,,,,,,,,,5,0,25.413430600019637,57.613916800008155,None,"['1', '3', '2', '1', '3']",1,"[-0.004745999991428107, 0.15265309996902943, 0.1850342999678105, 0.32446139998501167, 0.5021871000062674]",57.613916800008155,None,,,,001,2022_Dec_20_1551,TMT_fmri,2021.2.3,59.8764031355123,
C2,26:52,21,['1'],1,Images/TMTstop-control_1_2linestimulus18.png,Images/TMTstop-control_1_2greenlinestimulus18.png,Images/TMTstop-control_1_2redlinestimulus18.png,TMT_Control,C2,46,None,1,46,0,1,1,1,0,20,20,20,,,,,,,,,,,,,,,,,,,,,,,,,,,,,,,,,,,,,,,,,,,,,,,,,,,,,,,,,,,,,,,,,2,0,25.515599100035615,58.2050696000224,None,"['2', '1']",1,"[-0.04343170003267005, 0.05169499997282401]",58.2050696000224,None,,,,001,2022_Dec_20_1551,TMT_fmri,2021.2.3,59.8764031355123,
C2,26:52,22,['3'],3,Images/TMTstop-control_1_2linestimulus19.png,Images/TMTstop-control_1_2greenlinestimulus19.png,Images/TMTstop-control_1_2redlinestimulus19.png,TMT_Control,C2,47,None,1,47,0,1,1,1,0,21,21,21,,,,,,,,,,,,,,,,,,,,,,,,,,,,,,,,,,,,,,,,,,,,,,,,,,,,,,,,,,,,,,,,,1,1,25.683580600016285,58.30725539999548,None,['3'],1,[0.10733670002082363],58.30725539999548,None,,,,001,2022_Dec_20_1551,TMT_fmri,2021.2.3,59.8764031355123,
C2,26:52,23,['2'],2,Images/TMTstop-control_1_2linestimulus20.png,Images/TMTstop-control_1_2greenlinestimulus20.png,Images/TMTstop-control_1_2redlinestimulus20.png,TMT_Control,C2,48,None,1,48,0,1,1,1,0,22,22,22,,,,,,,,,,,,,,,,,,,,,,,,,,,,,,,,,,,,,,,,,,,,,,,,,,,,,,,,,,,,,,,,,1,1,25.733472599997185,58.47469910001382,None,['2'],1,[-0.011096500034909695],58.47469910001382,None,,,,001,2022_Dec_20_1551,TMT_fmri,2021.2.3,59.8764031355123,
C2,26:52,24,['3'],3,Images/TMTstop-control_1_2linestimulus21.png,Images/TMTstop-control_1_2greenlinestimulus21.png,Images/TMTstop-control_1_2redlinestimulus21.png,TMT_Control,C2,49,None,1,49,0,1,1,1,0,23,23,23,,,,,,,,,,,,,,,,,,,,,,,,,,,,,,,,,,,,,,,,,,,,,,,,,,,,,,,,,,,,,,,,,5,0,26.451303200039547,58.5303455000394,None,"['1', '3', '2', '1', '3']",1,"[0.08528340002521873, 0.2543677000212483, 0.2707739999750629, 0.4195632999762893, 0.6254605000140145]",58.5303455000394,None,,,,001,2022_Dec_20_1551,TMT_fmri,2021.2.3,59.8764031355123,
C2,26:52,25,['1'],1,Images/TMTstop-control_1_2linestimulus22.png,Images/TMTstop-control_1_2greenlinestimulus22.png,Images/TMTstop-control_1_2redlinestimulus22.png,TMT_Control,C2,50,None,1,50,0,1,1,1,0,24,24,24,,,,,,,,,,,,,,,,,,,,,,,,,,,,,,,,,,,,,,,,,,,,,,,,,,,,,,,,,,,,,,,,,2,0,26.739493000030052,59.24607980001019,None,"['2', '1']",1,"[0.027636900020297617, 0.2017842000350356]",59.24607980001019,None,,,,001,2022_Dec_20_1551,TMT_fmri,2021.2.3,59.8764031355123,
C2,26:52,None,None,None,Images/TMTstop-control_1_2linestimulus23.png,Images/TMTstop-control_1_2greenlinestimulus23.png,Images/TMTstop-control_1_2redlinestimulus23.png,TMT_Control,C2,Feedback_last,None,1,Feedback_last,0,1,1,1,0,25,25,25,,,,,,,,,,,,,,,,,,,,,,,,,,,,,,,,,,,,,,,,,,,,,,,,,,,,,,,,,,,,,,,,,1,1,,59.53014180000173,None,['1'],0,[0.11555539997061715],59.53014180000173,None,,,,001,2022_Dec_20_1551,TMT_fmri,2021.2.3,59.8764031355123,
C3,52:78,1,['2'],2,Images/TMTstop-control_1_3.png,Images/TMTstop-control_1_3.png,Images/TMTstop-control_1_3.png,TMT_Control,C3,51,None,1,51,0,2,2,2,0,0,0,0,,,,,,,,,,,,,,,,,,,,,,,,,,,,,,,,,,,,,,,,,,,,,,,,,,,,,,,,,,,,,,,,,2,0,31.638155799999367,63.88019880000502,None,"['3', '2']",1,"[0.4055582999717444, 0.49301729997387156]",63.88019880000502,None,,,,001,2022_Dec_20_1551,TMT_fmri,2021.2.3,59.8764031355123,
C3,52:78,2,['1'],1,Images/TMTstop-control_1_3.png,Images/TMTstop-control_1_3firstgreen.png,Images/TMTstop-control_1_3firstred.png,TMT_Control,C3,52,None,1,52,0,2,2,2,0,1,1,1,,,,,,,,,,,,,,,,,,,,,,,,,,,,,,,,,,,,,,,,,,,,,,,,,,,,,,,,,,,,,,,,,1,1,31.755201200023293,64.42929590004496,None,['1'],1,[0.06542240001726896],64.42929590004496,None,,,,001,2022_Dec_20_1551,TMT_fmri,2021.2.3,59.8764031355123,
C3,52:78,3,['2'],2,Images/TMTstop-control_1_3linestimulus0.png,Images/TMTstop-control_1_3greenlinestimulus0.png,Images/TMTstop-control_1_3redlinestimulus0.png,TMT_Control,C3,53,None,1,53,0,2,2,2,0,2,2,2,,,,,,,,,,,,,,,,,,,,,,,,,,,,,,,,,,,,,,,,,,,,,,,,,,,,,,,,,,,,,,,,,2,0,32.0640357999946,64.54643500002567,None,"['3', '2']",1,"[0.1362063999986276, 0.21207549999235198]",64.54643500002567,None,,,,001,2022_Dec_20_1551,TMT_fmri,2021.2.3,59.8764031355123,
C3,52:78,4,['1'],1,Images/TMTstop-control_1_3linestimulus1.png,Images/TMTstop-control_1_3greenlinestimulus1.png,Images/TMTstop-control_1_3redlinestimulus1.png,TMT_Control,C3,54,None,1,54,0,2,2,2,0,3,3,3,,,,,,,,,,,,,,,,,,,,,,,,,,,,,,,,,,,,,,,,,,,,,,,,,,,,,,,,,,,,,,,,,1,1,32.117112900014035,64.85841010004515,None,['1'],1,[-0.020599199982825667],64.85841010004515,None,,,,001,2022_Dec_20_1551,TMT_fmri,2021.2.3,59.8764031355123,
C3,52:78,5,['3'],3,Images/TMTstop-control_1_3linestimulus2.png,Images/TMTstop-control_1_3greenlinestimulus2.png,Images/TMTstop-control_1_3redlinestimulus2.png,TMT_Control,C3,55,None,1,55,0,2,2,2,0,4,4,4,,,,,,,,,,,,,,,,,,,,,,,,,,,,,,,,,,,,,,,,,,,,,,,,,,,,,,,,,,,,,,,,,1,1,32.255155400023796,64.91197120002471,None,['3'],1,[0.07362089998787269],64.91197120002471,None,,,,001,2022_Dec_20_1551,TMT_fmri,2021.2.3,59.8764031355123,
C3,52:78,6,['1'],1,Images/TMTstop-control_1_3linestimulus3.png,Images/TMTstop-control_1_3greenlinestimulus3.png,Images/TMTstop-control_1_3redlinestimulus3.png,TMT_Control,C3,56,None,1,56,0,2,2,2,0,5,5,5,,,,,,,,,,,,,,,,,,,,,,,,,,,,,,,,,,,,,,,,,,,,,,,,,,,,,,,,,,,,,,,,,2,0,32.44516110001132,65.04583499999717,None,"['2', '1']",1,"[-0.012147200002800673, 0.09187329997075722]",65.04583499999717,None,,,,001,2022_Dec_20_1551,TMT_fmri,2021.2.3,59.8764031355123,
C3,52:78,7,['2'],2,Images/TMTstop-control_1_3linestimulus4.png,Images/TMTstop-control_1_3greenlinestimulus4.png,Images/TMTstop-control_1_3redlinestimulus4.png,TMT_Control,C3,57,None,1,57,0,2,2,2,0,6,6,6,,,,,,,,,,,,,,,,,,,,,,,,,,,,,,,,,,,,,,,,,,,,,,,,,,,,,,,,,,,,,,,,,2,0,32.628043700009584,65.23512270004721,None,"['3', '2']",1,"[0.0750226000091061, 0.11115419998532161]",65.23512270004721,None,,,,001,2022_Dec_20_1551,TMT_fmri,2021.2.3,59.8764031355123,
C3,52:78,8,['3'],3,Images/TMTstop-control_1_3linestimulus4.png,Images/TMTstop-control_1_3greenlinestimulus5.png,Images/TMTstop-control_1_3redlinestimulus5.png,TMT_Control,C3,58,None,1,58,0,2,2,2,0,7,7,7,,,,,,,,,,,,,,,,,,,,,,,,,,,,,,,,,,,,,,,,,,,,,,,,,,,,,,,,,,,,,,,,,2,0,32.8911122000427,65.42546300002141,None,"['1', '3']",1,"[0.05151849996764213, 0.1873564999550581]",65.42546300002141,None,,,,001,2022_Dec_20_1551,TMT_fmri,2021.2.3,59.8764031355123,
C3,52:78,9,['1'],1,Images/TMTstop-control_1_3linestimulus6.png,Images/TMTstop-control_1_3greenlinestimulus6.png,Images/TMTstop-control_1_3redlinestimulus6.png,TMT_Control,C3,59,None,1,59,0,2,2,2,0,8,8,8,,,,,,,,,,,,,,,,,,,,,,,,,,,,,,,,,,,,,,,,,,,,,,,,,,,,,,,,,,,,,,,,,2,0,33.10615609999513,65.68986119999317,None,"['2', '1']",1,"[-0.004131200024858117, 0.11488820001250133]",65.68986119999317,None,,,,001,2022_Dec_20_1551,TMT_fmri,2021.2.3,59.8764031355123,
C3,52:78,10,['2'],2,Images/TMTstop-control_1_3linestimulus7.png,Images/TMTstop-control_1_3greenlinestimulus7.png,Images/TMTstop-control_1_3redlinestimulus7.png,TMT_Control,C3,60,None,1,60,0,2,2,2,0,9,9,9,,,,,,,,,,,,,,,,,,,,,,,,,,,,,,,,,,,,,,,,,,,,,,,,,,,,,,,,,,,,,,,,,2,0,33.27201300003799,65.89706380001735,None,"['3', '2']",1,"[0.06658829998923466, 0.1101857999456115]",65.89706380001735,None,,,,001,2022_Dec_20_1551,TMT_fmri,2021.2.3,59.8764031355123,
C3,52:78,11,['1'],1,Images/TMTstop-control_1_3linestimulus8.png,Images/TMTstop-control_1_3greenlinestimulus8.png,Images/TMTstop-control_1_3redlinestimulus8.png,TMT_Control,C3,61,None,1,61,0,2,2,2,0,10,10,10,,,,,,,,,,,,,,,,,,,,,,,,,,,,,,,,,,,,,,,,,,,,,,,,,,,,,,,,,,,,,,,,,1,1,33.38011050003115,66.07059990003472,None,['1'],1,[0.019053900032304227],66.07059990003472,None,,,,001,2022_Dec_20_1551,TMT_fmri,2021.2.3,59.8764031355123,
C3,52:78,12,['2'],2,Images/TMTstop-control_1_3linestimulus9.png,Images/TMTstop-control_1_3greenlinestimulus9.png,Images/TMTstop-control_1_3redlinestimulus9.png,TMT_Control,C3,62,None,1,62,0,2,2,2,0,11,11,11,,,,,,,,,,,,,,,,,,,,,,,,,,,,,,,,,,,,,,,,,,,,,,,,,,,,,,,,,,,,,,,,,0,0,,66.17068660003133,None,None,0,,66.17068660003133,None,,,,001,2022_Dec_20_1551,TMT_fmri,2021.2.3,59.8764031355123,
A1,416:442,1,['1'],1,Images/TMTstop-A_1_1.png,Images/TMTstop-A_1_1.png,Images/TMTstop-A_1_1.png,TMT_A,A1,1,2.0,2,401,,,,,,,,,0,0,0,0,0,0,0,0,,,,,,,,,,,,,,,,,,,,,,,,,,,,,,,,,,,,,,,,,,,,,,,,,,,,,,,,,1,1,59.460540500003844,90.11627280001994,None,['1'],1,[2.080701400001999],90.11627280001994,None,,,,001,2022_Dec_20_1551,TMT_fmri,2021.2.3,59.8764031355123,
A1,416:442,2,['3'],3,Images/TMTstop-A_1_1.png,Images/TMTstop-A_1_1firstgreen.png,Images/TMTstop-A_1_1firstred.png,TMT_A,A1,2,None,2,402,,,,,,,,,0,0,0,0,0,1,1,1,,,,,,,,,,,,,,,,,,,,,,,,,,,,,,,,,,,,,,,,,,,,,,,,,,,,,,,,,1,1,59.53554370003985,92.25986039999407,None,['3'],1,[0.013011100003495812],92.25986039999407,None,,,,001,2022_Dec_20_1551,TMT_fmri,2021.2.3,59.8764031355123,
A1,416:442,3,['1'],1,Images/TMTstop-A_1_1linestimulus0.png,Images/TMTstop-A_1_1greenlinestimulus0.png,Images/TMTstop-A_1_1redlinestimulus0.png,TMT_A,A1,3,None,2,403,,,,,,,,,0,0,0,0,0,2,2,2,,,,,,,,,,,,,,,,,,,,,,,,,,,,,,,,,,,,,,,,,,,,,,,,,,,,,,,,,2,0,59.71953920001397,92.32655370002612,None,"['2', '1']",1,"[0.07625349995214492, 0.12444569997023791]",92.32655370002612,None,,,,001,2022_Dec_20_1551,TMT_fmri,2021.2.3,59.8764031355123,
A1,416:442,4,['3'],3,Images/TMTstop-A_1_1linestimulus1.png,Images/TMTstop-A_1_1greenlinestimulus1.png,Images/TMTstop-A_1_1redlinestimulus1.png,TMT_A,A1,4,None,2,404,,,,,,,,,0,0,0,0,0,3,3,3,,,,,,,,,,,,,,,,,,,,,,,,,,,,,,,,,,,,,,,,,,,,,,,,,,,,,,,,,1,1,59.869550100003835,92.5100704000215,None,['3'],1,[0.09649779996834695],92.5100704000215,None,,,,001,2022_Dec_20_1551,TMT_fmri,2021.2.3,59.8764031355123,
A1,416:442,5,['1'],1,Images/TMTstop-A_1_1linestimulus2.png,Images/TMTstop-A_1_1greenlinestimulus2.png,Images/TMTstop-A_1_1redlinestimulus2.png,TMT_A,A1,5,None,2,405,,,,,,,,,0,0,0,0,0,4,4,4,,,,,,,,,,,,,,,,,,,,,,,,,,,,,,,,,,,,,,,,,,,,,,,,,,,,,,,,,2,0,60.08147880004253,92.66028010001173,None,"['2', '1']",1,"[-0.013690899999346584, 0.12267090001842007]",92.66028010001173,None,,,,001,2022_Dec_20_1551,TMT_fmri,2021.2.3,59.8764031355123,
A1,416:442,6,['3'],3,Images/TMTstop-A_1_1linestimulus3.png,Images/TMTstop-A_1_1greenlinestimulus3.png,Images/TMTstop-A_1_1redlinestimulus3.png,TMT_A,A1,6,None,2,406,,,,,,,,,0,0,0,0,0,5,5,5,,,,,,,,,,,,,,,,,,,,,,,,,,,,,,,,,,,,,,,,,,,,,,,,,,,,,,,,,1,1,60.181560199998785,92.87282190000406,None,['3'],1,[0.03801750001730397],92.87282190000406,None,,,,001,2022_Dec_20_1551,TMT_fmri,2021.2.3,59.8764031355123,
A1,416:442,7,['1'],1,Images/TMTstop-A_1_1linestimulus4.png,Images/TMTstop-A_1_1greenlinestimulus4.png,Images/TMTstop-A_1_1redlinestimulus4.png,TMT_A,A1,7,None,2,407,,,,,,,,,0,0,0,0,0,6,6,6,,,,,,,,,,,,,,,,,,,,,,,,,,,,,,,,,,,,,,,,,,,,,,,,,,,,,,,,,2,0,60.40451469999971,92.97287759999745,None,"['2', '1']",1,"[0.0629643999855034, 0.11992209998425096]",92.97287759999745,None,,,,001,2022_Dec_20_1551,TMT_fmri,2021.2.3,59.8764031355123,
A1,416:442,8,['2'],2,Images/TMTstop-A_1_1linestimulus5.png,Images/TMTstop-A_1_1greenlinestimulus5.png,Images/TMTstop-A_1_1redlinestimulus5.png,TMT_A,A1,8,None,2,408,,,,,,,,,0,0,0,0,0,7,7,7,,,,,,,,,,,,,,,,,,,,,,,,,,,,,,,,,,,,,,,,,,,,,,,,,,,,,,,,,2,0,60.61085019999882,93.20177000004333,None,"['3', '2']",1,"[0.050551799999084324, 0.13659330003429204]",93.20177000004333,None,,,,001,2022_Dec_20_1551,TMT_fmri,2021.2.3,59.8764031355123,
A1,416:442,9,['3'],3,Images/TMTstop-A_1_1linestimulus6.png,Images/TMTstop-A_1_1greenlinestimulus6.png,Images/TMTstop-A_1_1redlinestimulus6.png,TMT_A,A1,9,None,2,409,,,,,,,,,0,0,0,0,0,8,8,8,,,,,,,,,,,,,,,,,,,,,,,,,,,,,,,,,,,,,,,,,,,,,,,,,,,,,,,,,3,0,65.89664330001688,93.40202130004764,None,"['1', '2', '3']",1,"[0.016102599969599396, 1.0240282999584451, 5.230381299974397]",93.40202130004764,None,,,,001,2022_Dec_20_1551,TMT_fmri,2021.2.3,59.8764031355123,
A1,416:442,10,['1'],1,Images/TMTstop-A_1_1linestimulus7.png,Images/TMTstop-A_1_1greenlinestimulus7.png,Images/TMTstop-A_1_1redlinestimulus7.png,TMT_A,A1,10,None,2,410,,,,,,,,,0,0,0,0,0,9,9,9,,,,,,,,,,,,,,,,,,,,,,,,,,,,,,,,,,,,,,,,,,,,,,,,,,,,,,,,,1,1,66.48444359999849,98.68750679999357,None,['1'],1,[0.5327501000138],98.68750679999357,None,,,,001,2022_Dec_20_1551,TMT_fmri,2021.2.3,59.8764031355123,
A1,416:442,11,['3'],3,Images/TMTstop-A_1_1linestimulus8.png,Images/TMTstop-A_1_1greenlinestimulus8.png,Images/TMTstop-A_1_1redlinestimulus8.png,TMT_A,A1,11,None,2,411,,,,,,,,,0,0,0,0,0,10,10,10,,,,,,,,,,,,,,,,,,,,,,,,,,,,,,,,,,,,,,,,,,,,,,,,,,,,,,,,,1,1,67.42640450003091,99.28298000001814,None,['3'],1,[0.8749815000337549],99.28298000001814,None,,,,001,2022_Dec_20_1551,TMT_fmri,2021.2.3,59.8764031355123,
A1,416:442,12,['2'],2,Images/TMTstop-A_1_1linestimulus9.png,Images/TMTstop-A_1_1greenlinestimulus9.png,Images/TMTstop-A_1_1redlinestimulus9.png,TMT_A,A1,12,None,2,412,,,,,,,,,0,0,0,0,0,11,11,11,,,,,,,,,,,,,,,,,,,,,,,,,,,,,,,,,,,,,,,,,,,,,,,,,,,,,,,,,1,1,69.75339000002714,100.22540049999952,None,['2'],1,[2.2623668999876827],100.22540049999952,None,,,,001,2022_Dec_20_1551,TMT_fmri,2021.2.3,59.8764031355123,
A1,416:442,13,['1'],1,Images/TMTstop-A_1_1linestimulus10.png,Images/TMTstop-A_1_1greenlinestimulus10.png,Images/TMTstop-A_1_1redlinestimulus10.png,TMT_A,A1,13,None,2,413,,,,,,,,,0,0,0,0,0,12,12,12,,,,,,,,,,,,,,,,,,,,,,,,,,,,,,,,,,,,,,,,,,,,,,,,,,,,,,,,,1,1,70.49538450001273,102.55244180001318,None,['1'],1,[0.6745264999917708],102.55244180001318,None,,,,001,2022_Dec_20_1551,TMT_fmri,2021.2.3,59.8764031355123,
A1,416:442,14,['2'],2,Images/TMTstop-A_1_1linestimulus11.png,Images/TMTstop-A_1_1greenlinestimulus11.png,Images/TMTstop-A_1_1redlinestimulus11.png,TMT_A,A1,14,None,2,414,,,,,,,,,0,0,0,0,0,13,13,13,,,,,,,,,,,,,,,,,,,,,,,,,,,,,,,,,,,,,,,,,,,,,,,,,,,,,,,,,1,1,71.17131569999037,103.29426059999969,None,['2'],1,[0.6117173000238836],103.29426059999969,None,,,,001,2022_Dec_20_1551,TMT_fmri,2021.2.3,59.8764031355123,
A1,416:442,15,['1'],1,Images/TMTstop-A_1_1linestimulus12.png,Images/TMTstop-A_1_1greenlinestimulus12.png,Images/TMTstop-A_1_1redlinestimulus12.png,TMT_A,A1,15,None,2,415,,,,,,,,,0,0,0,0,0,14,14,14,,,,,,,,,,,,,,,,,,,,,,,,,,,,,,,,,,,,,,,,,,,,,,,,,,,,,,,,,1,1,74.16941590001807,103.96956050000153,None,['1'],1,[2.940728500019759],103.96956050000153,None,,,,001,2022_Dec_20_1551,TMT_fmri,2021.2.3,59.8764031355123,
A1,416:442,16,['2'],2,Images/TMTstop-A_1_1linestimulus13.png,Images/TMTstop-A_1_1greenlinestimulus13.png,Images/TMTstop-A_1_1redlinestimulus13.png,TMT_A,A1,16,None,2,416,,,,,,,,,0,0,0,0,0,15,15,15,,,,,,,,,,,,,,,,,,,,,,,,,,,,,,,,,,,,,,,,,,,,,,,,,,,,,,,,,4,0,74.94836899999063,106.96786840003915,None,"['3', '1', '3', '2']",1,"[0.311088300019037, 0.470145900035277, 0.6213529999949969, 0.6995545999961905]",106.96786840003915,None,,,,001,2022_Dec_20_1551,TMT_fmri,2021.2.3,59.8764031355123,
A1,416:442,17,['1'],1,Images/TMTstop-A_1_1linestimulus14.png,Images/TMTstop-A_1_1greenlinestimulus14.png,Images/TMTstop-A_1_1redlinestimulus14.png,TMT_A,A1,17,None,2,417,,,,,,,,,0,0,0,0,0,16,16,16,,,,,,,,,,,,,,,,,,,,,,,,,,,,,,,,,,,,,,,,,,,,,,,,,,,,,,,,,1,1,74.9987876000232,107.73877410002751,None,['1'],1,[-0.04276749998098239],107.73877410002751,None,,,,001,2022_Dec_20_1551,TMT_fmri,2021.2.3,59.8764031355123,
A1,416:442,18,['3'],3,Images/TMTstop-A_1_1linestimulus15.png,Images/TMTstop-A_1_1greenlinestimulus15.png,Images/TMTstop-A_1_1redlinestimulus15.png,TMT_A,A1,18,None,2,418,,,,,,,,,0,0,0,0,0,17,17,17,,,,,,,,,,,,,,,,,,,,,,,,,,,,,,,,,,,,,,,,,,,,,,,,,,,,,,,,,1,1,75.1033917000168,107.792136700009,None,['3'],1,[0.04076429997803643],107.792136700009,None,,,,001,2022_Dec_20_1551,TMT_fmri,2021.2.3,59.8764031355123,
A1,416:442,19,['2'],2,Images/TMTstop-A_1_1linestimulus16.png,Images/TMTstop-A_1_1greenlinestimulus16.png,Images/TMTstop-A_1_1redlinestimulus16.png,TMT_A,A1,19,None,2,419,,,,,,,,,0,0,0,0,0,18,18,18,,,,,,,,,,,,,,,,,,,,,,,,,,,,,,,,,,,,,,,,,,,,,,,,,,,,,,,,,1,1,75.16036320000421,107.90075800003251,None,['2'],1,[-0.039753499964717776],107.90075800003251,None,,,,001,2022_Dec_20_1551,TMT_fmri,2021.2.3,59.8764031355123,
A1,416:442,20,['3'],3,Images/TMTstop-A_1_1linestimulus17.png,Images/TMTstop-A_1_1greenlinestimulus17.png,Images/TMTstop-A_1_1redlinestimulus17.png,TMT_A,A1,20,None,2,420,,,,,,,,,0,0,0,0,0,19,19,19,,,,,,,,,,,,,,,,,,,,,,,,,,,,,,,,,,,,,,,,,,,,,,,,,,,,,,,,,5,0,75.63323440001113,107.9509375000489,None,"['1', '3', '2', '1', '3']",1,"[0.005878099997062236, 0.12810840003658086, 0.15495920000830665, 0.2570358000230044, 0.4060306000174023]",107.9509375000489,None,,,,001,2022_Dec_20_1551,TMT_fmri,2021.2.3,59.8764031355123,
A1,416:442,21,['1'],1,Images/TMTstop-A_1_1linestimulus18.png,Images/TMTstop-A_1_1greenlinestimulus18.png,Images/TMTstop-A_1_1redlinestimulus18.png,TMT_A,A1,21,None,2,421,,,,,,,,,0,0,0,0,0,20,20,20,,,,,,,,,,,,,,,,,,,,,,,,,,,,,,,,,,,,,,,,,,,,,,,,,,,,,,,,,2,0,75.83544950000942,108.42468870000448,None,"['2', '1']",1,"[-0.01479980000294745, 0.10298830003011972]",108.42468870000448,None,,,,001,2022_Dec_20_1551,TMT_fmri,2021.2.3,59.8764031355123,
A1,416:442,22,['3'],3,Images/TMTstop-A_1_1linestimulus19.png,Images/TMTstop-A_1_1greenlinestimulus19.png,Images/TMTstop-A_1_1redlinestimulus19.png,TMT_A,A1,22,None,2,422,,,,,,,,,0,0,0,0,0,21,21,21,,,,,,,,,,,,,,,,,,,,,,,,,,,,,,,,,,,,,,,,,,,,,,,,,,,,,,,,,1,1,75.97043190000113,108.62707390001742,None,['3'],1,[0.05594059999566525],108.62707390001742,None,,,,001,2022_Dec_20_1551,TMT_fmri,2021.2.3,59.8764031355123,
A1,416:442,23,['1'],1,Images/TMTstop-A_1_1linestimulus20.png,Images/TMTstop-A_1_1greenlinestimulus20.png,Images/TMTstop-A_1_1redlinestimulus20.png,TMT_A,A1,23,None,2,423,,,,,,,,,0,0,0,0,0,22,22,22,,,,,,,,,,,,,,,,,,,,,,,,,,,,,,,,,,,,,,,,,,,,,,,,,,,,,,,,,2,0,76.11937460000627,108.76024160004454,None,"['2', '1']",1,"[-0.03822270000819117, 0.07390780001878738]",108.76024160004454,None,,,,001,2022_Dec_20_1551,TMT_fmri,2021.2.3,59.8764031355123,
A1,416:442,24,['3'],3,Images/TMTstop-A_1_1linestimulus21.png,Images/TMTstop-A_1_1greenlinestimulus21.png,Images/TMTstop-A_1_1redlinestimulus21.png,TMT_A,A1,24,None,2,424,,,,,,,,,0,0,0,0,0,23,23,23,,,,,,,,,,,,,,,,,,,,,,,,,,,,,,,,,,,,,,,,,,,,,,,,,,,,,,,,,1,1,76.32036459998926,108.91090550000081,None,['3'],1,[0.14088239998091012],108.91090550000081,None,,,,001,2022_Dec_20_1551,TMT_fmri,2021.2.3,59.8764031355123,
A1,416:442,25,['1'],1,Images/TMTstop-A_1_1linestimulus22.png,Images/TMTstop-A_1_1greenlinestimulus22.png,Images/TMTstop-A_1_1redlinestimulus22.png,TMT_A,A1,25,None,2,425,,,,,,,,,0,0,0,0,0,24,24,24,,,,,,,,,,,,,,,,,,,,,,,,,,,,,,,,,,,,,,,,,,,,,,,,,,,,,,,,,2,0,76.51131370000076,109.11866860004375,None,"['2', '1']",1,"[-0.04172629996901378, 0.12469140003668144]",109.11866860004375,None,,,,001,2022_Dec_20_1551,TMT_fmri,2021.2.3,59.8764031355123,
A1,416:442,None,None,None,Images/TMTstop-A_1_1linestimulus23.png,Images/TMTstop-A_1_1greenlinestimulus23.png,Images/TMTstop-A_1_1redlinestimulus23.png,TMT_A,A1,Feedback_last,None,2,Feedback_last,,,,,,,,,0,0,0,0,0,25,25,25,,,,,,,,,,,,,,,,,,,,,,,,,,,,,,,,,,,,,,,,,,,,,,,,,,,,,,,,,7,0,,109.30255210003816,None,"['3', '2', '1', '3', '2', '1', '3']",0,"[0.11327240004902706, 0.1629648000234738, 0.2730932999984361, 0.464638700010255, 0.5004954000469297, 0.6182710000430234, 0.8085884000174701]",109.30255210003816,None,,,,001,2022_Dec_20_1551,TMT_fmri,2021.2.3,59.8764031355123,
A2,442:468,1,['1'],1,Images/TMTstop-A_1_2.png,Images/TMTstop-A_1_2.png,Images/TMTstop-A_1_2.png,TMT_A,A2,26,None,2,426,,,,,,,,,0,1,1,1,0,0,0,0,,,,,,,,,,,,,,,,,,,,,,,,,,,,,,,,,,,,,,,,,,,,,,,,,,,,,,,,,3,0,81.4786630999879,113.66527660004795,None,"['2', '3', '1']",1,"[0.5408018999733031, 0.5430226000025868, 0.5486391999875195]",113.66527660004795,None,,,,001,2022_Dec_20_1551,TMT_fmri,2021.2.3,59.8764031355123,
A2,442:468,2,['3'],3,Images/TMTstop-A_1_2.png,Images/TMTstop-A_1_2firstgreen.png,Images/TMTstop-A_1_2firstred.png,TMT_A,A2,27,None,2,427,,,,,,,,,0,1,1,1,0,1,1,1,,,,,,,,,,,,,,,,,,,,,,,,,,,,,,,,,,,,,,,,,,,,,,,,,,,,,,,,,2,0,81.85965759999817,114.26975650002714,None,"['1', '3']",1,"[0.12926489999517798, 0.29117899999255314]",114.26975650002714,None,,,,001,2022_Dec_20_1551,TMT_fmri,2021.2.3,59.8764031355123,
A2,442:468,3,['1'],1,Images/TMTstop-A_1_2linestimulus0.png,Images/TMTstop-A_1_2greenlinestimulus0.png,Images/TMTstop-A_1_2redlinestimulus0.png,TMT_A,A2,28,None,2,428,,,,,,,,,0,1,1,1,0,2,2,2,,,,,,,,,,,,,,,,,,,,,,,,,,,,,,,,,,,,,,,,,,,,,,,,,,,,,,,,,2,0,81.975710800034,114.66700970003149,None,"['2', '1']",1,"[-0.05959770001936704, 0.03988619998563081]",114.66700970003149,None,,,,001,2022_Dec_20_1551,TMT_fmri,2021.2.3,59.8764031355123,
A2,442:468,4,['2'],2,Images/TMTstop-A_1_2linestimulus1.png,Images/TMTstop-A_1_2greenlinestimulus1.png,Images/TMTstop-A_1_2redlinestimulus1.png,TMT_A,A2,29,None,2,429,,,,,,,,,0,1,1,1,0,3,3,3,,,,,,,,,,,,,,,,,,,,,,,,,,,,,,,,,,,,,,,,,,,,,,,,,,,,,,,,,2,0,82.16268730000593,114.77002510003513,None,"['3', '2']",1,"[0.08298210002249107, 0.12901410000631586]",114.77002510003513,None,,,,001,2022_Dec_20_1551,TMT_fmri,2021.2.3,59.8764031355123,
A2,442:468,5,['1'],1,Images/TMTstop-A_1_2linestimulus2.png,Images/TMTstop-A_1_2greenlinestimulus2.png,Images/TMTstop-A_1_2redlinestimulus2.png,TMT_A,A2,30,None,2,430,,,,,,,,,0,1,1,1,0,4,4,4,,,,,,,,,,,,,,,,,,,,,,,,,,,,,,,,,,,,,,,,,,,,,,,,,,,,,,,,,1,1,82.26273389998823,114.95297889999347,None,['1'],1,[0.03152509999927133],114.95297889999347,None,,,,001,2022_Dec_20_1551,TMT_fmri,2021.2.3,59.8764031355123,
A2,442:468,6,['3'],3,Images/TMTstop-A_1_2linestimulus3.png,Images/TMTstop-A_1_2greenlinestimulus3.png,Images/TMTstop-A_1_2redlinestimulus3.png,TMT_A,A2,31,None,2,431,,,,,,,,,0,1,1,1,0,5,5,5,,,,,,,,,,,,,,,,,,,,,,,,,,,,,,,,,,,,,,,,,,,,,,,,,,,,,,,,,1,1,82.39862699998775,115.05359730002237,None,['3'],1,[0.08730740001192316],115.05359730002237,None,,,,001,2022_Dec_20_1551,TMT_fmri,2021.2.3,59.8764031355123,
A2,442:468,7,['2'],2,Images/TMTstop-A_1_2linestimulus4.png,Images/TMTstop-A_1_2greenlinestimulus4.png,Images/TMTstop-A_1_2redlinestimulus4.png,TMT_A,A2,32,None,2,432,,,,,,,,,0,1,1,1,0,6,6,6,,,,,,,,,,,,,,,,,,,,,,,,,,,,,,,,,,,,,,,,,,,,,,,,,,,,,,,,,1,1,82.4485968000372,115.18973600002937,None,['2'],1,[-0.009668599988799542],115.18973600002937,None,,,,001,2022_Dec_20_1551,TMT_fmri,2021.2.3,59.8764031355123,
A2,442:468,8,['1'],1,Images/TMTstop-A_1_2linestimulus5.png,Images/TMTstop-A_1_2greenlinestimulus5.png,Images/TMTstop-A_1_2redlinestimulus5.png,TMT_A,A2,33,None,2,433,,,,,,,,,0,1,1,1,0,7,7,7,,,,,,,,,,,,,,,,,,,,,,,,,,,,,,,,,,,,,,,,,,,,,,,,,,,,,,,,,1,1,82.57147190003889,115.245176299999,None,['1'],1,[0.06205700000282377],115.245176299999,None,,,,001,2022_Dec_20_1551,TMT_fmri,2021.2.3,59.8764031355123,
A2,442:468,9,['3'],3,Images/TMTstop-A_1_2linestimulus6.png,Images/TMTstop-A_1_2greenlinestimulus6.png,Images/TMTstop-A_1_2redlinestimulus6.png,TMT_A,A2,34,None,2,434,,,,,,,,,0,1,1,1,0,8,8,8,,,,,,,,,,,,,,,,,,,,,,,,,,,,,,,,,,,,,,,,,,,,,,,,,,,,,,,,,1,1,82.72168090002378,115.36199790000683,None,['3'],1,[0.09867660002782941],115.36199790000683,None,,,,001,2022_Dec_20_1551,TMT_fmri,2021.2.3,59.8764031355123,
A2,442:468,10,['2'],2,Images/TMTstop-A_1_2linestimulus7.png,Images/TMTstop-A_1_2greenlinestimulus7.png,Images/TMTstop-A_1_2redlinestimulus7.png,TMT_A,A2,35,None,2,435,,,,,,,,,0,1,1,1,0,9,9,9,,,,,,,,,,,,,,,,,,,,,,,,,,,,,,,,,,,,,,,,,,,,,,,,,,,,,,,,,1,1,82.78823980002198,115.51192540000193,None,['2'],1,[0.011073899979237467],115.51192540000193,None,,,,001,2022_Dec_20_1551,TMT_fmri,2021.2.3,59.8764031355123,
A2,442:468,11,['1'],1,Images/TMTstop-A_1_2linestimulus8.png,Images/TMTstop-A_1_2greenlinestimulus8.png,Images/TMTstop-A_1_2redlinestimulus8.png,TMT_A,A2,36,None,2,436,,,,,,,,,0,1,1,1,0,10,10,10,,,,,,,,,,,,,,,,,,,,,,,,,,,,,,,,,,,,,,,,,,,,,,,,,,,,,,,,,1,1,82.88823550002417,115.57850590004819,None,['1'],1,[0.04713169997557998],115.57850590004819,None,,,,001,2022_Dec_20_1551,TMT_fmri,2021.2.3,59.8764031355123,
A2,442:468,12,['2'],2,Images/TMTstop-A_1_2linestimulus9.png,Images/TMTstop-A_1_2greenlinestimulus9.png,Images/TMTstop-A_1_2redlinestimulus9.png,TMT_A,A2,37,None,2,437,,,,,,,,,0,1,1,1,0,11,11,11,,,,,,,,,,,,,,,,,,,,,,,,,,,,,,,,,,,,,,,,,,,,,,,,,,,,,,,,,2,0,83.16248599998653,115.67900780000491,None,"['3', '2']",1,"[0.1239639000268653, 0.2058365999837406]",115.67900780000491,None,,,,001,2022_Dec_20_1551,TMT_fmri,2021.2.3,59.8764031355123,
A2,442:468,13,['1'],1,Images/TMTstop-A_1_2linestimulus10.png,Images/TMTstop-A_1_2greenlinestimulus10.png,Images/TMTstop-A_1_2redlinestimulus10.png,TMT_A,A2,38,None,2,438,,,,,,,,,0,1,1,1,0,12,12,12,,,,,,,,,,,,,,,,,,,,,,,,,,,,,,,,,,,,,,,,,,,,,,,,,,,,,,,,,1,1,83.2465266000363,115.95341050002025,None,['1'],1,[0.021634899952914566],115.95341050002025,None,,,,001,2022_Dec_20_1551,TMT_fmri,2021.2.3,59.8764031355123,
A2,442:468,14,['3'],3,Images/TMTstop-A_1_2linestimulus11.png,Images/TMTstop-A_1_2greenlinestimulus11.png,Images/TMTstop-A_1_2redlinestimulus11.png,TMT_A,A2,39,None,2,439,,,,,,,,,0,1,1,1,0,13,13,13,,,,,,,,,,,,,,,,,,,,,,,,,,,,,,,,,,,,,,,,,,,,,,,,,,,,,,,,,1,1,83.41254580003442,116.0367645000224,None,['3'],1,[0.1130925000179559],116.0367645000224,None,,,,001,2022_Dec_20_1551,TMT_fmri,2021.2.3,59.8764031355123,
A2,442:468,15,['1'],1,Images/TMTstop-A_1_2linestimulus12.png,Images/TMTstop-A_1_2greenlinestimulus12.png,Images/TMTstop-A_1_2redlinestimulus12.png,TMT_A,A2,40,None,2,440,,,,,,,,,0,1,1,1,0,14,14,14,,,,,,,,,,,,,,,,,,,,,,,,,,,,,,,,,,,,,,,,,,,,,,,,,,,,,,,,,2,0,83.5697102000122,116.20374900003662,None,"['2', '1']",1,"[-0.004918500024359673, 0.08724459999939427]",116.20374900003662,None,,,,001,2022_Dec_20_1551,TMT_fmri,2021.2.3,59.8764031355123,
A2,442:468,16,['3'],3,Images/TMTstop-A_1_2linestimulus13.png,Images/TMTstop-A_1_2greenlinestimulus13.png,Images/TMTstop-A_1_2redlinestimulus13.png,TMT_A,A2,41,None,2,441,,,,,,,,,0,1,1,1,0,15,15,15,,,,,,,,,,,,,,,,,,,,,,,,,,,,,,,,,,,,,,,,,,,,,,,,,,,,,,,,,1,1,83.7246742999996,116.3659106999985,None,['3'],1,[0.0898037999868393],116.3659106999985,None,,,,001,2022_Dec_20_1551,TMT_fmri,2021.2.3,59.8764031355123,
A2,442:468,17,['1'],1,Images/TMTstop-A_1_2linestimulus14.png,Images/TMTstop-A_1_2greenlinestimulus14.png,Images/TMTstop-A_1_2redlinestimulus14.png,TMT_A,A2,42,None,2,442,,,,,,,,,0,1,1,1,0,16,16,16,,,,,,,,,,,,,,,,,,,,,,,,,,,,,,,,,,,,,,,,,,,,,,,,,,,,,,,,,2,0,83.93857530003879,116.51562950003427,None,"['2', '1']",1,"[-0.01989469997351989, 0.11345080001046881]",116.51562950003427,None,,,,001,2022_Dec_20_1551,TMT_fmri,2021.2.3,59.8764031355123,
A2,442:468,18,['2'],2,Images/TMTstop-A_1_2linestimulus15.png,Images/TMTstop-A_1_2greenlinestimulus15.png,Images/TMTstop-A_1_2redlinestimulus15.png,TMT_A,A2,43,None,2,443,,,,,,,,,0,1,1,1,0,17,17,17,,,,,,,,,,,,,,,,,,,,,,,,,,,,,,,,,,,,,,,,,,,,,,,,,,,,,,,,,2,0,84.24470939999446,116.72973920003278,None,"['3', '2']",1,"[0.09707299998262897, 0.23252389999106526]",116.72973920003278,None,,,,001,2022_Dec_20_1551,TMT_fmri,2021.2.3,59.8764031355123,
A2,442:468,19,['1'],1,Images/TMTstop-A_1_2linestimulus16.png,Images/TMTstop-A_1_2greenlinestimulus16.png,Images/TMTstop-A_1_2redlinestimulus16.png,TMT_A,A2,44,None,2,444,,,,,,,,,0,1,1,1,0,18,18,18,,,,,,,,,,,,,,,,,,,,,,,,,,,,,,,,,,,,,,,,,,,,,,,,,,,,,,,,,1,1,84.35253770003328,117.0433874000446,None,['1'],1,[0.02061210002284497],117.0433874000446,None,,,,001,2022_Dec_20_1551,TMT_fmri,2021.2.3,59.8764031355123,
A2,442:468,20,['2'],2,Images/TMTstop-A_1_2linestimulus17.png,Images/TMTstop-A_1_2greenlinestimulus17.png,Images/TMTstop-A_1_2redlinestimulus17.png,TMT_A,A2,45,None,2,445,,,,,,,,,0,1,1,1,0,19,19,19,,,,,,,,,,,,,,,,,,,,,,,,,,,,,,,,,,,,,,,,,,,,,,,,,,,,,,,,,4,0,85.02367020002566,117.14348610001616,None,"['3', '1', '3', '2']",1,"[0.14418960001785308, 0.5485809000092559, 0.5920600999961607, 0.6104801000328735]",117.14348610001616,None,,,,001,2022_Dec_20_1551,TMT_fmri,2021.2.3,59.8764031355123,
A2,442:468,21,['3'],3,Images/TMTstop-A_1_2linestimulus18.png,Images/TMTstop-A_1_2greenlinestimulus18.png,Images/TMTstop-A_1_2redlinestimulus18.png,TMT_A,A2,46,None,2,446,,,,,,,,,0,1,1,1,0,20,20,20,,,,,,,,,,,,,,,,,,,,,,,,,,,,,,,,,,,,,,,,,,,,,,,,,,,,,,,,,2,0,85.35867500002496,117.81463770003757,None,"['1', '3']",1,"[0.08110740000847727, 0.26456550002330914]",117.81463770003757,None,,,,001,2022_Dec_20_1551,TMT_fmri,2021.2.3,59.8764031355123,
A2,442:468,22,['2'],2,Images/TMTstop-A_1_2linestimulus19.png,Images/TMTstop-A_1_2greenlinestimulus19.png,Images/TMTstop-A_1_2redlinestimulus19.png,TMT_A,A2,47,None,2,447,,,,,,,,,0,1,1,1,0,21,21,21,,,,,,,,,,,,,,,,,,,,,,,,,,,,,,,,,,,,,,,,,,,,,,,,,,,,,,,,,1,1,85.40850860002683,118.14944320003269,None,['2'],1,[-0.028629999957047403],118.14944320003269,None,,,,001,2022_Dec_20_1551,TMT_fmri,2021.2.3,59.8764031355123,
A2,442:468,23,['3'],3,Images/TMTstop-A_1_2linestimulus20.png,Images/TMTstop-A_1_2greenlinestimulus20.png,Images/TMTstop-A_1_2redlinestimulus20.png,TMT_A,A2,48,None,2,448,,,,,,,,,0,1,1,1,0,22,22,22,,,,,,,,,,,,,,,,,,,,,,,,,,,,,,,,,,,,,,,,,,,,,,,,,,,,,,,,,2,0,85.70369450002909,118.19953199999873,None,"['1', '3']",1,"[0.08154869999270886, 0.23659869999391958]",118.19953199999873,None,,,,001,2022_Dec_20_1551,TMT_fmri,2021.2.3,59.8764031355123,
A2,442:468,24,['2'],2,Images/TMTstop-A_1_2linestimulus21.png,Images/TMTstop-A_1_2greenlinestimulus21.png,Images/TMTstop-A_1_2redlinestimulus21.png,TMT_A,A2,49,None,2,449,,,,,,,,,0,1,1,1,0,23,23,23,,,,,,,,,,,,,,,,,,,,,,,,,,,,,,,,,,,,,,,,,,,,,,,,,,,,,,,,,1,1,85.75281810003798,118.49394390004454,None,['2'],1,[-0.018123399990145117],118.49394390004454,None,,,,001,2022_Dec_20_1551,TMT_fmri,2021.2.3,59.8764031355123,
A2,442:468,25,['3'],3,Images/TMTstop-A_1_2linestimulus22.png,Images/TMTstop-A_1_2greenlinestimulus22.png,Images/TMTstop-A_1_2redlinestimulus22.png,TMT_A,A2,50,None,2,450,,,,,,,,,0,1,1,1,0,24,24,24,,,,,,,,,,,,,,,,,,,,,,,,,,,,,,,,,,,,,,,,,,,,,,,,,,,,,,,,,2,0,86.00360340002226,118.54404380003689,None,"['1', '3']",1,"[0.030967599945142865, 0.187032799993176]",118.54404380003689,None,,,,001,2022_Dec_20_1551,TMT_fmri,2021.2.3,59.8764031355123,
A2,442:468,None,None,None,Images/TMTstop-A_1_2linestimulus23.png,Images/TMTstop-A_1_2greenlinestimulus23.png,Images/TMTstop-A_1_2redlinestimulus23.png,TMT_A,A2,Feedback_last,None,2,Feedback_last,,,,,,,,,0,1,1,1,0,25,25,25,,,,,,,,,,,,,,,,,,,,,,,,,,,,,,,,,,,,,,,,,,,,,,,,,,,,,,,,,5,0,,118.79408010002226,None,"['2', '1', '3', '2', '1']",0,"[-0.040860600012820214, 0.06616559997200966, 0.3170727999531664, 0.3619104999816045, 0.4766012999461964]",118.79408010002226,None,,,,001,2022_Dec_20_1551,TMT_fmri,2021.2.3,59.8764031355123,
A3,468:494,1,['1'],1,Images/TMTstop-A_1_3.png,Images/TMTstop-A_1_3.png,Images/TMTstop-A_1_3.png,TMT_A,A3,51,None,2,451,,,,,,,,,0,2,2,2,0,0,0,0,,,,,,,,,,,,,,,,,,,,,,,,,,,,,,,,,,,,,,,,,,,,,,,,,,,,,,,,,3,0,91.2587116000359,123.15755300002638,None,"['3', '2', '1']",1,"[0.6904493999900296, 0.7736766999587417, 0.8306058999733068]",123.15755300002638,None,,,,001,2022_Dec_20_1551,TMT_fmri,2021.2.3,59.8764031355123,
A3,468:494,2,['3'],3,Images/TMTstop-A_1_3.png,Images/TMTstop-A_1_3firstgreen.png,Images/TMTstop-A_1_3firstred.png,TMT_A,A3,52,None,2,452,,,,,,,,,0,2,2,2,0,1,1,1,,,,,,,,,,,,,,,,,,,,,,,,,,,,,,,,,,,,,,,,,,,,,,,,,,,,,,,,,1,1,91.50973940000404,124.05431050003972,None,['3'],1,[0.18515880004270002],124.05431050003972,None,,,,001,2022_Dec_20_1551,TMT_fmri,2021.2.3,59.8764031355123,
A3,468:494,3,['2'],2,Images/TMTstop-A_1_3linestimulus0.png,Images/TMTstop-A_1_3greenlinestimulus0.png,Images/TMTstop-A_1_3redlinestimulus0.png,TMT_A,A3,53,None,2,453,,,,,,,,,0,2,2,2,0,2,2,2,,,,,,,,,,,,,,,,,,,,,,,,,,,,,,,,,,,,,,,,,,,,,,,,,,,,,,,,,1,1,91.57357370003592,124.31473650003318,None,['2'],1,[-0.058796200028155],124.31473650003318,None,,,,001,2022_Dec_20_1551,TMT_fmri,2021.2.3,59.8764031355123,
A3,468:494,4,['3'],3,Images/TMTstop-A_1_3linestimulus1.png,Images/TMTstop-A_1_3greenlinestimulus1.png,Images/TMTstop-A_1_3redlinestimulus1.png,TMT_A,A3,54,None,2,454,,,,,,,,,0,2,2,2,0,3,3,3,,,,,,,,,,,,,,,,,,,,,,,,,,,,,,,,,,,,,,,,,,,,,,,,,,,,,,,,,2,0,91.82469879998825,124.36493959999643,None,"['1', '3']",1,"[0.0017025999841280282, 0.16868539998540655]",124.36493959999643,None,,,,001,2022_Dec_20_1551,TMT_fmri,2021.2.3,59.8764031355123,
A3,468:494,5,['2'],2,Images/TMTstop-A_1_3linestimulus2.png,Images/TMTstop-A_1_3greenlinestimulus2.png,Images/TMTstop-A_1_3redlinestimulus2.png,TMT_A,A3,55,None,2,455,,,,,,,,,0,2,2,2,0,4,4,4,,,,,,,,,,,,,,,,,,,,,,,,,,,,,,,,,,,,,,,,,,,,,,,,,,,,,,,,,1,1,91.87476770003559,124.61535930004902,None,['2'],1,[-0.03722790000028908],124.61535930004902,None,,,,001,2022_Dec_20_1551,TMT_fmri,2021.2.3,59.8764031355123,
A3,468:494,6,['1'],1,Images/TMTstop-A_1_3linestimulus3.png,Images/TMTstop-A_1_3greenlinestimulus3.png,Images/TMTstop-A_1_3redlinestimulus3.png,TMT_A,A3,56,None,2,456,,,,,,,,,0,2,2,2,0,5,5,5,,,,,,,,,,,,,,,,,,,,,,,,,,,,,,,,,,,,,,,,,,,,,,,,,,,,,,,,,1,1,92.01162110001314,124.66783570003463,None,['1'],1,[0.05631000001449138],124.66783570003463,None,,,,001,2022_Dec_20_1551,TMT_fmri,2021.2.3,59.8764031355123,
A3,468:494,7,['3'],3,Images/TMTstop-A_1_3linestimulus4.png,Images/TMTstop-A_1_3greenlinestimulus4.png,Images/TMTstop-A_1_3redlinestimulus4.png,TMT_A,A3,57,None,2,457,,,,,,,,,0,2,2,2,0,6,6,6,,,,,,,,,,,,,,,,,,,,,,,,,,,,,,,,,,,,,,,,,,,,,,,,,,,,,,,,,1,1,92.14538260002155,124.80246100004297,None,['3'],1,[0.07772910001222044],124.80246100004297,None,,,,001,2022_Dec_20_1551,TMT_fmri,2021.2.3,59.8764031355123,
A3,468:494,8,['1'],1,Images/TMTstop-A_1_3linestimulus5.png,Images/TMTstop-A_1_3greenlinestimulus5.png,Images/TMTstop-A_1_3redlinestimulus5.png,TMT_A,A3,58,None,2,458,,,,,,,,,0,2,2,2,0,7,7,7,,,,,,,,,,,,,,,,,,,,,,,,,,,,,,,,,,,,,,,,,,,,,,,,,,,,,,,,,2,0,92.35063820000505,124.93578659999184,None,"['2', '1']",1,"[-0.01237419998506084, 0.1193650999921374]",124.93578659999184,None,,,,001,2022_Dec_20_1551,TMT_fmri,2021.2.3,59.8764031355123,
A3,468:494,9,['3'],3,Images/TMTstop-A_1_3linestimulus6.png,Images/TMTstop-A_1_3greenlinestimulus6.png,Images/TMTstop-A_1_3redlinestimulus6.png,TMT_A,A3,59,None,2,459,,,,,,,,,0,2,2,2,0,8,8,8,,,,,,,,,,,,,,,,,,,,,,,,,,,,,,,,,,,,,,,,,,,,,,,,,,,,,,,,,1,1,92.46772020001663,125.14241770002991,None,['3'],1,[0.061659400002099574],125.14241770002991,None,,,,001,2022_Dec_20_1551,TMT_fmri,2021.2.3,59.8764031355123,
A3,468:494,10,['2'],2,Images/TMTstop-A_1_3linestimulus7.png,Images/TMTstop-A_1_3greenlinestimulus7.png,Images/TMTstop-A_1_3redlinestimulus7.png,TMT_A,A3,60,None,2,460,,,,,,,,,0,2,2,2,0,9,9,9,,,,,,,,,,,,,,,,,,,,,,,,,,,,,,,,,,,,,,,,,,,,,,,,,,,,,,,,,1,1,92.51871020003455,125.25925540004391,None,['2'],1,[-0.0034710000036284328],125.25925540004391,None,,,,001,2022_Dec_20_1551,TMT_fmri,2021.2.3,59.8764031355123,
A3,468:494,11,['3'],3,Images/TMTstop-A_1_3linestimulus8.png,Images/TMTstop-A_1_3greenlinestimulus8.png,Images/TMTstop-A_1_3redlinestimulus8.png,TMT_A,A3,61,None,2,461,,,,,,,,,0,2,2,2,0,10,10,10,,,,,,,,,,,,,,,,,,,,,,,,,,,,,,,,,,,,,,,,,,,,,,,,,,,,,,,,,2,0,92.8047056000214,125.31625400000485,None,"['1', '3']",1,"[0.05226249998668209, 0.1838465000037104]",125.31625400000485,None,,,,001,2022_Dec_20_1551,TMT_fmri,2021.2.3,59.8764031355123,
A3,468:494,12,['2'],2,Images/TMTstop-A_1_3linestimulus9.png,Images/TMTstop-A_1_3greenlinestimulus9.png,Images/TMTstop-A_1_3redlinestimulus9.png,TMT_A,A3,62,None,2,462,,,,,,,,,0,2,2,2,0,11,11,11,,,,,,,,,,,,,,,,,,,,,,,,,,,,,,,,,,,,,,,,,,,,,,,,,,,,,,,,,1,1,92.8546843000222,125.59527779999189,None,['2'],1,[-0.021196699992287904],125.59527779999189,None,,,,001,2022_Dec_20_1551,TMT_fmri,2021.2.3,59.8764031355123,
A3,468:494,13,['1'],1,Images/TMTstop-A_1_3linestimulus10.png,Images/TMTstop-A_1_3greenlinestimulus10.png,Images/TMTstop-A_1_3redlinestimulus10.png,TMT_A,A3,63,None,2,463,,,,,,,,,0,2,2,2,0,12,12,12,,,,,,,,,,,,,,,,,,,,,,,,,,,,,,,,,,,,,,,,,,,,,,,,,,,,,,,,,1,1,92.92171790002612,125.64566340000601,None,['1'],1,[0.0074773000087589025],125.64566340000601,None,,,,001,2022_Dec_20_1551,TMT_fmri,2021.2.3,59.8764031355123,
A3,468:494,14,['2'],2,Images/TMTstop-A_1_3linestimulus11.png,Images/TMTstop-A_1_3greenlinestimulus11.png,Images/TMTstop-A_1_3redlinestimulus11.png,TMT_A,A3,64,None,2,464,,,,,,,,,0,2,2,2,0,13,13,13,,,,,,,,,,,,,,,,,,,,,,,,,,,,,,,,,,,,,,,,,,,,,,,,,,,,,,,,,2,0,93.14555650000693,125.71942670003045,None,"['3', '2']",1,"[0.11373460001777858, 0.13508550002006814]",125.71942670003045,None,,,,001,2022_Dec_20_1551,TMT_fmri,2021.2.3,59.8764031355123,
A3,468:494,15,['3'],3,Images/TMTstop-A_1_3linestimulus12.png,Images/TMTstop-A_1_3greenlinestimulus12.png,Images/TMTstop-A_1_3redlinestimulus12.png,TMT_A,A3,65,None,2,465,,,,,,,,,0,2,2,2,0,14,14,14,,,,,,,,,,,,,,,,,,,,,,,,,,,,,,,,,,,,,,,,,,,,,,,,,,,,,,,,,2,0,93.40871160000097,125.93586970004253,None,"['1', '3']",1,"[0.04943409998668358, 0.2112646999885328]",125.93586970004253,None,,,,001,2022_Dec_20_1551,TMT_fmri,2021.2.3,59.8764031355123,
A3,468:494,16,['2'],2,Images/TMTstop-A_1_3linestimulus13.png,Images/TMTstop-A_1_3greenlinestimulus13.png,Images/TMTstop-A_1_3redlinestimulus13.png,TMT_A,A3,66,None,2,466,,,,,,,,,0,2,2,2,0,15,15,15,,,,,,,,,,,,,,,,,,,,,,,,,,,,,,,,,,,,,,,,,,,,,,,,,,,,,,,,,1,1,93.50871190003818,126.19950580003206,None,['2'],1,[0.04458269994938746],126.19950580003206,None,,,,001,2022_Dec_20_1551,TMT_fmri,2021.2.3,59.8764031355123,
A3,468:494,17,['3'],3,Images/TMTstop-A_1_3linestimulus14.png,Images/TMTstop-A_1_3greenlinestimulus14.png,Images/TMTstop-A_1_3redlinestimulus14.png,TMT_A,A3,67,None,2,467,,,,,,,,,0,2,2,2,0,16,16,16,,,,,,,,,,,,,,,,,,,,,,,,,,,,,,,,,,,,,,,,,,,,,,,,,,,,,,,,,2,0,93.73771990003297,126.29964770004153,None,"['1', '3']",1,"[0.006546100019477308, 0.17448280000826344]",126.29964770004153,None,,,,001,2022_Dec_20_1551,TMT_fmri,2021.2.3,59.8764031355123,
A3,468:494,18,['2'],2,Images/TMTstop-A_1_3linestimulus15.png,Images/TMTstop-A_1_3greenlinestimulus15.png,Images/TMTstop-A_1_3redlinestimulus15.png,TMT_A,A3,68,None,2,468,,,,,,,,,0,2,2,2,0,17,17,17,,,,,,,,,,,,,,,,,,,,,,,,,,,,,,,,,,,,,,,,,,,,,,,,,,,,,,,,,1,1,93.78768080001464,126.52847090002615,None,['2'],1,[-0.01731700001982972],126.52847090002615,None,,,,001,2022_Dec_20_1551,TMT_fmri,2021.2.3,59.8764031355123,
A3,468:494,19,['3'],3,Images/TMTstop-A_1_3linestimulus16.png,Images/TMTstop-A_1_3greenlinestimulus16.png,Images/TMTstop-A_1_3redlinestimulus16.png,TMT_A,A3,69,None,2,469,,,,,,,,,0,2,2,2,0,18,18,18,,,,,,,,,,,,,,,,,,,,,,,,,,,,,,,,,,,,,,,,,,,,,,,,,,,,,,,,,2,0,94.08768560003955,126.57863699999871,None,"['1', '3']",1,"[0.03554120002081618, 0.21915650001028553]",126.57863699999871,None,,,,001,2022_Dec_20_1551,TMT_fmri,2021.2.3,59.8764031355123,
A3,468:494,20,['1'],1,Images/TMTstop-A_1_3linestimulus17.png,Images/TMTstop-A_1_3greenlinestimulus17.png,Images/TMTstop-A_1_3redlinestimulus17.png,TMT_A,A3,70,None,2,470,,,,,,,,,0,2,2,2,0,19,19,19,,,,,,,,,,,,,,,,,,,,,,,,,,,,,,,,,,,,,,,,,,,,,,,,,,,,,,,,,2,0,94.23872520000441,126.87886310002068,None,"['2', '1']",1,"[-0.0372388000250794, 0.08902650000527501]",126.87886310002068,None,,,,001,2022_Dec_20_1551,TMT_fmri,2021.2.3,59.8764031355123,
A3,468:494,21,['2'],2,Images/TMTstop-A_1_3linestimulus18.png,Images/TMTstop-A_1_3greenlinestimulus18.png,Images/TMTstop-A_1_3redlinestimulus18.png,TMT_A,A3,71,None,2,471,,,,,,,,,0,2,2,2,0,20,20,20,,,,,,,,,,,,,,,,,,,,,,,,,,,,,,,,,,,,,,,,,,,,,,,,,,,,,,,,,2,0,94.49568769999314,127.0288713000482,None,"['3', '2']",1,"[0.1022895000060089, 0.16435080004157498]",127.0288713000482,None,,,,001,2022_Dec_20_1551,TMT_fmri,2021.2.3,59.8764031355123,
A3,468:494,22,['3'],3,Images/TMTstop-A_1_3linestimulus19.png,Images/TMTstop-A_1_3greenlinestimulus19.png,Images/TMTstop-A_1_3redlinestimulus19.png,TMT_A,A3,72,None,2,472,,,,,,,,,0,2,2,2,0,21,21,21,,,,,,,,,,,,,,,,,,,,,,,,,,,,,,,,,,,,,,,,,,,,,,,,,,,,,,,,,2,0,94.74571139999898,127.2864763000398,None,"['1', '3']",1,"[-0.00533529999665916, 0.16859309998108074]",127.2864763000398,None,,,,001,2022_Dec_20_1551,TMT_fmri,2021.2.3,59.8764031355123,
A3,468:494,23,['2'],2,Images/TMTstop-A_1_3linestimulus20.png,Images/TMTstop-A_1_3greenlinestimulus20.png,Images/TMTstop-A_1_3redlinestimulus20.png,TMT_A,A3,73,None,2,473,,,,,,,,,0,2,2,2,0,22,22,22,,,,,,,,,,,,,,,,,,,,,,,,,,,,,,,,,,,,,,,,,,,,,,,,,,,,,,,,,1,1,94.79568879998988,127.53679260000354,None,['2'],1,[-0.02969449997181073],127.53679260000354,None,,,,001,2022_Dec_20_1551,TMT_fmri,2021.2.3,59.8764031355123,
A3,468:494,24,['1'],1,Images/TMTstop-A_1_3linestimulus21.png,Images/TMTstop-A_1_3greenlinestimulus21.png,Images/TMTstop-A_1_3redlinestimulus21.png,TMT_A,A3,74,None,2,474,,,,,,,,,0,2,2,2,0,23,23,23,,,,,,,,,,,,,,,,,,,,,,,,,,,,,,,,,,,,,,,,,,,,,,,,,,,,,,,,,1,1,94.8797202000278,127.58680260000983,None,['1'],1,[0.03260610002325848],127.58680260000983,None,,,,001,2022_Dec_20_1551,TMT_fmri,2021.2.3,59.8764031355123,
A3,468:494,25,['2'],2,Images/TMTstop-A_1_3linestimulus22.png,Images/TMTstop-A_1_3greenlinestimulus22.png,Images/TMTstop-A_1_3redlinestimulus22.png,TMT_A,A3,75,None,2,475,,,,,,,,,0,2,2,2,0,24,24,24,,,,,,,,,,,,,,,,,,,,,,,,,,,,,,,,,,,,,,,,,,,,,,,,,,,,,,,,,2,0,95.14168719999725,127.67397520004306,None,"['3', '2']",1,"[0.1421062999870628, 0.17518869997002184]",127.67397520004306,None,,,,001,2022_Dec_20_1551,TMT_fmri,2021.2.3,59.8764031355123,
A3,468:494,None,None,None,Images/TMTstop-A_1_3linestimulus23.png,Images/TMTstop-A_1_3greenlinestimulus23.png,Images/TMTstop-A_1_3redlinestimulus23.png,TMT_A,A3,Feedback_last,None,2,Feedback_last,,,,,,,,,0,2,2,2,0,25,25,25,,,,,,,,,,,,,,,,,,,,,,,,,,,,,,,,,,,,,,,,,,,,,,,,,,,,,,,,,2,0,,127.9318678000127,None,"['1', '3']",0,"[0.044352600001730025, 0.24636340001598]",127.9318678000127,None,,,,001,2022_Dec_20_1551,TMT_fmri,2021.2.3,59.8764031355123,
A4,494:520,1,['2'],2,Images/TMTstop-A_1_4.png,Images/TMTstop-A_1_4.png,Images/TMTstop-A_1_4.png,TMT_A,A4,76,None,2.0,476,,,,,,,,,0,3,3,3,0,0,0,0,,,,,,,,,,,,,,,,,,,,,,,,,,,,,,,,,,,,,,,,,,,,,,,,,,,,,,,,,2,0,100.23157130001346,132.28133170004003,None,"['3', '2']",1,"[0.579848499968648, 0.6769932999741286]",132.28133170004003,None,,,,001,2022_Dec_20_1551,TMT_fmri,2021.2.3,59.8764031355123,
A4,494:520,2,['3'],3,Images/TMTstop-A_1_4.png,Images/TMTstop-A_1_4firstgreen.png,Images/TMTstop-A_1_4firstred.png,TMT_A,A4,77,None,2.0,477,,,,,,,,,0,3,3,3,0,1,1,1,,,,,,,,,,,,,,,,,,,,,,,,,,,,,,,,,,,,,,,,,,,,,,,,,,,,,,,,,2,0,100.4455864999909,133.02829109999584,None,"['1', '3']",1,"[-0.026943599979858845, 0.1409713000175543]",133.02829109999584,None,,,,001,2022_Dec_20_1551,TMT_fmri,2021.2.3,59.8764031355123,
A4,494:520,3,['1'],1,Images/TMTstop-A_1_4linestimulus0.png,Images/TMTstop-A_1_4greenlinestimulus0.png,Images/TMTstop-A_1_4redlinestimulus0.png,TMT_A,A4,78,None,2.0,478,,,,,,,,,0,3,3,3,0,2,2,2,,,,,,,,,,,,,,,,,,,,,,,,,,,,,,,,,,,,,,,,,,,,,,,,,,,,,,,,,2,0,100.61956339998869,133.23678000003565,None,"['2', '1']",1,"[0.005300699966028333, 0.09345099999336526]",133.23678000003565,None,,,,001,2022_Dec_20_1551,TMT_fmri,2021.2.3,59.8764031355123,
A4,494:520,4,['3'],3,Images/TMTstop-A_1_4linestimulus1.png,Images/TMTstop-A_1_4greenlinestimulus1.png,Images/TMTstop-A_1_4redlinestimulus1.png,TMT_A,A4,79,None,2.0,479,,,,,,,,,0,3,3,3,0,3,3,3,,,,,,,,,,,,,,,,,,,,,,,,,,,,,,,,,,,,,,,,,,,,,,,,,,,,,,,,,1,1,100.78708650002955,133.41083629999775,None,['3'],1,[0.10736620001262054],133.41083629999775,None,,,,001,2022_Dec_20_1551,TMT_fmri,2021.2.3,59.8764031355123,
A4,494:520,5,['2'],2,Images/TMTstop-A_1_4linestimulus2.png,Images/TMTstop-A_1_4greenlinestimulus2.png,Images/TMTstop-A_1_4redlinestimulus2.png,TMT_A,A4,80,None,2.0,480,,,,,,,,,0,3,3,3,0,4,4,4,,,,,,,,,,,,,,,,,,,,,,,,,,,,,,,,,,,,,,,,,,,,,,,,,,,,,,,,,1,1,100.83699949999573,133.57778870000038,None,['2'],1,[-0.005580099998041987],133.57778870000038,None,,,,001,2022_Dec_20_1551,TMT_fmri,2021.2.3,59.8764031355123,
A4,494:520,6,['1'],1,Images/TMTstop-A_1_4linestimulus3.png,Images/TMTstop-A_1_4greenlinestimulus3.png,Images/TMTstop-A_1_4redlinestimulus3.png,TMT_A,A4,81,None,2.0,481,,,,,,,,,0,3,3,3,0,5,5,5,,,,,,,,,,,,,,,,,,,,,,,,,,,,,,,,,,,,,,,,,,,,,,,,,,,,,,,,,1,1,100.93685300002107,133.62795170000754,None,['1'],1,[0.05035399994812906],133.62795170000754,None,,,,001,2022_Dec_20_1551,TMT_fmri,2021.2.3,59.8764031355123,
A4,494:520,7,['2'],2,Images/TMTstop-A_1_4linestimulus4.png,Images/TMTstop-A_1_4greenlinestimulus4.png,Images/TMTstop-A_1_4redlinestimulus4.png,TMT_A,A4,82,None,2.0,482,,,,,,,,,0,3,3,3,0,6,6,6,,,,,,,,,,,,,,,,,,,,,,,,,,,,,,,,,,,,,,,,,,,,,,,,,,,,,,,,,2,0,101.17832260002615,133.72796670004027,None,"['3', '2']",1,"[0.13010660000145435, 0.16617420001421124]",133.72796670004027,None,,,,001,2022_Dec_20_1551,TMT_fmri,2021.2.3,59.8764031355123,
A4,494:520,8,['1'],1,Images/TMTstop-A_1_4linestimulus5.png,Images/TMTstop-A_1_4greenlinestimulus5.png,Images/TMTstop-A_1_4redlinestimulus5.png,TMT_A,A4,83,None,2.0,483,,,,,,,,,0,3,3,3,0,7,7,7,,,,,,,,,,,,,,,,,,,,,,,,,,,,,,,,,,,,,,,,,,,,,,,,,,,,,,,,,1,1,101.29530580004212,133.9691254000063,None,['1'],1,[0.06209579994902015],133.9691254000063,None,,,,001,2022_Dec_20_1551,TMT_fmri,2021.2.3,59.8764031355123,
A4,494:520,9,['3'],3,Images/TMTstop-A_1_4linestimulus6.png,Images/TMTstop-A_1_4greenlinestimulus6.png,Images/TMTstop-A_1_4redlinestimulus6.png,TMT_A,A4,84,None,2.0,484,,,,,,,,,0,3,3,3,0,8,8,8,,,,,,,,,,,,,,,,,,,,,,,,,,,,,,,,,,,,,,,,,,,,,,,,,,,,,,,,,1,1,101.50011890003225,134.08652060001623,None,['3'],1,[0.14179560000775382],134.08652060001623,None,,,,001,2022_Dec_20_1551,TMT_fmri,2021.2.3,59.8764031355123,
A4,494:520,10,['2'],2,Images/TMTstop-A_1_4linestimulus7.png,Images/TMTstop-A_1_4greenlinestimulus7.png,Images/TMTstop-A_1_4redlinestimulus7.png,TMT_A,A4,85,None,2.0,485,,,,,,,,,0,3,3,3,0,9,9,9,,,,,,,,,,,,,,,,,,,,,,,,,,,,,,,,,,,,,,,,,,,,,,,,,,,,,,,,,1,1,101.55020110000623,134.29119330004323,None,['2'],1,[-0.03711019997717813],134.29119330004323,None,,,,001,2022_Dec_20_1551,TMT_fmri,2021.2.3,59.8764031355123,
A4,494:520,11,['3'],3,Images/TMTstop-A_1_4linestimulus8.png,Images/TMTstop-A_1_4greenlinestimulus8.png,Images/TMTstop-A_1_4redlinestimulus8.png,TMT_A,A4,86,None,2.0,486,,,,,,,,,0,3,3,3,0,10,10,10,,,,,,,,,,,,,,,,,,,,,,,,,,,,,,,,,,,,,,,,,,,,,,,,,,,,,,,,,2,0,101.83433510002214,134.34109629999148,None,"['1', '3']",1,"[0.03453349997289479, 0.2183392000151798]",134.34109629999148,None,,,,001,2022_Dec_20_1551,TMT_fmri,2021.2.3,59.8764031355123,
A4,494:520,12,['1'],1,Images/TMTstop-A_1_4linestimulus9.png,Images/TMTstop-A_1_4greenlinestimulus9.png,Images/TMTstop-A_1_4redlinestimulus9.png,TMT_A,A4,87,None,2.0,487,,,,,,,,,0,3,3,3,0,11,11,11,,,,,,,,,,,,,,,,,,,,,,,,,,,,,,,,,,,,,,,,,,,,,,,,,,,,,,,,,2,0,101.98322669998743,134.62477480003145,None,"['2', '1']",1,"[-0.03833790001226589, 0.09446059999754652]",134.62477480003145,None,,,,001,2022_Dec_20_1551,TMT_fmri,2021.2.3,59.8764031355123,
A4,494:520,13,['3'],3,Images/TMTstop-A_1_4linestimulus10.png,Images/TMTstop-A_1_4greenlinestimulus10.png,Images/TMTstop-A_1_4redlinestimulus10.png,TMT_A,A4,88,None,2.0,488,,,,,,,,,0,3,3,3,0,12,12,12,,,,,,,,,,,,,,,,,,,,,,,,,,,,,,,,,,,,,,,,,,,,,,,,,,,,,,,,,1,1,102.1500838000211,134.77505440003006,None,['3'],1,[0.11507440003333613],134.77505440003006,None,,,,001,2022_Dec_20_1551,TMT_fmri,2021.2.3,59.8764031355123,
A4,494:520,14,['1'],1,Images/TMTstop-A_1_4linestimulus11.png,Images/TMTstop-A_1_4greenlinestimulus11.png,Images/TMTstop-A_1_4redlinestimulus11.png,TMT_A,A4,89,None,2.0,489,,,,,,,,,0,3,3,3,0,13,13,13,,,,,,,,,,,,,,,,,,,,,,,,,,,,,,,,,,,,,,,,,,,,,,,,,,,,,,,,,2,0,102.36320690001594,134.94189489999553,None,"['2', '1']",1,"[-0.012361500004772097, 0.12233919999562204]",134.94189489999553,None,,,,001,2022_Dec_20_1551,TMT_fmri,2021.2.3,59.8764031355123,
A4,494:520,15,['2'],2,Images/TMTstop-A_1_4linestimulus12.png,Images/TMTstop-A_1_4greenlinestimulus12.png,Images/TMTstop-A_1_4redlinestimulus12.png,TMT_A,A4,90,None,2.0,490,,,,,,,,,0,3,3,3,0,14,14,14,,,,,,,,,,,,,,,,,,,,,,,,,,,,,,,,,,,,,,,,,,,,,,,,,,,,,,,,,2,0,102.56420480000088,135.15473780001048,None,"['3', '2']",1,"[0.0905110000167042, 0.10555500001646578]",135.15473780001048,None,,,,001,2022_Dec_20_1551,TMT_fmri,2021.2.3,59.8764031355123,
A4,494:520,16,['1'],1,Images/TMTstop-A_1_4linestimulus13.png,Images/TMTstop-A_1_4greenlinestimulus13.png,Images/TMTstop-A_1_4redlinestimulus13.png,TMT_A,A4,91,None,2.0,491,,,,,,,,,0,3,3,3,0,15,15,15,,,,,,,,,,,,,,,,,,,,,,,,,,,,,,,,,,,,,,,,,,,,,,,,,,,,,,,,,1,1,102.64723970001796,135.35496650001733,None,['1'],1,[0.0314735000138171],135.35496650001733,None,,,,001,2022_Dec_20_1551,TMT_fmri,2021.2.3,59.8764031355123,
A4,494:520,17,['3'],3,Images/TMTstop-A_1_4linestimulus14.png,Images/TMTstop-A_1_4greenlinestimulus14.png,Images/TMTstop-A_1_4redlinestimulus14.png,TMT_A,A4,92,None,2.0,492,,,,,,,,,0,3,3,3,0,16,16,16,,,,,,,,,,,,,,,,,,,,,,,,,,,,,,,,,,,,,,,,,,,,,,,,,,,,,,,,,1,1,102.84731949999696,135.43839840003056,None,['3'],1,[0.13492490001954138],135.43839840003056,None,,,,001,2022_Dec_20_1551,TMT_fmri,2021.2.3,59.8764031355123,
A4,494:520,18,['2'],2,Images/TMTstop-A_1_4linestimulus15.png,Images/TMTstop-A_1_4greenlinestimulus15.png,Images/TMTstop-A_1_4redlinestimulus15.png,TMT_A,A4,93,None,2.0,493,,,,,,,,,0,3,3,3,0,17,17,17,,,,,,,,,,,,,,,,,,,,,,,,,,,,,,,,,,,,,,,,,,,,,,,,,,,,,,,,,1,1,102.90520109998761,135.64649230003124,None,['2'],1,[-0.027198600000701845],135.64649230003124,None,,,,001,2022_Dec_20_1551,TMT_fmri,2021.2.3,59.8764031355123,
A4,494:520,19,['3'],3,Images/TMTstop-A_1_4linestimulus16.png,Images/TMTstop-A_1_4greenlinestimulus16.png,Images/TMTstop-A_1_4redlinestimulus16.png,TMT_A,A4,94,None,2.0,494,,,,,,,,,0,3,3,3,0,18,18,18,,,,,,,,,,,,,,,,,,,,,,,,,,,,,,,,,,,,,,,,,,,,,,,,,,,,,,,,,5,0,103.54622160003055,135.6964532000129,None,"['1', '3', '2', '1', '3']",1,"[0.03169570001773536, 0.22726080002030358, 0.240355699963402, 0.40194850001716986, 0.5843093000003137]",135.6964532000129,None,,,,001,2022_Dec_20_1551,TMT_fmri,2021.2.3,59.8764031355123,
A4,494:520,20,['2'],2,Images/TMTstop-A_1_4linestimulus17.png,Images/TMTstop-A_1_4greenlinestimulus17.png,Images/TMTstop-A_1_4redlinestimulus17.png,TMT_A,A4,95,None,2.0,495,,,,,,,,,0,3,3,3,0,19,19,19,,,,,,,,,,,,,,,,,,,,,,,,,,,,,,,,,,,,,,,,,,,,,,,,,,,,,,,,,1,1,103.59618520003278,136.3371688000043,None,['2'],1,[-0.030044500017538667],136.3371688000043,None,,,,001,2022_Dec_20_1551,TMT_fmri,2021.2.3,59.8764031355123,
A4,494:520,21,['1'],1,Images/TMTstop-A_1_4linestimulus18.png,Images/TMTstop-A_1_4greenlinestimulus18.png,Images/TMTstop-A_1_4redlinestimulus18.png,TMT_A,A4,96,None,2.0,496,,,,,,,,,0,3,3,3,0,20,20,20,,,,,,,,,,,,,,,,,,,,,,,,,,,,,,,,,,,,,,,,,,,,,,,,,,,,,,,,,1,1,103.73339320003288,136.39016619999893,None,['1'],1,[0.06005349999759346],136.39016619999893,None,,,,001,2022_Dec_20_1551,TMT_fmri,2021.2.3,59.8764031355123,
A4,494:520,22,['3'],3,Images/TMTstop-A_1_4linestimulus19.png,Images/TMTstop-A_1_4greenlinestimulus19.png,Images/TMTstop-A_1_4redlinestimulus19.png,TMT_A,A4,97,None,2.0,497,,,,,,,,,0,3,3,3,0,21,21,21,,,,,,,,,,,,,,,,,,,,,,,,,,,,,,,,,,,,,,,,,,,,,,,,,,,,,,,,,1,1,103.88308950001374,136.52353550004773,None,['3'],1,[0.09913899999810383],136.52353550004773,None,,,,001,2022_Dec_20_1551,TMT_fmri,2021.2.3,59.8764031355123,
A4,494:520,23,['1'],1,Images/TMTstop-A_1_4linestimulus20.png,Images/TMTstop-A_1_4greenlinestimulus20.png,Images/TMTstop-A_1_4redlinestimulus20.png,TMT_A,A4,98,None,2.0,498,,,,,,,,,0,3,3,3,0,22,22,22,,,,,,,,,,,,,,,,,,,,,,,,,,,,,,,,,,,,,,,,,,,,,,,,,,,,,,,,,2,0,104.09522830002243,136.6738118000212,None,"['2', '1']",1,"[-0.0038784999633207917, 0.1114102000137791]",136.6738118000212,None,,,,001,2022_Dec_20_1551,TMT_fmri,2021.2.3,59.8764031355123,
A4,494:520,24,['2'],2,Images/TMTstop-A_1_4linestimulus21.png,Images/TMTstop-A_1_4greenlinestimulus21.png,Images/TMTstop-A_1_4redlinestimulus21.png,TMT_A,A4,99,None,2.0,499,,,,,,,,,0,3,3,3,0,23,23,23,,,,,,,,,,,,,,,,,,,,,,,,,,,,,,,,,,,,,,,,,,,,,,,,,,,,,,,,,2,0,104.27819280000404,136.88534460001392,None,"['3', '2']",1,"[0.06826620001811534, 0.1078616000013426]",136.88534460001392,None,,,,001,2022_Dec_20_1551,TMT_fmri,2021.2.3,59.8764031355123,
A4,494:520,25,['3'],3,Images/TMTstop-A_1_4linestimulus22.png,Images/TMTstop-A_1_4greenlinestimulus22.png,Images/TMTstop-A_1_4redlinestimulus22.png,TMT_A,A4,100,None,2.0,500,,,,,,,,,0,3,3,3,0,24,24,24,,,,,,,,,,,,,,,,,,,,,,,,,,,,,,,,,,,,,,,,,,,,,,,,,,,,,,,,,5,0,107.82607110001845,137.0766451000236,None,"['1', '3', '2', '1', '3']",1,"[0.039579000032972544, 0.23659230000339448, 0.2500566000235267, 0.42062250000890344, 3.4515625000349246]",137.0766451000236,None,,,,001,2022_Dec_20_1551,TMT_fmri,2021.2.3,59.8764031355123,
A4,494:520,None,None,None,Images/TMTstop-A_1_4linestimulus23.png,Images/TMTstop-A_1_4greenlinestimulus23.png,Images/TMTstop-A_1_4redlinestimulus23.png,TMT_A,A4,Feedback_last,None,2.0,Feedback_last,,,,,,,,,0,3,3,3,0,25,25,25,,,,,,,,,,,,,,,,,,,,,,,,,,,,,,,,,,,,,,,,,,,,,,,,,,,,,,,,,2,0,,140.61713750002673,None,"['2', '1']",0,"[-0.015193300030659884, 0.10614889999851584]",140.61713750002673,None,,,,001,2022_Dec_20_1551,TMT_fmri,2021.2.3,59.8764031355123,
C5,104:130,1,['3'],3,Images/TMTstop-control_1_5.png,Images/TMTstop-control_1_5.png,Images/TMTstop-control_1_5.png,TMT_Control,C5,101,3.0,3.0,101,,,,,,,,,,,,,,,,,0,0,0,0,0,0,0,0,,,,,,,,,,,,,,,,,,,,,,,,,,,,,,,,,,,,,,,,,,,,,,,,,2,0,158.07318780000787,185.08314830000745,None,"['2', '3']",1,"[5.694624700001441, 5.7002076000208035]",185.08314830000745,None,,,,001,2022_Dec_20_1551,TMT_fmri,2021.2.3,59.8764031355123,
C5,104:130,2,['2'],2,Images/TMTstop-control_1_5.png,Images/TMTstop-control_1_5firstgreen.png,Images/TMTstop-control_1_5firstred.png,TMT_Control,C5,102,None,3.0,102,,,,,,,,,,,,,,,,,0,0,0,0,0,1,1,1,,,,,,,,,,,,,,,,,,,,,,,,,,,,,,,,,,,,,,,,,,,,,,,,,2,0,158.35722950001946,190.8639938000124,None,"['1', '2']",1,"[0.22469170001568273, 0.22554720001062378]",190.8639938000124,None,,,,001,2022_Dec_20_1551,TMT_fmri,2021.2.3,59.8764031355123,
C5,104:130,3,['1'],1,Images/TMTstop-control_1_5linestimulus0.png,Images/TMTstop-control_1_5greenlinestimulus0.png,Images/TMTstop-control_1_5redlinestimulus0.png,TMT_Control,C5,103,None,3.0,103,,,,,,,,,,,,,,,,,0,0,0,0,0,2,2,2,,,,,,,,,,,,,,,,,,,,,,,,,,,,,,,,,,,,,,,,,,,,,,,,,3,0,158.75119060004363,191.1559486000333,None,"['3', '2', '1']",1,"[0.11239150003530085, 0.1536947000422515, 0.2947995000286028]",191.1559486000333,None,,,,001,2022_Dec_20_1551,TMT_fmri,2021.2.3,59.8764031355123,
C5,104:130,4,['3'],3,Images/TMTstop-control_1_5linestimulus1.png,Images/TMTstop-control_1_5greenlinestimulus1.png,Images/TMTstop-control_1_5redlinestimulus1.png,TMT_Control,C5,104,None,3.0,104,,,,,,,,,,,,,,,,,0,0,0,0,0,3,3,3,,,,,,,,,,,,,,,,,,,,,,,,,,,,,,,,,,,,,,,,,,,,,,,,,1,1,158.86823030002415,191.5420204999973,None,['3'],1,[0.06327030004467815],191.5420204999973,None,,,,001,2022_Dec_20_1551,TMT_fmri,2021.2.3,59.8764031355123,
C5,104:130,5,['1'],1,Images/TMTstop-control_1_5linestimulus2.png,Images/TMTstop-control_1_5greenlinestimulus2.png,Images/TMTstop-control_1_5redlinestimulus2.png,TMT_Control,C5,105,None,3.0,105,,,,,,,,,,,,,,,,,0,0,0,0,0,4,4,4,,,,,,,,,,,,,,,,,,,,,,,,,,,,,,,,,,,,,,,,,,,,,,,,,2,0,159.0920613000053,191.65879990003305,None,"['2', '1']",1,"[0.03277630003867671, 0.13992400001734495]",191.65879990003305,None,,,,001,2022_Dec_20_1551,TMT_fmri,2021.2.3,59.8764031355123,
C5,104:130,6,['2'],2,Images/TMTstop-control_1_5linestimulus3.png,Images/TMTstop-control_1_5greenlinestimulus3.png,Images/TMTstop-control_1_5redlinestimulus3.png,TMT_Control,C5,106,None,3.0,106,,,,,,,,,,,,,,,,,0,0,0,0,0,5,5,5,,,,,,,,,,,,,,,,,,,,,,,,,,,,,,,,,,,,,,,,,,,,,,,,,2,0,159.2821928000194,191.88300080003683,None,"['3', '2']",1,"[0.04656250000698492, 0.10960710002109408]",191.88300080003683,None,,,,001,2022_Dec_20_1551,TMT_fmri,2021.2.3,59.8764031355123,
C5,104:130,7,['3'],3,Images/TMTstop-control_1_5linestimulus4.png,Images/TMTstop-control_1_5greenlinestimulus4.png,Images/TMTstop-control_1_5redlinestimulus4.png,TMT_Control,C5,107,None,3.0,107,,,,,,,,,,,,,,,,,0,0,0,0,0,6,6,6,,,,,,,,,,,,,,,,,,,,,,,,,,,,,,,,,,,,,,,,,,,,,,,,,2,0,159.58737950003706,192.073386700009,None,"['1', '3']",1,"[0.08779910003067926, 0.23620169999776408]",192.073386700009,None,,,,001,2022_Dec_20_1551,TMT_fmri,2021.2.3,59.8764031355123,
C5,104:130,8,['2'],2,Images/TMTstop-control_1_5linestimulus4.png,Images/TMTstop-control_1_5greenlinestimulus5.png,Images/TMTstop-control_1_5redlinestimulus5.png,TMT_Control,C5,108,None,3.0,108,,,,,,,,,,,,,,,,,0,0,0,0,0,7,7,7,,,,,,,,,,,,,,,,,,,,,,,,,,,,,,,,,,,,,,,,,,,,,,,,,1,1,159.64522420003777,192.38555740000447,None,['2'],1,[-0.011994100001174957],192.38555740000447,None,,,,001,2022_Dec_20_1551,TMT_fmri,2021.2.3,59.8764031355123,
C5,104:130,9,['1'],1,Images/TMTstop-control_1_5linestimulus6.png,Images/TMTstop-control_1_5greenlinestimulus6.png,Images/TMTstop-control_1_5redlinestimulus6.png,TMT_Control,C5,109,None,3.0,109,,,,,,,,,,,,,,,,,0,0,0,0,0,8,8,8,,,,,,,,,,,,,,,,,,,,,,,,,,,,,,,,,,,,,,,,,,,,,,,,,1,1,159.7782293999917,192.43575430003693,None,['1'],1,[0.08079899998847395],192.43575430003693,None,,,,001,2022_Dec_20_1551,TMT_fmri,2021.2.3,59.8764031355123,
C5,104:130,10,['2'],2,Images/TMTstop-control_1_5linestimulus7.png,Images/TMTstop-control_1_5greenlinestimulus7.png,Images/TMTstop-control_1_5redlinestimulus7.png,TMT_Control,C5,110,None,3.0,110,,,,,,,,,,,,,,,,,0,0,0,0,0,9,9,9,,,,,,,,,,,,,,,,,,,,,,,,,,,,,,,,,,,,,,,,,,,,,,,,,2,0,160.05313070002012,192.56927219999488,None,"['3', '2']",1,"[0.12833199999295175, 0.20244660001480952]",192.56927219999488,None,,,,001,2022_Dec_20_1551,TMT_fmri,2021.2.3,59.8764031355123,
C5,104:130,11,['1'],1,Images/TMTstop-control_1_5linestimulus8.png,Images/TMTstop-control_1_5greenlinestimulus8.png,Images/TMTstop-control_1_5redlinestimulus8.png,TMT_Control,C5,111,None,3.0,111,,,,,,,,,,,,,,,,,0,0,0,0,0,10,10,10,,,,,,,,,,,,,,,,,,,,,,,,,,,,,,,,,,,,,,,,,,,,,,,,,1,1,160.13608940003905,192.84338410000782,None,['1'],1,[0.034649399982299656],192.84338410000782,None,,,,001,2022_Dec_20_1551,TMT_fmri,2021.2.3,59.8764031355123,
C5,104:130,12,['3'],3,Images/TMTstop-control_1_5linestimulus9.png,Images/TMTstop-control_1_5greenlinestimulus9.png,Images/TMTstop-control_1_5redlinestimulus9.png,TMT_Control,C5,112,None,3.0,112,,,,,,,,,,,,,,,,,0,0,0,0,0,11,11,11,,,,,,,,,,,,,,,,,,,,,,,,,,,,,,,,,,,,,,,,,,,,,,,,,1,1,160.28623810003046,192.926684200007,None,['3'],1,[0.09192510001594201],192.926684200007,None,,,,001,2022_Dec_20_1551,TMT_fmri,2021.2.3,59.8764031355123,
C5,104:130,13,['2'],2,Images/TMTstop-control_1_5linestimulus10.png,Images/TMTstop-control_1_5greenlinestimulus10.png,Images/TMTstop-control_1_5redlinestimulus10.png,TMT_Control,C5,113,None,3.0,113,,,,,,,,,,,,,,,,,0,0,0,0,0,12,12,12,,,,,,,,,,,,,,,,,,,,,,,,,,,,,,,,,,,,,,,,,,,,,,,,,1,1,160.33618929999648,193.07731270004297,None,['2'],1,[-0.023646799963898957],193.07731270004297,None,,,,001,2022_Dec_20_1551,TMT_fmri,2021.2.3,59.8764031355123,
C5,104:130,14,['3'],3,Images/TMTstop-control_1_5linestimulus11.png,Images/TMTstop-control_1_5greenlinestimulus11.png,Images/TMTstop-control_1_5redlinestimulus11.png,TMT_Control,C5,114,None,3.0,114,,,,,,,,,,,,,,,,,0,0,0,0,0,13,13,13,,,,,,,,,,,,,,,,,,,,,,,,,,,,,,,,,,,,,,,,,,,,,,,,,2,0,160.85018990002573,193.12747750000563,None,"['1', '3']",1,"[0.21432799997273833, 0.4293160999659449]",193.12747750000563,None,,,,001,2022_Dec_20_1551,TMT_fmri,2021.2.3,59.8764031355123,
C5,104:130,15,['1'],1,Images/TMTstop-control_1_5linestimulus12.png,Images/TMTstop-control_1_5greenlinestimulus12.png,Images/TMTstop-control_1_5redlinestimulus12.png,TMT_Control,C5,115,None,3.0,115,,,,,,,,,,,,,,,,,0,0,0,0,0,14,14,14,,,,,,,,,,,,,,,,,,,,,,,,,,,,,,,,,,,,,,,,,,,,,,,,,2,0,161.05008110002382,193.64118920004694,None,"['2', '1']",1,"[-0.030767999996896833, 0.15120500000193715]",193.64118920004694,None,,,,001,2022_Dec_20_1551,TMT_fmri,2021.2.3,59.8764031355123,
C5,104:130,16,['2'],2,Images/TMTstop-control_1_5linestimulus13.png,Images/TMTstop-control_1_5greenlinestimulus13.png,Images/TMTstop-control_1_5redlinestimulus13.png,TMT_Control,C5,116,None,3.0,116,,,,,,,,,,,,,,,,,0,0,0,0,0,15,15,15,,,,,,,,,,,,,,,,,,,,,,,,,,,,,,,,,,,,,,,,,,,,,,,,,2,0,161.38920179998968,193.84154340001987,None,"['3', '2']",1,"[0.1791598999989219, 0.2698017000220716]",193.84154340001987,None,,,,001,2022_Dec_20_1551,TMT_fmri,2021.2.3,59.8764031355123,
C5,104:130,17,['3'],3,Images/TMTstop-control_1_5linestimulus14.png,Images/TMTstop-control_1_5greenlinestimulus14.png,Images/TMTstop-control_1_5redlinestimulus14.png,TMT_Control,C5,117,None,3.0,117,,,,,,,,,,,,,,,,,0,0,0,0,0,16,16,16,,,,,,,,,,,,,,,,,,,,,,,,,,,,,,,,,,,,,,,,,,,,,,,,,2,0,161.76006360002793,194.18571190000512,None,"['1', '3']",1,"[0.023571399971842766, 0.2909302999614738]",194.18571190000512,None,,,,001,2022_Dec_20_1551,TMT_fmri,2021.2.3,59.8764031355123,
C5,104:130,18,['1'],1,Images/TMTstop-control_1_5linestimulus15.png,Images/TMTstop-control_1_5greenlinestimulus15.png,Images/TMTstop-control_1_5redlinestimulus15.png,TMT_Control,C5,118,None,3.0,118,,,,,,,,,,,,,,,,,0,0,0,0,0,17,17,17,,,,,,,,,,,,,,,,,,,,,,,,,,,,,,,,,,,,,,,,,,,,,,,,,2,0,161.9072381000151,194.55711710004834,None,"['2', '1']",1,"[0.042463699996005744, 0.0698465000023134]",194.55711710004834,None,,,,001,2022_Dec_20_1551,TMT_fmri,2021.2.3,59.8764031355123,
C5,104:130,19,['2'],2,Images/TMTstop-control_1_5linestimulus16.png,Images/TMTstop-control_1_5greenlinestimulus16.png,Images/TMTstop-control_1_5redlinestimulus16.png,TMT_Control,C5,119,None,3.0,119,,,,,,,,,,,,,,,,,0,0,0,0,0,18,18,18,,,,,,,,,,,,,,,,,,,,,,,,,,,,,,,,,,,,,,,,,,,,,,,,,2,0,162.17423260002397,194.69815040001413,None,"['3', '2']",1,"[0.11132919997908175, 0.21500629995716736]",194.69815040001413,None,,,,001,2022_Dec_20_1551,TMT_fmri,2021.2.3,59.8764031355123,
C5,104:130,20,['1'],1,Images/TMTstop-control_1_5linestimulus17.png,Images/TMTstop-control_1_5greenlinestimulus17.png,Images/TMTstop-control_1_5redlinestimulus17.png,TMT_Control,C5,120,None,3.0,120,,,,,,,,,,,,,,,,,0,0,0,0,0,19,19,19,,,,,,,,,,,,,,,,,,,,,,,,,,,,,,,,,,,,,,,,,,,,,,,,,1,1,162.22923290001927,194.96999950002646,None,['1'],1,[-0.008617600018624216],194.96999950002646,None,,,,001,2022_Dec_20_1551,TMT_fmri,2021.2.3,59.8764031355123,
C5,104:130,21,['2'],2,Images/TMTstop-control_1_5linestimulus18.png,Images/TMTstop-control_1_5greenlinestimulus18.png,Images/TMTstop-control_1_5redlinestimulus18.png,TMT_Control,C5,121,None,3.0,121,,,,,,,,,,,,,,,,,0,0,0,0,0,20,20,20,,,,,,,,,,,,,,,,,,,,,,,,,,,,,,,,,,,,,,,,,,,,,,,,,1,1,163.1882304000319,195.02745799999684,None,['2'],1,[0.8921306999982335],195.02745799999684,None,,,,001,2022_Dec_20_1551,TMT_fmri,2021.2.3,59.8764031355123,
C5,104:130,22,['1'],1,Images/TMTstop-control_1_5linestimulus19.png,Images/TMTstop-control_1_5greenlinestimulus19.png,Images/TMTstop-control_1_5redlinestimulus19.png,TMT_Control,C5,122,None,3.0,122,,,,,,,,,,,,,,,,,0,0,0,0,0,21,21,21,,,,,,,,,,,,,,,,,,,,,,,,,,,,,,,,,,,,,,,,,,,,,,,,,1,1,163.59608640003717,195.98599640000612,None,['1'],1,[0.34255549998488277],195.98599640000612,None,,,,001,2022_Dec_20_1551,TMT_fmri,2021.2.3,59.8764031355123,
C5,104:130,23,['3'],3,Images/TMTstop-control_1_5linestimulus20.png,Images/TMTstop-control_1_5greenlinestimulus20.png,Images/TMTstop-control_1_5redlinestimulus20.png,TMT_Control,C5,123,None,3.0,123,,,,,,,,,,,,,,,,,0,0,0,0,0,22,22,22,,,,,,,,,,,,,,,,,,,,,,,,,,,,,,,,,,,,,,,,,,,,,,,,,1,1,163.9372175000026,196.3946293000481,None,['3'],1,[0.2740357000147924],196.3946293000481,None,,,,001,2022_Dec_20_1551,TMT_fmri,2021.2.3,59.8764031355123,
C5,104:130,24,['1'],1,Images/TMTstop-control_1_5linestimulus21.png,Images/TMTstop-control_1_5greenlinestimulus21.png,Images/TMTstop-control_1_5redlinestimulus21.png,TMT_Control,C5,124,None,3.0,124,,,,,,,,,,,,,,,,,0,0,0,0,0,23,23,23,,,,,,,,,,,,,,,,,,,,,,,,,,,,,,,,,,,,,,,,,,,,,,,,,1,1,164.54621739999857,196.73605400003726,None,['1'],1,[0.5405125999823213],196.73605400003726,None,,,,001,2022_Dec_20_1551,TMT_fmri,2021.2.3,59.8764031355123,
C5,104:130,25,['3'],3,Images/TMTstop-control_1_5linestimulus22.png,Images/TMTstop-control_1_5greenlinestimulus22.png,Images/TMTstop-control_1_5redlinestimulus22.png,TMT_Control,C5,125,None,3.0,125,,,,,,,,,,,,,,,,,0,0,0,0,0,24,24,24,,,,,,,,,,,,,,,,,,,,,,,,,,,,,,,,,,,,,,,,,,,,,,,,,1,1,165.02021700004116,197.34413640003186,None,['3'],1,[0.4094720999710262],197.34413640003186,None,,,,001,2022_Dec_20_1551,TMT_fmri,2021.2.3,59.8764031355123,
C5,104:130,None,None,None,Images/TMTstop-control_1_5linestimulus23.png,Images/TMTstop-control_1_5greenlinestimulus23.png,Images/TMTstop-control_1_5redlinestimulus23.png,TMT_Control,C5,Feedback_last,None,3.0,Feedback_last,,,,,,,,,,,,,,,,,0,0,0,0,0,25,25,25,,,,,,,,,,,,,,,,,,,,,,,,,,,,,,,,,,,,,,,,,,,,,,,,,0,0,,197.8193824000191,None,None,1,,197.8193824000191,None,,,,001,2022_Dec_20_1551,TMT_fmri,2021.2.3,59.8764031355123,
C6,130:156,1,['3'],3,Images/TMTstop-control_1_6.png,Images/TMTstop-control_1_6.png,Images/TMTstop-control_1_6.png,TMT_Control,C6,126,None,3.0,126,,,,,,,,,,,,,,,,,0,1,1,1,0,0,0,0,,,,,,,,,,,,,,,,,,,,,,,,,,,,,,,,,,,,,,,,,,,,,,,,,1,1,169.79424820002168,202.16773580003064,None,['3'],1,[0.36534680001204833],202.16773580003064,None,,,,001,2022_Dec_20_1551,TMT_fmri,2021.2.3,59.8764031355123,
C6,130:156,2,['2'],2,Images/TMTstop-control_1_6.png,Images/TMTstop-control_1_6firstgreen.png,Images/TMTstop-control_1_6firstred.png,TMT_Control,C6,127,None,3.0,127,,,,,,,,,,,,,,,,,0,1,1,1,0,1,1,1,,,,,,,,,,,,,,,,,,,,,,,,,,,,,,,,,,,,,,,,,,,,,,,,,4,0,170.15006030001678,202.59263550001197,None,"['2', '1', '3', '2']",1,"[0.07285569998202845, 0.07702419999986887, 0.23932509997393936, 0.2782073999987915]",202.59263550001197,None,,,,001,2022_Dec_20_1551,TMT_fmri,2021.2.3,59.8764031355123,
C6,130:156,3,['1'],1,Images/TMTstop-control_1_6linestimulus0.png,Images/TMTstop-control_1_6greenlinestimulus0.png,Images/TMTstop-control_1_6redlinestimulus0.png,TMT_Control,C6,128,None,3.0,128,,,,,,,,,,,,,,,,,0,1,1,1,0,2,2,2,,,,,,,,,,,,,,,,,,,,,,,,,,,,,,,,,,,,,,,,,,,,,,,,,1,1,170.2502171000233,202.94079660001444,None,['1'],1,[0.039870799984782934],202.94079660001444,None,,,,001,2022_Dec_20_1551,TMT_fmri,2021.2.3,59.8764031355123,
C6,130:156,4,['2'],2,Images/TMTstop-control_1_6linestimulus1.png,Images/TMTstop-control_1_6greenlinestimulus1.png,Images/TMTstop-control_1_6redlinestimulus1.png,TMT_Control,C6,129,None,3.0,129,,,,,,,,,,,,,,,,,0,1,1,1,0,3,3,3,,,,,,,,,,,,,,,,,,,,,,,,,,,,,,,,,,,,,,,,,,,,,,,,,2,0,170.43321330001345,203.04090170003474,None,"['3', '2']",1,"[0.08280849998118356, 0.12016150000272319]",203.04090170003474,None,,,,001,2022_Dec_20_1551,TMT_fmri,2021.2.3,59.8764031355123,
C6,130:156,5,['3'],3,Images/TMTstop-control_1_6linestimulus2.png,Images/TMTstop-control_1_6greenlinestimulus2.png,Images/TMTstop-control_1_6redlinestimulus2.png,TMT_Control,C6,130,None,3.0,130,,,,,,,,,,,,,,,,,0,1,1,1,0,4,4,4,,,,,,,,,,,,,,,,,,,,,,,,,,,,,,,,,,,,,,,,,,,,,,,,,5,0,170.99424740002723,203.22404940001434,None,"['1', '3', '2', '1', '3']",1,"[0.0566984000033699, 0.21568970003863797, 0.2516360000008717, 0.36988140002358705, 0.510133300034795]",203.22404940001434,None,,,,001,2022_Dec_20_1551,TMT_fmri,2021.2.3,59.8764031355123,
C6,130:156,6,['2'],2,Images/TMTstop-control_1_6linestimulus3.png,Images/TMTstop-control_1_6greenlinestimulus3.png,Images/TMTstop-control_1_6redlinestimulus3.png,TMT_Control,C6,131,None,3.0,131,,,,,,,,,,,,,,,,,0,1,1,1,0,5,5,5,,,,,,,,,,,,,,,,,,,,,,,,,,,,,,,,,,,,,,,,,,,,,,,,,1,1,171.04418820003048,203.7853710000054,None,['2'],1,[-0.020606600039172918],203.7853710000054,None,,,,001,2022_Dec_20_1551,TMT_fmri,2021.2.3,59.8764031355123,
C6,130:156,7,['1'],1,Images/TMTstop-control_1_6linestimulus4.png,Images/TMTstop-control_1_6greenlinestimulus4.png,Images/TMTstop-control_1_6redlinestimulus4.png,TMT_Control,C6,132,None,3.0,132,,,,,,,,,,,,,,,,,0,1,1,1,0,6,6,6,,,,,,,,,,,,,,,,,,,,,,,,,,,,,,,,,,,,,,,,,,,,,,,,,1,1,171.14635150000686,203.8353908000281,None,['1'],1,[0.03924479999113828],203.8353908000281,None,,,,001,2022_Dec_20_1551,TMT_fmri,2021.2.3,59.8764031355123,
C6,130:156,8,['3'],3,Images/TMTstop-control_1_6linestimulus4.png,Images/TMTstop-control_1_6greenlinestimulus5.png,Images/TMTstop-control_1_6redlinestimulus5.png,TMT_Control,C6,133,None,3.0,133,,,,,,,,,,,,,,,,,0,1,1,1,0,7,7,7,,,,,,,,,,,,,,,,,,,,,,,,,,,,,,,,,,,,,,,,,,,,,,,,,1,1,171.28717700002016,203.94415490003303,None,['3'],1,[0.07642390002729371],203.94415490003303,None,,,,001,2022_Dec_20_1551,TMT_fmri,2021.2.3,59.8764031355123,
C6,130:156,9,['2'],2,Images/TMTstop-control_1_6linestimulus6.png,Images/TMTstop-control_1_6greenlinestimulus6.png,Images/TMTstop-control_1_6redlinestimulus6.png,TMT_Control,C6,134,None,3.0,134,,,,,,,,,,,,,,,,,0,1,1,1,0,8,8,8,,,,,,,,,,,,,,,,,,,,,,,,,,,,,,,,,,,,,,,,,,,,,,,,,1,1,171.33710599999176,204.07781980000436,None,['2'],1,[-0.02949439996154979],204.07781980000436,None,,,,001,2022_Dec_20_1551,TMT_fmri,2021.2.3,59.8764031355123,
C6,130:156,10,['1'],1,Images/TMTstop-control_1_6linestimulus7.png,Images/TMTstop-control_1_6greenlinestimulus7.png,Images/TMTstop-control_1_6redlinestimulus7.png,TMT_Control,C6,135,None,3.0,135,,,,,,,,,,,,,,,,,0,1,1,1,0,9,9,9,,,,,,,,,,,,,,,,,,,,,,,,,,,,,,,,,,,,,,,,,,,,,,,,,1,1,171.42534720001277,204.1331509000156,None,['1'],1,[0.025558100023772568],204.1331509000156,None,,,,001,2022_Dec_20_1551,TMT_fmri,2021.2.3,59.8764031355123,
C6,130:156,11,['2'],2,Images/TMTstop-control_1_6linestimulus8.png,Images/TMTstop-control_1_6greenlinestimulus8.png,Images/TMTstop-control_1_6redlinestimulus8.png,TMT_Control,C6,136,None,3.0,136,,,,,,,,,,,,,,,,,0,1,1,1,0,10,10,10,,,,,,,,,,,,,,,,,,,,,,,,,,,,,,,,,,,,,,,,,,,,,,,,,2,0,171.64109470002586,204.21655750001082,None,"['3', '2']",1,"[0.08559689996764064, 0.1621961999917403]",204.21655750001082,None,,,,001,2022_Dec_20_1551,TMT_fmri,2021.2.3,59.8764031355123,
C6,130:156,12,['3'],3,Images/TMTstop-control_1_6linestimulus9.png,Images/TMTstop-control_1_6greenlinestimulus9.png,Images/TMTstop-control_1_6redlinestimulus9.png,TMT_Control,C6,137,None,3.0,137,,,,,,,,,,,,,,,,,0,1,1,1,0,11,11,11,,,,,,,,,,,,,,,,,,,,,,,,,,,,,,,,,,,,,,,,,,,,,,,,,2,0,171.8701827999903,204.43347000004724,None,"['1', '3']",1,"[0.0029941999819129705, 0.15709120000246912]",204.43347000004724,None,,,,001,2022_Dec_20_1551,TMT_fmri,2021.2.3,59.8764031355123,
C6,130:156,13,['1'],1,Images/TMTstop-control_1_6linestimulus10.png,Images/TMTstop-control_1_6greenlinestimulus10.png,Images/TMTstop-control_1_6redlinestimulus10.png,TMT_Control,C6,138,None,3.0,138,,,,,,,,,,,,,,,,,0,1,1,1,0,12,12,12,,,,,,,,,,,,,,,,,,,,,,,,,,,,,,,,,,,,,,,,,,,,,,,,,2,0,172.02008039999055,204.66136640001787,None,"['2', '1']",1,"[-0.02749730000505224, 0.059306499955710024]",204.66136640001787,None,,,,001,2022_Dec_20_1551,TMT_fmri,2021.2.3,59.8764031355123,
C6,130:156,14,['3'],3,Images/TMTstop-control_1_6linestimulus11.png,Images/TMTstop-control_1_6greenlinestimulus11.png,Images/TMTstop-control_1_6redlinestimulus11.png,TMT_Control,C6,139,None,3.0,139,,,,,,,,,,,,,,,,,0,1,1,1,0,13,13,13,,,,,,,,,,,,,,,,,,,,,,,,,,,,,,,,,,,,,,,,,,,,,,,,,1,1,172.13721570000052,204.8117052000016,None,['3'],1,[0.065566300007049],204.8117052000016,None,,,,001,2022_Dec_20_1551,TMT_fmri,2021.2.3,59.8764031355123,
C6,130:156,15,['2'],2,Images/TMTstop-control_1_6linestimulus12.png,Images/TMTstop-control_1_6greenlinestimulus12.png,Images/TMTstop-control_1_6redlinestimulus12.png,TMT_Control,C6,140,None,3.0,140,,,,,,,,,,,,,,,,,0,1,1,1,0,14,14,14,,,,,,,,,,,,,,,,,,,,,,,,,,,,,,,,,,,,,,,,,,,,,,,,,1,1,172.18809579999652,204.9285825000261,None,['2'],1,[-0.004539500048849732],204.9285825000261,None,,,,001,2022_Dec_20_1551,TMT_fmri,2021.2.3,59.8764031355123,
C6,130:156,16,['3'],3,Images/TMTstop-control_1_6linestimulus13.png,Images/TMTstop-control_1_6greenlinestimulus13.png,Images/TMTstop-control_1_6redlinestimulus13.png,TMT_Control,C6,141,None,3.0,141,,,,,,,,,,,,,,,,,0,1,1,1,0,15,15,15,,,,,,,,,,,,,,,,,,,,,,,,,,,,,,,,,,,,,,,,,,,,,,,,,2,0,172.43423200002871,204.9854244000162,None,"['1', '3']",1,"[0.02827319997595623, 0.18693739996524528]",204.9854244000162,None,,,,001,2022_Dec_20_1551,TMT_fmri,2021.2.3,59.8764031355123,
C6,130:156,17,['1'],1,Images/TMTstop-control_1_6linestimulus14.png,Images/TMTstop-control_1_6greenlinestimulus14.png,Images/TMTstop-control_1_6redlinestimulus14.png,TMT_Control,C6,142,None,3.0,142,,,,,,,,,,,,,,,,,0,1,1,1,0,16,16,16,,,,,,,,,,,,,,,,,,,,,,,,,,,,,,,,,,,,,,,,,,,,,,,,,2,0,172.584094299993,205.2251302000368,None,"['2', '1']",1,"[-0.012822299962863326, 0.06439410004531965]",205.2251302000368,None,,,,001,2022_Dec_20_1551,TMT_fmri,2021.2.3,59.8764031355123,
C6,130:156,18,['2'],2,Images/TMTstop-control_1_6linestimulus15.png,Images/TMTstop-control_1_6greenlinestimulus15.png,Images/TMTstop-control_1_6redlinestimulus15.png,TMT_Control,C6,143,None,3.0,143,,,,,,,,,,,,,,,,,0,1,1,1,0,17,17,17,,,,,,,,,,,,,,,,,,,,,,,,,,,,,,,,,,,,,,,,,,,,,,,,,2,0,172.75134920002893,205.37524310004665,None,"['3', '2']",1,"[0.06659709999803454, 0.10140760004287586]",205.37524310004665,None,,,,001,2022_Dec_20_1551,TMT_fmri,2021.2.3,59.8764031355123,
C6,130:156,19,['3'],3,Images/TMTstop-control_1_6linestimulus16.png,Images/TMTstop-control_1_6greenlinestimulus16.png,Images/TMTstop-control_1_6redlinestimulus16.png,TMT_Control,C6,144,None,3.0,144,,,,,,,,,,,,,,,,,0,1,1,1,0,18,18,18,,,,,,,,,,,,,,,,,,,,,,,,,,,,,,,,,,,,,,,,,,,,,,,,,5,0,173.34797260002233,205.54715050000232,None,"['1', '3', '2', '1', '3']",1,"[0.0396271999925375, 0.19556480000028387, 0.21661639999365434, 0.3223543000058271, 0.4973471999983303]",205.54715050000232,None,,,,001,2022_Dec_20_1551,TMT_fmri,2021.2.3,59.8764031355123,
C6,130:156,20,['2'],2,Images/TMTstop-control_1_6linestimulus17.png,Images/TMTstop-control_1_6greenlinestimulus17.png,Images/TMTstop-control_1_6redlinestimulus17.png,TMT_Control,C6,145,None,3.0,145,,,,,,,,,,,,,,,,,0,1,1,1,0,19,19,19,,,,,,,,,,,,,,,,,,,,,,,,,,,,,,,,,,,,,,,,,,,,,,,,,1,1,173.3979862999986,206.13887270004489,None,['2'],1,[-0.046567599987611175],206.13887270004489,None,,,,001,2022_Dec_20_1551,TMT_fmri,2021.2.3,59.8764031355123,
C6,130:156,21,['1'],1,Images/TMTstop-control_1_6linestimulus18.png,Images/TMTstop-control_1_6greenlinestimulus18.png,Images/TMTstop-control_1_6redlinestimulus18.png,TMT_Control,C6,146,None,3.0,146,,,,,,,,,,,,,,,,,0,1,1,1,0,20,20,20,,,,,,,,,,,,,,,,,,,,,,,,,,,,,,,,,,,,,,,,,,,,,,,,,1,1,173.48288950003916,206.19008060003398,None,['1'],1,[0.004545299976598471],206.19008060003398,None,,,,001,2022_Dec_20_1551,TMT_fmri,2021.2.3,59.8764031355123,
C6,130:156,22,['2'],2,Images/TMTstop-control_1_6linestimulus19.png,Images/TMTstop-control_1_6greenlinestimulus19.png,Images/TMTstop-control_1_6redlinestimulus19.png,TMT_Control,C6,147,None,3.0,147,,,,,,,,,,,,,,,,,0,1,1,1,0,21,21,21,,,,,,,,,,,,,,,,,,,,,,,,,,,,,,,,,,,,,,,,,,,,,,,,,2,0,173.69074690004345,206.27778500004206,None,"['3', '2']",1,"[0.07805550005286932, 0.13785870000720024]",206.27778500004206,None,,,,001,2022_Dec_20_1551,TMT_fmri,2021.2.3,59.8764031355123,
C6,130:156,23,['1'],1,Images/TMTstop-control_1_6linestimulus20.png,Images/TMTstop-control_1_6greenlinestimulus20.png,Images/TMTstop-control_1_6redlinestimulus20.png,TMT_Control,C6,148,None,3.0,148,,,,,,,,,,,,,,,,,0,1,1,1,0,22,22,22,,,,,,,,,,,,,,,,,,,,,,,,,,,,,,,,,,,,,,,,,,,,,,,,,1,1,173.7648946000263,206.48862180003198,None,['1'],1,[0.016532899986486882],206.48862180003198,None,,,,001,2022_Dec_20_1551,TMT_fmri,2021.2.3,59.8764031355123,
C6,130:156,24,['2'],2,Images/TMTstop-control_1_6linestimulus21.png,Images/TMTstop-control_1_6greenlinestimulus21.png,Images/TMTstop-control_1_6redlinestimulus21.png,TMT_Control,C6,149,None,3.0,149,,,,,,,,,,,,,,,,,0,1,1,1,0,23,23,23,,,,,,,,,,,,,,,,,,,,,,,,,,,,,,,,,,,,,,,,,,,,,,,,,2,0,173.97489310003584,206.5611109000165,None,"['3', '2']",1,"[0.1026105000055395, 0.14633499999763444]",206.5611109000165,None,,,,001,2022_Dec_20_1551,TMT_fmri,2021.2.3,59.8764031355123,
C6,130:156,25,['3'],3,Images/TMTstop-control_1_6linestimulus22.png,Images/TMTstop-control_1_6greenlinestimulus22.png,Images/TMTstop-control_1_6redlinestimulus22.png,TMT_Control,C6,150,None,3.0,150,,,,,,,,,,,,,,,,,0,1,1,1,0,24,24,24,,,,,,,,,,,,,,,,,,,,,,,,,,,,,,,,,,,,,,,,,,,,,,,,,2,0,174.62087089999113,206.77225750003709,None,"['1', '3']",1,"[0.026418900000862777, 0.5526142000453547]",206.77225750003709,None,,,,001,2022_Dec_20_1551,TMT_fmri,2021.2.3,59.8764031355123,
C6,130:156,None,None,None,Images/TMTstop-control_1_6linestimulus23.png,Images/TMTstop-control_1_6greenlinestimulus23.png,Images/TMTstop-control_1_6redlinestimulus23.png,TMT_Control,C6,Feedback_last,None,3.0,Feedback_last,,,,,,,,,,,,,,,,,0,1,1,1,0,25,25,25,,,,,,,,,,,,,,,,,,,,,,,,,,,,,,,,,,,,,,,,,,,,,,,,,0,0,,207.4123464000295,None,None,1,,207.4123464000295,None,,,,001,2022_Dec_20_1551,TMT_fmri,2021.2.3,59.8764031355123,
C7,156:182,1,['1'],1,Images/TMTstop-control_1_7.png,Images/TMTstop-control_1_7.png,Images/TMTstop-control_1_7.png,TMT_Control,C7,151,None,3.0,151,,,,,,,,,,,,,,,,,0,2,2,2,0,0,0,0,,,,,,,,,,,,,,,,,,,,,,,,,,,,,,,,,,,,,,,,,,,,,,,,,3,0,179.4428846000228,211.72724590002326,None,"['3', '2', '1']",1,"[0.28933759999927133, 0.4285303999786265, 0.44524299999466166]",211.72724590002326,None,,,,001,2022_Dec_20_1551,TMT_fmri,2021.2.3,59.8764031355123,
C7,156:182,2,['2'],2,Images/TMTstop-control_1_7.png,Images/TMTstop-control_1_7firstgreen.png,Images/TMTstop-control_1_7firstred.png,TMT_Control,C7,152,None,3.0,152,,,,,,,,,,,,,,,,,0,2,2,2,0,1,1,1,,,,,,,,,,,,,,,,,,,,,,,,,,,,,,,,,,,,,,,,,,,,,,,,,2,0,179.66585950000444,212.23937480000313,None,"['3', '2']",1,"[0.10553729999810457, 0.13432009995449334]",212.23937480000313,None,,,,001,2022_Dec_20_1551,TMT_fmri,2021.2.3,59.8764031355123,
