NumberLetter,corrAns,Correct,StimFile,Correct_StimFile,False_StimFile,Version,Block,TrialNumber_session,n,Stim.started_mean,Stim.started_raw,Stim.started_std,Stim.stopped_raw,key_resp_2.corr_mean,key_resp_2.corr_raw,key_resp_2.corr_std,key_resp_2.keys_raw,key_resp_2.rt_raw,key_resp_2.started_mean,key_resp_2.started_raw,key_resp_2.started_std,key_resp_2.stopped_raw,order
1,['2'],2,TMTstop-control_1_1.png,TMTstop-control_1_1.png,TMTstop-control_1_1.png,TMT_Control,1,1,1.0,14.619598388671875,14.619598388671875,0.0,,1.0,1.0,0.0,2,0.6429196000099182,14.619598388671875,14.619598388671875,0.0,,0.0
2,['1'],1,TMTstop-control_1_1.png,TMTstop-control_1_1firstgreen.png,TMTstop-control_1_1firstred.png,TMT_Control,1,2,1.0,15.36520767211914,15.36520767211914,0.0,,1.0,1.0,0.0,3,1,0.2542056000092998,0.40500140000949614,15.36520767211914,15.36520767211914,0.0,,1.0
3,['3'],3,TMTstop-control_1_1linestimulus0.png,TMTstop-control_1_1greenlinestimulus0.png,TMTstop-control_1_1redlinestimulus0.png,TMT_Control,1,3,1.0,15.855690956115723,15.855690956115723,0.0,,1.0,1.0,0.0,2,3,-0.010119799990206957,0.09782930000801571,15.855690956115723,15.855690956115723,0.0,,2.0
4,['1'],1,TMTstop-control_1_1linestimulus1.png,TMTstop-control_1_1greenlinestimulus1.png,TMTstop-control_1_1redlinestimulus1.png,TMT_Control,1,4,1.0,16.045698165893555,16.045698165893555,0.0,,1.0,1.0,0.0,1,0.07621610001660883,16.045698165893555,16.045698165893555,0.0,,3.0
5,['3'],3,TMTstop-control_1_1linestimulus2.png,TMTstop-control_1_1greenlinestimulus2.png,TMTstop-control_1_1redlinestimulus2.png,TMT_Control,1,5,1.0,16.239246368408203,16.239246368408203,0.0,,1.0,1.0,0.0,2,3,-0.088969200005522,0.03935459998319857,16.239246368408203,16.239246368408203,0.0,,4.0
6,['1'],1,TMTstop-control_1_1linestimulus3.png,TMTstop-control_1_1greenlinestimulus3.png,TMTstop-control_1_1redlinestimulus3.png,TMT_Control,1,6,1.0,16.523632049560547,16.523632049560547,0.0,,1.0,1.0,0.0,1,2,3,1,2,3,1,-0.07345520000671968,-0.058135900006163865,0.07874579998315312,0.2248198999732267,0.25819849999970756,0.3908763999934308,0.5242797999817412,16.523632049560547,16.523632049560547,0.0,,5.0
7,['2'],2,TMTstop-control_1_1linestimulus4.png,TMTstop-control_1_1greenlinestimulus4.png,TMTstop-control_1_1redlinestimulus4.png,TMT_Control,1,7,1.0,17.136140823364258,17.136140823364258,0.0,,1.0,1.0,0.0,2,-0.060939099988900125,17.136140823364258,17.136140823364258,0.0,,6.0
8,['1'],1,TMTstop-control_1_1linestimulus4.png,TMTstop-control_1_1greenlinestimulus5.png,TMTstop-control_1_1redlinestimulus5.png,TMT_Control,1,8,1.0,17.267684936523438,17.267684936523438,0.0,,1.0,1.0,0.0,3,1,-0.06639259998337366,0.100037100026384,17.267684936523438,17.267684936523438,0.0,,7.0
9,['3'],3,TMTstop-control_1_1linestimulus6.png,TMTstop-control_1_1greenlinestimulus6.png,TMTstop-control_1_1redlinestimulus6.png,TMT_Control,1,9,1.0,17.46010398864746,17.46010398864746,0.0,,1.0,1.0,0.0,2,3,-0.07473269998445176,0.07758320000721142,17.46010398864746,17.46010398864746,0.0,,8.0
10,['2'],2,TMTstop-control_1_1linestimulus7.png,TMTstop-control_1_1greenlinestimulus7.png,TMTstop-control_1_1redlinestimulus7.png,TMT_Control,1,10,1.0,17.662155151367188,17.662155151367188,0.0,,1.0,1.0,0.0,1,2,0.03459429999929853,0.06185510000796057,17.662155151367188,17.662155151367188,0.0,,9.0
11,['1'],1,TMTstop-control_1_1linestimulus8.png,TMTstop-control_1_1greenlinestimulus8.png,TMTstop-control_1_1redlinestimulus8.png,TMT_Control,1,11,1.0,17.86767578125,17.86767578125,0.0,,1.0,1.0,0.0,3,1,-0.0032410999992862344,0.14453769999090582,17.86767578125,17.86767578125,0.0,,10.0
12,['2'],2,TMTstop-control_1_1linestimulus9.png,TMTstop-control_1_1greenlinestimulus9.png,TMTstop-control_1_1redlinestimulus9.png,TMT_Control,1,12,1.0,18.119401931762695,18.119401931762695,0.0,,1.0,1.0,0.0,2,-0.06427060000714846,18.119401931762695,18.119401931762695,0.0,,11.0
13,['3'],3,TMTstop-control_1_1linestimulus10.png,TMTstop-control_1_1greenlinestimulus10.png,TMTstop-control_1_1redlinestimulus10.png,TMT_Control,1,13,1.0,18.20291519165039,18.20291519165039,0.0,,1.0,1.0,0.0,3,-0.014064599992707372,18.20291519165039,18.20291519165039,0.0,,12.0
14,['2'],2,TMTstop-control_1_1linestimulus11.png,TMTstop-control_1_1greenlinestimulus11.png,TMTstop-control_1_1redlinestimulus11.png,TMT_Control,1,14,1.0,18.286392211914062,18.286392211914062,0.0,,1.0,1.0,0.0,1,2,0.0474359999934677,0.08420310000656173,18.286392211914062,18.286392211914062,0.0,,13.0
15,['3'],3,TMTstop-control_1_1linestimulus12.png,TMTstop-control_1_1greenlinestimulus12.png,TMTstop-control_1_1redlinestimulus12.png,TMT_Control,1,15,1.0,18.473899841308594,18.473899841308594,0.0,,1.0,1.0,0.0,3,0.02428490002057515,18.473899841308594,18.473899841308594,0.0,,14.0
16,['2'],2,TMTstop-control_1_1linestimulus13.png,TMTstop-control_1_1greenlinestimulus13.png,TMTstop-control_1_1redlinestimulus13.png,TMT_Control,1,16,1.0,18.592323303222656,18.592323303222656,0.0,,1.0,1.0,0.0,1,2,0.04881009997916408,0.0804673999955412,18.592323303222656,18.592323303222656,0.0,,15.0
17,['3'],3,TMTstop-control_1_1linestimulus14.png,TMTstop-control_1_1greenlinestimulus14.png,TMTstop-control_1_1redlinestimulus14.png,TMT_Control,1,17,1.0,18.779218673706055,18.779218673706055,0.0,,1.0,1.0,0.0,3,0.0116320000088308,18.779218673706055,18.779218673706055,0.0,,16.0
18,['2'],2,TMTstop-control_1_1linestimulus15.png,TMTstop-control_1_1greenlinestimulus15.png,TMTstop-control_1_1redlinestimulus15.png,TMT_Control,1,18,1.0,18.87641716003418,18.87641716003418,0.0,,1.0,1.0,0.0,1,2,0.05877230002079159,0.09337580000283197,18.87641716003418,18.87641716003418,0.0,,17.0
19,['1'],1,TMTstop-control_1_1linestimulus16.png,TMTstop-control_1_1greenlinestimulus16.png,TMTstop-control_1_1redlinestimulus16.png,TMT_Control,1,19,1.0,19.133434295654297,19.133434295654297,0.0,,1.0,1.0,0.0,3,1,-0.0406137999962084,0.09693169998354279,19.133434295654297,19.133434295654297,0.0,,18.0
20,['3'],3,TMTstop-control_1_1linestimulus17.png,TMTstop-control_1_1greenlinestimulus17.png,TMTstop-control_1_1redlinestimulus17.png,TMT_Control,1,20,1.0,19.3210391998291,19.3210391998291,0.0,,1.0,1.0,0.0,2,3,-0.047003199986647815,0.07391890001599677,19.3210391998291,19.3210391998291,0.0,,19.0
21,['1'],1,TMTstop-control_1_1linestimulus18.png,TMTstop-control_1_1greenlinestimulus18.png,TMTstop-control_1_1redlinestimulus18.png,TMT_Control,1,21,1.0,19.501617431640625,19.501617431640625,0.0,,1.0,1.0,0.0,1,0.032370800006901845,19.501617431640625,19.501617431640625,0.0,,20.0
22,['2'],2,TMTstop-control_1_1linestimulus19.png,TMTstop-control_1_1greenlinestimulus19.png,TMTstop-control_1_1redlinestimulus19.png,TMT_Control,1,22,1.0,19.627212524414062,19.627212524414062,0.0,,1.0,1.0,0.0,2,-0.05329619999974966,19.627212524414062,19.627212524414062,0.0,,21.0
23,['3'],3,TMTstop-control_1_1linestimulus20.png,TMTstop-control_1_1greenlinestimulus20.png,TMTstop-control_1_1redlinestimulus20.png,TMT_Control,1,23,1.0,19.725238800048828,19.725238800048828,0.0,,1.0,1.0,0.0,3,-0.03307420000783168,19.725238800048828,19.725238800048828,0.0,,22.0
24,['2'],2,TMTstop-control_1_1linestimulus21.png,TMTstop-control_1_1greenlinestimulus21.png,TMTstop-control_1_1redlinestimulus21.png,TMT_Control,1,24,1.0,19.814044952392578,19.814044952392578,0.0,,1.0,1.0,0.0,1,2,0.017632200004300103,0.05774230000679381,19.814044952392578,19.814044952392578,0.0,,23.0
25,['1'],1,TMTstop-control_1_1linestimulus22.png,TMTstop-control_1_1greenlinestimulus22.png,TMTstop-control_1_1redlinestimulus22.png,TMT_Control,1,25,1.0,19.973718643188477,19.973718643188477,0.0,,1.0,1.0,0.0,3,1,0.01673490001121536,0.15507109998725355,19.973718643188477,19.973718643188477,0.0,,24.0
None,None,None,TMTstop-control_1_1linestimulus23.png,TMTstop-control_1_1greenlinestimulus23.png,TMTstop-control_1_1redlinestimulus23.png,TMT_Control,1,Feedback_last,1.0,20.223560333251953,20.223560333251953,0.0,,0.0,0.0,0.0,2,3,-0.053234799997881055,0.07343180000316352,20.223560333251953,20.223560333251953,0.0,,25.0

extraInfo
participant,
session,001
date,2022_Apr_29_1051
expName,TMT_fmri
psychopyVersion,2021.2.3
frameRate,140.0330758361401
﻿NumberLetter,corrAns,Correct,StimFile,Correct_StimFile,False_StimFile,Version,Block,TrialNumber_session,n,Stim.started_mean,Stim.started_raw,Stim.started_std,Stim.stopped_raw,key_resp_2.corr_mean,key_resp_2.corr_raw,key_resp_2.corr_std,key_resp_2.keys_raw,key_resp_2.rt_raw,key_resp_2.started_mean,key_resp_2.started_raw,key_resp_2.started_std,key_resp_2.stopped_raw,order
1,['2'],2,TMTstop-control_1_2.png,TMTstop-control_1_2.png,TMTstop-control_1_2.png,TMT_Control,2,26,1.0,24.371971130371094,24.371971130371094,0.0,,1.0,1.0,0.0,1,2,0.47378309999476187,0.5202335999929346,24.371971130371094,24.371971130371094,0.0,,0.0
2,['3'],3,TMTstop-control_1_2.png,TMTstop-control_1_2firstgreen.png,TMTstop-control_1_2firstred.png,TMT_Control,2,27,1.0,25.03208351135254,25.03208351135254,0.0,,1.0,1.0,0.0,3,-0.02573080000001937,25.03208351135254,25.03208351135254,0.0,,1.0
3,['2'],2,TMTstop-control_1_2linestimulus0.png,TMTstop-control_1_2greenlinestimulus0.png,TMTstop-control_1_2redlinestimulus0.png,TMT_Control,2,28,1.0,25.140472412109375,25.140472412109375,0.0,,1.0,1.0,0.0,1,2,0.021258600027067587,0.06377700000302866,25.140472412109375,25.140472412109375,0.0,,2.0
4,['3'],3,TMTstop-control_1_2linestimulus1.png,TMTstop-control_1_2greenlinestimulus1.png,TMTstop-control_1_2redlinestimulus1.png,TMT_Control,2,29,1.0,25.299760818481445,25.299760818481445,0.0,,1.0,1.0,0.0,3,0.003642800002126023,25.299760818481445,25.299760818481445,0.0,,3.0
5,['2'],2,TMTstop-control_1_2linestimulus2.png,TMTstop-control_1_2greenlinestimulus2.png,TMTstop-control_1_2redlinestimulus2.png,TMT_Control,2,30,1.0,25.397388458251953,25.397388458251953,0.0,,1.0,1.0,0.0,1,2,0.0540356999845244,0.09759540000231937,25.397388458251953,25.397388458251953,0.0,,4.0
6,['3'],3,TMTstop-control_1_2linestimulus3.png,TMTstop-control_1_2greenlinestimulus3.png,TMTstop-control_1_2redlinestimulus3.png,TMT_Control,2,31,1.0,25.578083038330078,25.578083038330078,0.0,,1.0,1.0,0.0,3,0.015191599988611415,25.578083038330078,25.578083038330078,0.0,,5.0
7,['2'],2,TMTstop-control_1_2linestimulus4.png,TMTstop-control_1_2greenlinestimulus4.png,TMTstop-control_1_2redlinestimulus4.png,TMT_Control,2,32,1.0,25.688886642456055,25.688886642456055,0.0,,1.0,1.0,0.0,1,2,0.034481899987440556,0.08968360000289977,25.688886642456055,25.688886642456055,0.0,,6.0
8,['1'],1,TMTstop-control_1_2linestimulus4.png,TMTstop-control_1_2greenlinestimulus5.png,TMTstop-control_1_2redlinestimulus5.png,TMT_Control,2,33,1.0,25.86317253112793,25.86317253112793,0.0,,1.0,1.0,0.0,3,1,0.01731700001982972,0.1542782000033185,25.86317253112793,25.86317253112793,0.0,,7.0
9,['3'],3,TMTstop-control_1_2linestimulus6.png,TMTstop-control_1_2greenlinestimulus6.png,TMTstop-control_1_2redlinestimulus6.png,TMT_Control,2,34,1.0,26.133134841918945,26.133134841918945,0.0,,1.0,1.0,0.0,2,3,-0.06705620000138879,0.04509550001239404,26.133134841918945,26.133134841918945,0.0,,8.0
10,['2'],2,TMTstop-control_1_2linestimulus7.png,TMTstop-control_1_2greenlinestimulus7.png,TMTstop-control_1_2redlinestimulus7.png,TMT_Control,2,35,1.0,26.27212905883789,26.27212905883789,0.0,,1.0,1.0,0.0,1,2,0.048081799992360175,0.08308329997817054,26.27212905883789,26.27212905883789,0.0,,9.0
11,['3'],3,TMTstop-control_1_2linestimulus8.png,TMTstop-control_1_2greenlinestimulus8.png,TMTstop-control_1_2redlinestimulus8.png,TMT_Control,2,36,1.0,26.494857788085938,26.494857788085938,0.0,,1.0,1.0,0.0,3,-0.018706000002566725,26.494857788085938,26.494857788085938,0.0,,10.0
12,['2'],2,TMTstop-control_1_2linestimulus9.png,TMTstop-control_1_2greenlinestimulus9.png,TMTstop-control_1_2redlinestimulus9.png,TMT_Control,2,37,1.0,26.58460235595703,26.58460235595703,0.0,,1.0,1.0,0.0,1,2,0.041672399995150045,0.07329780000145547,26.58460235595703,26.58460235595703,0.0,,11.0
13,['3'],3,TMTstop-control_1_2linestimulus10.png,TMTstop-control_1_2greenlinestimulus10.png,TMTstop-control_1_2redlinestimulus10.png,TMT_Control,2,38,1.0,26.879255294799805,26.879255294799805,0.0,,1.0,1.0,0.0,3,-0.08868909999728203,26.879255294799805,26.879255294799805,0.0,,12.0
14,['2'],2,TMTstop-control_1_2linestimulus11.png,TMTstop-control_1_2greenlinestimulus11.png,TMTstop-control_1_2redlinestimulus11.png,TMT_Control,2,39,1.0,26.99017333984375,26.99017333984375,0.0,,1.0,1.0,0.0,1,2,-0.05743399998755194,-0.024740599998040125,26.99017333984375,26.99017333984375,0.0,,13.0
15,['3'],3,TMTstop-control_1_2linestimulus12.png,TMTstop-control_1_2greenlinestimulus12.png,TMTstop-control_1_2redlinestimulus12.png,TMT_Control,2,40,1.0,27.094646453857422,27.094646453857422,0.0,,1.0,1.0,0.0,3,0.009016700001666322,27.094646453857422,27.094646453857422,0.0,,14.0
16,['1'],1,TMTstop-control_1_2linestimulus13.png,TMTstop-control_1_2greenlinestimulus13.png,TMTstop-control_1_2redlinestimulus13.png,TMT_Control,2,41,1.0,27.209842681884766,27.209842681884766,0.0,,1.0,1.0,0.0,1,0.03913630000897683,27.209842681884766,27.209842681884766,0.0,,15.0
17,['2'],2,TMTstop-control_1_2linestimulus14.png,TMTstop-control_1_2greenlinestimulus14.png,TMTstop-control_1_2redlinestimulus14.png,TMT_Control,2,42,1.0,27.3347110748291,27.3347110748291,0.0,,1.0,1.0,0.0,2,-0.05359669998870231,27.3347110748291,27.3347110748291,0.0,,16.0
18,['1'],1,TMTstop-control_1_2linestimulus15.png,TMTstop-control_1_2greenlinestimulus15.png,TMTstop-control_1_2redlinestimulus15.png,TMT_Control,2,43,1.0,27.417692184448242,27.417692184448242,0.0,,1.0,1.0,0.0,3,1,0.00992370001040399,0.1558247999928426,27.417692184448242,27.417692184448242,0.0,,17.0
19,['2'],2,TMTstop-control_1_2linestimulus16.png,TMTstop-control_1_2greenlinestimulus16.png,TMTstop-control_1_2redlinestimulus16.png,TMT_Control,2,44,1.0,27.667802810668945,27.667802810668945,0.0,,1.0,1.0,0.0,2,-0.04283880000002682,27.667802810668945,27.667802810668945,0.0,,18.0
20,['3'],3,TMTstop-control_1_2linestimulus17.png,TMTstop-control_1_2greenlinestimulus17.png,TMTstop-control_1_2redlinestimulus17.png,TMT_Control,2,45,1.0,27.750856399536133,27.750856399536133,0.0,,1.0,1.0,0.0,3,0.00749540000106208,27.750856399536133,27.750856399536133,0.0,,19.0
21,['1'],1,TMTstop-control_1_2linestimulus18.png,TMTstop-control_1_2greenlinestimulus18.png,TMTstop-control_1_2redlinestimulus18.png,TMT_Control,2,46,1.0,27.841442108154297,27.841442108154297,0.0,,1.0,1.0,0.0,1,0.06352399999741465,27.841442108154297,27.841442108154297,0.0,,20.0
22,['3'],3,TMTstop-control_1_2linestimulus19.png,TMTstop-control_1_2greenlinestimulus19.png,TMTstop-control_1_2redlinestimulus19.png,TMT_Control,2,47,1.0,28.00204086303711,28.00204086303711,0.0,,1.0,1.0,0.0,2,3,-0.0574923999956809,0.07188329999917187,28.00204086303711,28.00204086303711,0.0,,21.0
23,['2'],2,TMTstop-control_1_2linestimulus20.png,TMTstop-control_1_2greenlinestimulus20.png,TMTstop-control_1_2redlinestimulus20.png,TMT_Control,2,48,1.0,28.195953369140625,28.195953369140625,0.0,,1.0,1.0,0.0,1,2,0.023919799976283684,0.06566239998210222,28.195953369140625,28.195953369140625,0.0,,22.0
24,['3'],3,TMTstop-control_1_2linestimulus21.png,TMTstop-control_1_2greenlinestimulus21.png,TMTstop-control_1_2redlinestimulus21.png,TMT_Control,2,49,1.0,28.348295211791992,28.348295211791992,0.0,,1.0,1.0,0.0,3,0.06766860000789165,28.348295211791992,28.348295211791992,0.0,,23.0
25,['1'],1,TMTstop-control_1_2linestimulus22.png,TMTstop-control_1_2greenlinestimulus22.png,TMTstop-control_1_2redlinestimulus22.png,TMT_Control,2,50,1.0,28.502052307128906,28.502052307128906,0.0,,1.0,1.0,0.0,1,0.06893000000854954,28.502052307128906,28.502052307128906,0.0,,24.0
None,None,None,TMTstop-control_1_2linestimulus23.png,TMTstop-control_1_2greenlinestimulus23.png,TMTstop-control_1_2redlinestimulus23.png,TMT_Control,2,Feedback_last,1.0,28.6544189453125,28.6544189453125,0.0,,0.0,0.0,0.0,2,3,-0.04666029999498278,0.11547650001011789,28.6544189453125,28.6544189453125,0.0,,25.0

extraInfo
participant,
session,001
date,2022_Apr_29_1051
expName,TMT_fmri
psychopyVersion,2021.2.3
frameRate,140.0330758361401
﻿NumberLetter,corrAns,Correct,StimFile,Correct_StimFile,False_StimFile,Version,Block,TrialNumber_session,n,Stim.started_mean,Stim.started_raw,Stim.started_std,Stim.stopped_raw,key_resp_2.corr_mean,key_resp_2.corr_raw,key_resp_2.corr_std,key_resp_2.keys_raw,key_resp_2.rt_raw,key_resp_2.started_mean,key_resp_2.started_raw,key_resp_2.started_std,key_resp_2.stopped_raw,order
1,['2'],2,TMTstop-control_1_3.png,TMTstop-control_1_3.png,TMTstop-control_1_3.png,TMT_Control,3,51,1.0,32.82329559326172,32.82329559326172,0.0,,1.0,1.0,0.0,1,2,1.4833592000068165,1.4877840999979526,32.82329559326172,32.82329559326172,0.0,,0.0
2,['1'],1,TMTstop-control_1_3.png,TMTstop-control_1_3firstgreen.png,TMTstop-control_1_3firstred.png,TMT_Control,3,52,1.0,34.41949462890625,34.41949462890625,0.0,,1.0,1.0,0.0,3,1,0.04249940000590868,0.19119100001989864,34.41949462890625,34.41949462890625,0.0,,1.0
3,['2'],2,TMTstop-control_1_3linestimulus0.png,TMTstop-control_1_3greenlinestimulus0.png,TMTstop-control_1_3redlinestimulus0.png,TMT_Control,3,53,1.0,34.70326232910156,34.70326232910156,0.0,,1.0,1.0,0.0,2,-0.04850439997971989,34.70326232910156,34.70326232910156,0.0,,2.0
4,['1'],1,TMTstop-control_1_3linestimulus1.png,TMTstop-control_1_3greenlinestimulus1.png,TMTstop-control_1_3redlinestimulus1.png,TMT_Control,3,54,1.0,34.78600311279297,34.78600311279297,0.0,,1.0,1.0,0.0,3,1,-0.026331700006267056,0.11164869999629445,34.78600311279297,34.78600311279297,0.0,,3.0
5,['3'],3,TMTstop-control_1_3linestimulus2.png,TMTstop-control_1_3greenlinestimulus2.png,TMTstop-control_1_3redlinestimulus2.png,TMT_Control,3,55,1.0,35.007957458496094,35.007957458496094,0.0,,1.0,1.0,0.0,2,3,-0.059861799993086606,0.03254489999380894,35.007957458496094,35.007957458496094,0.0,,4.0
6,['1'],1,TMTstop-control_1_3linestimulus3.png,TMTstop-control_1_3greenlinestimulus3.png,TMTstop-control_1_3redlinestimulus3.png,TMT_Control,3,56,1.0,35.135353088378906,35.135353088378906,0.0,,1.0,1.0,0.0,1,0.04219609999563545,35.135353088378906,35.135353088378906,0.0,,5.0
7,['2'],2,TMTstop-control_1_3linestimulus4.png,TMTstop-control_1_3greenlinestimulus4.png,TMTstop-control_1_3redlinestimulus4.png,TMT_Control,3,57,1.0,35.27206802368164,35.27206802368164,0.0,,1.0,1.0,0.0,2,-0.05995409999741241,35.27206802368164,35.27206802368164,0.0,,6.0
8,['3'],3,TMTstop-control_1_3linestimulus4.png,TMTstop-control_1_3greenlinestimulus5.png,TMTstop-control_1_3redlinestimulus5.png,TMT_Control,3,58,1.0,35.36368179321289,35.36368179321289,0.0,,1.0,1.0,0.0,3,-0.0320040000078734,35.36368179321289,35.36368179321289,0.0,,7.0
9,['1'],1,TMTstop-control_1_3linestimulus6.png,TMTstop-control_1_3greenlinestimulus6.png,TMTstop-control_1_3redlinestimulus6.png,TMT_Control,3,59,1.0,35.45331954956055,35.45331954956055,0.0,,1.0,1.0,0.0,1,0.006848999997600913,35.45331954956055,35.45331954956055,0.0,,8.0
10,['2'],2,TMTstop-control_1_3linestimulus7.png,TMTstop-control_1_3greenlinestimulus7.png,TMTstop-control_1_3redlinestimulus7.png,TMT_Control,3,60,1.0,35.54978942871094,35.54978942871094,0.0,,1.0,1.0,0.0,2,-0.03414329999941401,35.54978942871094,35.54978942871094,0.0,,9.0
11,['1'],1,TMTstop-control_1_3linestimulus8.png,TMTstop-control_1_3greenlinestimulus8.png,TMTstop-control_1_3redlinestimulus8.png,TMT_Control,3,61,1.0,35.63268280029297,35.63268280029297,0.0,,1.0,1.0,0.0,3,1,-0.015988300001481548,0.10807029998977669,35.63268280029297,35.63268280029297,0.0,,10.0
12,['2'],2,TMTstop-control_1_3linestimulus9.png,TMTstop-control_1_3greenlinestimulus9.png,TMTstop-control_1_3redlinestimulus9.png,TMT_Control,3,62,1.0,35.877769470214844,35.877769470214844,0.0,,1.0,1.0,0.0,2,-0.08314699999755248,35.877769470214844,35.877769470214844,0.0,,11.0
13,['3'],3,TMTstop-control_1_3linestimulus10.png,TMTstop-control_1_3greenlinestimulus10.png,TMTstop-control_1_3redlinestimulus10.png,TMT_Control,3,63,1.0,35.966163635253906,35.966163635253906,0.0,,1.0,1.0,0.0,3,-0.06568860000697896,35.966163635253906,35.966163635253906,0.0,,12.0
14,['2'],2,TMTstop-control_1_3linestimulus11.png,TMTstop-control_1_3greenlinestimulus11.png,TMTstop-control_1_3redlinestimulus11.png,TMT_Control,3,64,1.0,36.05707550048828,36.05707550048828,0.0,,1.0,1.0,0.0,1,2,-0.019052399991778657,0.024349500017706305,36.05707550048828,36.05707550048828,0.0,,13.0
15,['1'],1,TMTstop-control_1_3linestimulus12.png,TMTstop-control_1_3greenlinestimulus12.png,TMTstop-control_1_3redlinestimulus12.png,TMT_Control,3,65,1.0,36.196720123291016,36.196720123291016,0.0,,1.0,1.0,0.0,3,1,-0.002453199995215982,0.12838290000217967,36.196720123291016,36.196720123291016,0.0,,14.0
16,['3'],3,TMTstop-control_1_3linestimulus13.png,TMTstop-control_1_3greenlinestimulus13.png,TMTstop-control_1_3redlinestimulus13.png,TMT_Control,3,66,1.0,36.4417724609375,36.4417724609375,0.0,,1.0,1.0,0.0,2,3,-0.07544230000348762,0.05756770001607947,36.4417724609375,36.4417724609375,0.0,,15.0
17,['1'],1,TMTstop-control_1_3linestimulus14.png,TMTstop-control_1_3greenlinestimulus14.png,TMTstop-control_1_3redlinestimulus14.png,TMT_Control,3,67,1.0,36.63308334350586,36.63308334350586,0.0,,1.0,1.0,0.0,1,0.004213099979097024,36.63308334350586,36.63308334350586,0.0,,16.0
18,['3'],3,TMTstop-control_1_3linestimulus15.png,TMTstop-control_1_3greenlinestimulus15.png,TMTstop-control_1_3redlinestimulus15.png,TMT_Control,3,68,1.0,36.730133056640625,36.730133056640625,0.0,,1.0,1.0,0.0,2,3,-0.04681269999127835,0.07815069999196567,36.730133056640625,36.730133056640625,0.0,,17.0
19,['2'],2,TMTstop-control_1_3linestimulus16.png,TMTstop-control_1_3greenlinestimulus16.png,TMTstop-control_1_3redlinestimulus16.png,TMT_Control,3,69,1.0,37.050025939941406,37.050025939941406,0.0,,1.0,1.0,0.0,1,2,-0.10693780001020059,-0.06398220002301969,37.050025939941406,37.050025939941406,0.0,,18.0
20,['1'],1,TMTstop-control_1_3linestimulus17.png,TMTstop-control_1_3greenlinestimulus17.png,TMTstop-control_1_3redlinestimulus17.png,TMT_Control,3,70,1.0,37.14198303222656,37.14198303222656,0.0,,1.0,1.0,0.0,3,1,2,3,1,-0.027578899986110628,0.11873980000382289,0.16126059999805875,0.28305830000317656,0.43011220000335015,37.14198303222656,37.14198303222656,0.0,,19.0
21,['3'],3,TMTstop-control_1_3linestimulus18.png,TMTstop-control_1_3greenlinestimulus18.png,TMTstop-control_1_3redlinestimulus18.png,TMT_Control,3,71,1.0,37.71223449707031,37.71223449707031,0.0,,1.0,1.0,0.0,2,3,-0.08594029999221675,0.042149300017626956,37.71223449707031,37.71223449707031,0.0,,20.0
22,['2'],2,TMTstop-control_1_3linestimulus19.png,TMTstop-control_1_3greenlinestimulus19.png,TMTstop-control_1_3redlinestimulus19.png,TMT_Control,3,72,1.0,37.85755920410156,37.85755920410156,0.0,,1.0,1.0,0.0,1,2,0.04909430001862347,0.08643490000395104,37.85755920410156,37.85755920410156,0.0,,21.0
23,['3'],3,TMTstop-control_1_3linestimulus20.png,TMTstop-control_1_3greenlinestimulus20.png,TMTstop-control_1_3redlinestimulus20.png,TMT_Control,3,73,1.0,38.04266357421875,38.04266357421875,0.0,,1.0,1.0,0.0,3,0.020228800014592707,38.04266357421875,38.04266357421875,0.0,,22.0
24,['1'],1,TMTstop-control_1_3linestimulus21.png,TMTstop-control_1_3greenlinestimulus21.png,TMTstop-control_1_3redlinestimulus21.png,TMT_Control,3,74,1.0,38.15445327758789,38.15445327758789,0.0,,1.0,1.0,0.0,1,0.04957909998483956,38.15445327758789,38.15445327758789,0.0,,23.0
25,['2'],2,TMTstop-control_1_3linestimulus22.png,TMTstop-control_1_3greenlinestimulus22.png,TMTstop-control_1_3redlinestimulus22.png,TMT_Control,3,75,1.0,38.285728454589844,38.285728454589844,0.0,,1.0,1.0,0.0,2,-0.04883240000344813,38.285728454589844,38.285728454589844,0.0,,24.0
None,None,None,TMTstop-control_1_3linestimulus23.png,TMTstop-control_1_3greenlinestimulus23.png,TMTstop-control_1_3redlinestimulus23.png,TMT_Control,3,Feedback_last,1.0,38.377227783203125,38.377227783203125,0.0,,0.0,0.0,0.0,3,1,2,3,-0.031717400008346885,0.10047489998396486,0.1378882999997586,0.26632100000279024,38.377227783203125,38.377227783203125,0.0,,25.0

extraInfo
participant,
session,001
date,2022_Apr_29_1051
expName,TMT_fmri
psychopyVersion,2021.2.3
frameRate,140.0330758361401
﻿NumberLetter,corrAns,Correct,StimFile,Correct_StimFile,False_StimFile,Version,Block,TrialNumber_session,n,Stim.started_mean,Stim.started_raw,Stim.started_std,Stim.stopped_raw,key_resp_2.corr_mean,key_resp_2.corr_raw,key_resp_2.corr_std,key_resp_2.keys_raw,key_resp_2.rt_raw,key_resp_2.started_mean,key_resp_2.started_raw,key_resp_2.started_std,key_resp_2.stopped_raw,order
1,['2'],2,TMTstop-control_1_4.png,TMTstop-control_1_4.png,TMTstop-control_1_4.png,TMT_Control,4,76,1.0,42.55940246582031,42.55940246582031,0.0,,1.0,1.0,0.0,1,2,0.40493180000339635,0.5234594999928959,42.55940246582031,42.55940246582031,0.0,,0.0
2,['1'],1,TMTstop-control_1_4.png,TMTstop-control_1_4firstgreen.png,TMTstop-control_1_4firstred.png,TMT_Control,4,77,1.0,43.21116638183594,43.21116638183594,0.0,,1.0,1.0,0.0,3,1,-0.05748039999161847,0.11470060001011007,43.21116638183594,43.21116638183594,0.0,,1.0
3,['3'],3,TMTstop-control_1_4linestimulus0.png,TMTstop-control_1_4greenlinestimulus0.png,TMTstop-control_1_4redlinestimulus0.png,TMT_Control,4,78,1.0,43.41065979003906,43.41065979003906,0.0,,1.0,1.0,0.0,2,3,-0.04745190002722666,0.06674299997393973,43.41065979003906,43.41065979003906,0.0,,2.0
4,['1'],1,TMTstop-control_1_4linestimulus1.png,TMTstop-control_1_4greenlinestimulus1.png,TMTstop-control_1_4redlinestimulus1.png,TMT_Control,4,79,1.0,43.591304779052734,43.591304779052734,0.0,,1.0,1.0,0.0,1,0.052280600008089095,43.591304779052734,43.591304779052734,0.0,,3.0
5,['3'],3,TMTstop-control_1_4linestimulus2.png,TMTstop-control_1_4greenlinestimulus2.png,TMTstop-control_1_4redlinestimulus2.png,TMT_Control,4,80,1.0,43.73094177246094,43.73094177246094,0.0,,1.0,1.0,0.0,2,3,-0.07022140000481158,0.08637480001198128,43.73094177246094,43.73094177246094,0.0,,4.0
6,['1'],1,TMTstop-control_1_4linestimulus3.png,TMTstop-control_1_4greenlinestimulus3.png,TMTstop-control_1_4redlinestimulus3.png,TMT_Control,4,81,1.0,43.91780090332031,43.91780090332031,0.0,,1.0,1.0,0.0,1,0.05141640000510961,43.91780090332031,43.91780090332031,0.0,,5.0
7,['3'],3,TMTstop-control_1_4linestimulus4.png,TMTstop-control_1_4greenlinestimulus4.png,TMTstop-control_1_4redlinestimulus4.png,TMT_Control,4,82,1.0,44.05778121948242,44.05778121948242,0.0,,1.0,1.0,0.0,2,3,-0.04763950000051409,0.06204250000882894,44.05778121948242,44.05778121948242,0.0,,6.0
8,['1'],1,TMTstop-control_1_4linestimulus4.png,TMTstop-control_1_4greenlinestimulus5.png,TMTstop-control_1_4redlinestimulus5.png,TMT_Control,4,83,1.0,44.237159729003906,44.237159729003906,0.0,,1.0,1.0,0.0,1,0.028810800024075434,44.237159729003906,44.237159729003906,0.0,,7.0
9,['3'],3,TMTstop-control_1_4linestimulus6.png,TMTstop-control_1_4greenlinestimulus6.png,TMTstop-control_1_4redlinestimulus6.png,TMT_Control,4,84,1.0,44.355506896972656,44.355506896972656,0.0,,1.0,1.0,0.0,2,3,-0.04338780001853593,0.07970939998631366,44.355506896972656,44.355506896972656,0.0,,8.0
10,['2'],2,TMTstop-control_1_4linestimulus7.png,TMTstop-control_1_4greenlinestimulus7.png,TMTstop-control_1_4redlinestimulus7.png,TMT_Control,4,85,1.0,44.52214050292969,44.52214050292969,0.0,,1.0,1.0,0.0,1,2,0.08319969999138266,0.17845899998792447,44.52214050292969,44.52214050292969,0.0,,9.0
11,['1'],1,TMTstop-control_1_4linestimulus8.png,TMTstop-control_1_4greenlinestimulus8.png,TMTstop-control_1_4redlinestimulus8.png,TMT_Control,4,86,1.0,44.78647994995117,44.78647994995117,0.0,,1.0,1.0,0.0,3,1,0.04583079999429174,0.5883515999885276,44.78647994995117,44.78647994995117,0.0,,10.0
12,['3'],3,TMTstop-control_1_4linestimulus9.png,TMTstop-control_1_4greenlinestimulus9.png,TMTstop-control_1_4redlinestimulus9.png,TMT_Control,4,87,1.0,45.4800910949707,45.4800910949707,0.0,,1.0,1.0,0.0,2,3,-0.06703120001475327,0.05930149997584522,45.4800910949707,45.4800910949707,0.0,,11.0
13,['2'],2,TMTstop-control_1_4linestimulus10.png,TMTstop-control_1_4greenlinestimulus10.png,TMTstop-control_1_4redlinestimulus10.png,TMT_Control,4,88,1.0,45.66115951538086,45.66115951538086,0.0,,1.0,1.0,0.0,1,2,0.20241640001768246,0.27793940002447926,45.66115951538086,45.66115951538086,0.0,,12.0
14,['3'],3,TMTstop-control_1_4linestimulus11.png,TMTstop-control_1_4greenlinestimulus11.png,TMTstop-control_1_4redlinestimulus11.png,TMT_Control,4,89,1.0,46.06599807739258,46.06599807739258,0.0,,1.0,1.0,0.0,3,-0.011022699996829033,46.06599807739258,46.06599807739258,0.0,,13.0
15,['2'],2,TMTstop-control_1_4linestimulus12.png,TMTstop-control_1_4greenlinestimulus12.png,TMTstop-control_1_4redlinestimulus12.png,TMT_Control,4,90,1.0,46.16240310668945,46.16240310668945,0.0,,1.0,1.0,0.0,1,2,0.052874699991662055,0.10332220001146197,46.16240310668945,46.16240310668945,0.0,,14.0
16,['1'],1,TMTstop-control_1_4linestimulus13.png,TMTstop-control_1_4greenlinestimulus13.png,TMTstop-control_1_4redlinestimulus13.png,TMT_Control,4,91,1.0,46.36186218261719,46.36186218261719,0.0,,1.0,1.0,0.0,3,1,0.024249699985375628,0.15500719999545254,46.36186218261719,46.36186218261719,0.0,,15.0
17,['3'],3,TMTstop-control_1_4linestimulus14.png,TMTstop-control_1_4greenlinestimulus14.png,TMTstop-control_1_4redlinestimulus14.png,TMT_Control,4,92,1.0,46.633548736572266,46.633548736572266,0.0,,1.0,1.0,0.0,2,3,-0.0710110999934841,0.03494650000357069,46.633548736572266,46.633548736572266,0.0,,16.0
18,['1'],1,TMTstop-control_1_4linestimulus15.png,TMTstop-control_1_4greenlinestimulus15.png,TMTstop-control_1_4redlinestimulus15.png,TMT_Control,4,93,1.0,46.80849075317383,46.80849075317383,0.0,,1.0,1.0,0.0,1,-0.006521100003737956,46.80849075317383,46.80849075317383,0.0,,17.0
19,['2'],2,TMTstop-control_1_4linestimulus16.png,TMTstop-control_1_4greenlinestimulus16.png,TMTstop-control_1_4redlinestimulus16.png,TMT_Control,4,94,1.0,46.905799865722656,46.905799865722656,0.0,,1.0,1.0,0.0,2,-0.05301920001511462,46.905799865722656,46.905799865722656,0.0,,18.0
20,['1'],1,TMTstop-control_1_4linestimulus17.png,TMTstop-control_1_4greenlinestimulus17.png,TMTstop-control_1_4redlinestimulus17.png,TMT_Control,4,95,1.0,47.00300216674805,47.00300216674805,0.0,,1.0,1.0,0.0,3,1,-0.04112219999660738,0.10569500000565313,47.00300216674805,47.00300216674805,0.0,,19.0
21,['2'],2,TMTstop-control_1_4linestimulus18.png,TMTstop-control_1_4greenlinestimulus18.png,TMTstop-control_1_4redlinestimulus18.png,TMT_Control,4,96,1.0,47.3353271484375,47.3353271484375,0.0,,1.0,1.0,0.0,2,3,1,2,-0.157928600005107,-0.054036199988331646,0.08349980000639334,0.14480800001183525,47.3353271484375,47.3353271484375,0.0,,20.0
22,['1'],1,TMTstop-control_1_4linestimulus19.png,TMTstop-control_1_4greenlinestimulus19.png,TMTstop-control_1_4redlinestimulus19.png,TMT_Control,4,97,1.0,47.57172393798828,47.57172393798828,0.0,,1.0,1.0,0.0,3,1,0.031137999991187826,0.17007150000426918,47.57172393798828,47.57172393798828,0.0,,21.0
23,['2'],2,TMTstop-control_1_4linestimulus20.png,TMTstop-control_1_4greenlinestimulus20.png,TMTstop-control_1_4redlinestimulus20.png,TMT_Control,4,98,1.0,47.86452102661133,47.86452102661133,0.0,,1.0,1.0,0.0,2,-0.06383199998526834,47.86452102661133,47.86452102661133,0.0,,22.0
24,['1'],1,TMTstop-control_1_4linestimulus21.png,TMTstop-control_1_4greenlinestimulus21.png,TMTstop-control_1_4redlinestimulus21.png,TMT_Control,4,99,1.0,47.97627639770508,47.97627639770508,0.0,,1.0,1.0,0.0,3,1,-0.052708800008986145,0.0938214999914635,47.97627639770508,47.97627639770508,0.0,,23.0
25,['2'],2,TMTstop-control_1_4linestimulus22.png,TMTstop-control_1_4greenlinestimulus22.png,TMTstop-control_1_4redlinestimulus22.png,TMT_Control,4,100,1.0,48.19647216796875,48.19647216796875,0.0,,1.0,1.0,0.0,2,-0.07077489999937825,48.19647216796875,48.19647216796875,0.0,,24.0
None,None,None,TMTstop-control_1_4linestimulus23.png,TMTstop-control_1_4greenlinestimulus23.png,TMTstop-control_1_4redlinestimulus23.png,TMT_Control,4,Feedback_last,1.0,48.28715896606445,48.28715896606445,0.0,,0.0,0.0,0.0,3,1,2,3,-0.04230030000326224,0.08899869999731891,0.1729611000046134,0.29106839999440126,48.28715896606445,48.28715896606445,0.0,,25.0

extraInfo
participant,
session,001
date,2022_Apr_29_1051
expName,TMT_fmri
psychopyVersion,2021.2.3
frameRate,140.0330758361401
﻿NumberLetter,corrAns,Correct,StimFile,Correct_StimFile,False_StimFile,Version,Block,TrialNumber_session,n,Stim.started_mean,Stim.started_raw,Stim.started_std,Stim.stopped_raw,key_resp_2.corr_mean,key_resp_2.corr_raw,key_resp_2.corr_std,key_resp_2.keys_raw,key_resp_2.rt_raw,key_resp_2.started_mean,key_resp_2.started_raw,key_resp_2.started_std,key_resp_2.stopped_raw,order
1,['3'],3,TMTstop-control_1_5.png,TMTstop-control_1_5.png,TMTstop-control_1_5.png,TMT_Control,5,101,1.0,52.45633316040039,52.45633316040039,0.0,,1.0,1.0,0.0,1,2,3,1.1716501000046264,1.2081484000082128,1.3424782000074629,52.45633316040039,52.45633316040039,0.0,,0.0
2,['2'],2,TMTstop-control_1_5.png,TMTstop-control_1_5firstgreen.png,TMTstop-control_1_5firstred.png,TMT_Control,5,102,1.0,53.90351104736328,53.90351104736328,0.0,,1.0,1.0,0.0,1,2,0.054662900016410276,0.10942590000922792,53.90351104736328,53.90351104736328,0.0,,1.0
3,['1'],1,TMTstop-control_1_5linestimulus0.png,TMTstop-control_1_5greenlinestimulus0.png,TMTstop-control_1_5redlinestimulus0.png,TMT_Control,5,103,1.0,54.139190673828125,54.139190673828125,0.0,,1.0,1.0,0.0,3,1,2,3,1,-0.019909399998141453,0.10863090000930242,0.13955540000461042,0.2673470000154339,0.3997998000122607,54.139190673828125,54.139190673828125,0.0,,2.0
4,['3'],3,TMTstop-control_1_5linestimulus1.png,TMTstop-control_1_5greenlinestimulus1.png,TMTstop-control_1_5redlinestimulus1.png,TMT_Control,5,104,1.0,54.63983917236328,54.63983917236328,0.0,,1.0,1.0,0.0,2,3,-0.02618419998907484,0.07798750000074506,54.63983917236328,54.63983917236328,0.0,,3.0
5,['1'],1,TMTstop-control_1_5linestimulus2.png,TMTstop-control_1_5greenlinestimulus2.png,TMTstop-control_1_5redlinestimulus2.png,TMT_Control,5,105,1.0,54.814247131347656,54.814247131347656,0.0,,1.0,1.0,0.0,1,0.06086409999988973,54.814247131347656,54.814247131347656,0.0,,4.0
6,['2'],2,TMTstop-control_1_5linestimulus3.png,TMTstop-control_1_5greenlinestimulus3.png,TMTstop-control_1_5redlinestimulus3.png,TMT_Control,5,106,1.0,54.9595947265625,54.9595947265625,0.0,,1.0,1.0,0.0,2,-0.04237049998482689,54.9595947265625,54.9595947265625,0.0,,5.0
7,['3'],3,TMTstop-control_1_5linestimulus4.png,TMTstop-control_1_5greenlinestimulus4.png,TMTstop-control_1_5redlinestimulus4.png,TMT_Control,5,107,1.0,55.042232513427734,55.042232513427734,0.0,,1.0,1.0,0.0,3,0.014215400005923584,55.042232513427734,55.042232513427734,0.0,,6.0
8,['2'],2,TMTstop-control_1_5linestimulus4.png,TMTstop-control_1_5greenlinestimulus5.png,TMTstop-control_1_5redlinestimulus5.png,TMT_Control,5,108,1.0,55.14670181274414,55.14670181274414,0.0,,1.0,1.0,0.0,1,2,0.05733919999329373,0.1032849999901373,55.14670181274414,55.14670181274414,0.0,,7.0
9,['1'],1,TMTstop-control_1_5linestimulus6.png,TMTstop-control_1_5greenlinestimulus6.png,TMTstop-control_1_5redlinestimulus6.png,TMT_Control,5,109,1.0,55.34894943237305,55.34894943237305,0.0,,1.0,1.0,0.0,3,1,0.04045920001226477,0.1890154000138864,55.34894943237305,55.34894943237305,0.0,,8.0
10,['2'],2,TMTstop-control_1_5linestimulus7.png,TMTstop-control_1_5greenlinestimulus7.png,TMTstop-control_1_5redlinestimulus7.png,TMT_Control,5,110,1.0,55.63261032104492,55.63261032104492,0.0,,1.0,1.0,0.0,2,-0.032938300020759925,55.63261032104492,55.63261032104492,0.0,,9.0
11,['1'],1,TMTstop-control_1_5linestimulus8.png,TMTstop-control_1_5greenlinestimulus8.png,TMTstop-control_1_5redlinestimulus8.png,TMT_Control,5,111,1.0,55.716514587402344,55.716514587402344,0.0,,1.0,1.0,0.0,3,1,0.05718699999852106,0.22526529998867773,55.716514587402344,55.716514587402344,0.0,,10.0
12,['3'],3,TMTstop-control_1_5linestimulus9.png,TMTstop-control_1_5greenlinestimulus9.png,TMTstop-control_1_5redlinestimulus9.png,TMT_Control,5,112,1.0,56.06297302246094,56.06297302246094,0.0,,1.0,1.0,0.0,2,3,-0.07423120000748895,0.06568339999648742,56.06297302246094,56.06297302246094,0.0,,11.0
13,['2'],2,TMTstop-control_1_5linestimulus10.png,TMTstop-control_1_5greenlinestimulus10.png,TMTstop-control_1_5redlinestimulus10.png,TMT_Control,5,113,1.0,56.25210189819336,56.25210189819336,0.0,,1.0,1.0,0.0,1,2,0.02973280000151135,0.08859440000378527,56.25210189819336,56.25210189819336,0.0,,12.0
14,['3'],3,TMTstop-control_1_5linestimulus11.png,TMTstop-control_1_5greenlinestimulus11.png,TMTstop-control_1_5redlinestimulus11.png,TMT_Control,5,114,1.0,56.44609832763672,56.44609832763672,0.0,,1.0,1.0,0.0,3,0.041580400022212416,56.44609832763672,56.44609832763672,0.0,,13.0
15,['1'],1,TMTstop-control_1_5linestimulus12.png,TMTstop-control_1_5greenlinestimulus12.png,TMTstop-control_1_5redlinestimulus12.png,TMT_Control,5,115,1.0,56.56982421875,56.56982421875,0.0,,1.0,1.0,0.0,1,0.07797869999194518,56.56982421875,56.56982421875,0.0,,14.0
16,['2'],2,TMTstop-control_1_5linestimulus13.png,TMTstop-control_1_5greenlinestimulus13.png,TMTstop-control_1_5redlinestimulus13.png,TMT_Control,5,116,1.0,56.75869369506836,56.75869369506836,0.0,,1.0,1.0,0.0,2,-0.045201400003861636,56.75869369506836,56.75869369506836,0.0,,15.0
17,['3'],3,TMTstop-control_1_5linestimulus14.png,TMTstop-control_1_5greenlinestimulus14.png,TMTstop-control_1_5redlinestimulus14.png,TMT_Control,5,117,1.0,56.84956359863281,56.84956359863281,0.0,,1.0,1.0,0.0,3,0.00704349999432452,56.84956359863281,56.84956359863281,0.0,,16.0
18,['1'],1,TMTstop-control_1_5linestimulus15.png,TMTstop-control_1_5greenlinestimulus15.png,TMTstop-control_1_5redlinestimulus15.png,TMT_Control,5,118,1.0,56.951812744140625,56.951812744140625,0.0,,1.0,1.0,0.0,1,0.04345099997590296,56.951812744140625,56.951812744140625,0.0,,17.0
19,['2'],2,TMTstop-control_1_5linestimulus16.png,TMTstop-control_1_5greenlinestimulus16.png,TMTstop-control_1_5redlinestimulus16.png,TMT_Control,5,119,1.0,57.07202911376953,57.07202911376953,0.0,,1.0,1.0,0.0,2,-0.013808800023980439,57.07202911376953,57.07202911376953,0.0,,18.0
20,['1'],1,TMTstop-control_1_5linestimulus17.png,TMTstop-control_1_5greenlinestimulus17.png,TMTstop-control_1_5redlinestimulus17.png,TMT_Control,5,120,1.0,57.15308380126953,57.15308380126953,0.0,,1.0,1.0,0.0,3,1,0.04464759997790679,0.17592109998804517,57.15308380126953,57.15308380126953,0.0,,19.0
21,['2'],2,TMTstop-control_1_5linestimulus18.png,TMTstop-control_1_5greenlinestimulus18.png,TMTstop-control_1_5redlinestimulus18.png,TMT_Control,5,121,1.0,57.453956604003906,57.453956604003906,0.0,,1.0,1.0,0.0,2,-0.07061250001424924,57.453956604003906,57.453956604003906,0.0,,20.0
22,['1'],1,TMTstop-control_1_5linestimulus19.png,TMTstop-control_1_5greenlinestimulus19.png,TMTstop-control_1_5redlinestimulus19.png,TMT_Control,5,122,1.0,57.6409797668457,57.6409797668457,0.0,,1.0,1.0,0.0,3,1,-0.11921930001699366,0.05989420000696555,57.6409797668457,57.6409797668457,0.0,,21.0
23,['3'],3,TMTstop-control_1_5linestimulus20.png,TMTstop-control_1_5greenlinestimulus20.png,TMTstop-control_1_5redlinestimulus20.png,TMT_Control,5,123,1.0,57.82667541503906,57.82667541503906,0.0,,1.0,1.0,0.0,2,3,-0.053390499990200624,0.08438690000912175,57.82667541503906,57.82667541503906,0.0,,22.0
24,['1'],1,TMTstop-control_1_5linestimulus21.png,TMTstop-control_1_5greenlinestimulus21.png,TMTstop-control_1_5redlinestimulus21.png,TMT_Control,5,124,1.0,58.00062561035156,58.00062561035156,0.0,,1.0,1.0,0.0,1,0.06740429997444153,58.00062561035156,58.00062561035156,0.0,,23.0
25,['3'],3,TMTstop-control_1_5linestimulus22.png,TMTstop-control_1_5greenlinestimulus22.png,TMTstop-control_1_5redlinestimulus22.png,TMT_Control,5,125,1.0,58.16397476196289,58.16397476196289,0.0,,1.0,1.0,0.0,2,3,-0.047864699998172,0.10046650000731461,58.16397476196289,58.16397476196289,0.0,,24.0
None,None,None,TMTstop-control_1_5linestimulus23.png,TMTstop-control_1_5greenlinestimulus23.png,TMTstop-control_1_5redlinestimulus23.png,TMT_Control,5,Feedback_last,1.0,58.357215881347656,58.357215881347656,0.0,,0.0,0.0,0.0,1,2,3,0.09914590002154,0.11720999999670312,0.2996032000228297,58.357215881347656,58.357215881347656,0.0,,25.0

extraInfo
participant,
session,001
date,2022_Apr_29_1051
expName,TMT_fmri
psychopyVersion,2021.2.3
frameRate,140.0330758361401
﻿NumberLetter,corrAns,Correct,StimFile,Correct_StimFile,False_StimFile,Version,Block,TrialNumber_session,n,Stim.started_mean,Stim.started_raw,Stim.started_std,Stim.stopped_raw,key_resp_2.corr_mean,key_resp_2.corr_raw,key_resp_2.corr_std,key_resp_2.keys_raw,key_resp_2.rt_raw,key_resp_2.started_mean,key_resp_2.started_raw,key_resp_2.started_std,key_resp_2.stopped_raw,order
1,['3'],3,TMTstop-control_1_6.png,TMTstop-control_1_6.png,TMTstop-control_1_6.png,TMT_Control,6,126,1.0,62.51594543457031,62.51594543457031,0.0,,1.0,1.0,0.0,1,2,3,0.7863302000041585,0.860212200001115,0.9768863999925088,62.51594543457031,62.51594543457031,0.0,,0.0
2,['2'],2,TMTstop-control_1_6.png,TMTstop-control_1_6firstgreen.png,TMTstop-control_1_6firstred.png,TMT_Control,6,127,1.0,63.59867858886719,63.59867858886719,0.0,,1.0,1.0,0.0,1,2,0.06006819999311119,0.09080720000201836,63.59867858886719,63.59867858886719,0.0,,1.0
3,['1'],1,TMTstop-control_1_6linestimulus0.png,TMTstop-control_1_6greenlinestimulus0.png,TMTstop-control_1_6redlinestimulus0.png,TMT_Control,6,128,1.0,63.79155349731445,63.79155349731445,0.0,,1.0,1.0,0.0,3,1,0.028595599986147135,0.17320349998772144,63.79155349731445,63.79155349731445,0.0,,2.0
4,['2'],2,TMTstop-control_1_6linestimulus1.png,TMTstop-control_1_6greenlinestimulus1.png,TMTstop-control_1_6redlinestimulus1.png,TMT_Control,6,129,1.0,64.04903411865234,64.04903411865234,0.0,,1.0,1.0,0.0,2,-0.051264500012621284,64.04903411865234,64.04903411865234,0.0,,3.0
5,['3'],3,TMTstop-control_1_6linestimulus2.png,TMTstop-control_1_6greenlinestimulus2.png,TMTstop-control_1_6redlinestimulus2.png,TMT_Control,6,130,1.0,64.12520599365234,64.12520599365234,0.0,,1.0,1.0,0.0,3,0.014104700007010251,64.12520599365234,64.12520599365234,0.0,,4.0
6,['2'],2,TMTstop-control_1_6linestimulus3.png,TMTstop-control_1_6greenlinestimulus3.png,TMTstop-control_1_6redlinestimulus3.png,TMT_Control,6,131,1.0,64.2366943359375,64.2366943359375,0.0,,1.0,1.0,0.0,1,2,0.04209559998707846,0.09183409999241121,64.2366943359375,64.2366943359375,0.0,,5.0
7,['1'],1,TMTstop-control_1_6linestimulus4.png,TMTstop-control_1_6greenlinestimulus4.png,TMTstop-control_1_6redlinestimulus4.png,TMT_Control,6,132,1.0,64.4591064453125,64.4591064453125,0.0,,1.0,1.0,0.0,3,1,0.0017571999924257398,0.14226339999004267,64.4591064453125,64.4591064453125,0.0,,6.0
8,['3'],3,TMTstop-control_1_6linestimulus4.png,TMTstop-control_1_6greenlinestimulus5.png,TMTstop-control_1_6redlinestimulus5.png,TMT_Control,6,133,1.0,64.71649932861328,64.71649932861328,0.0,,1.0,1.0,0.0,2,3,-0.05510190001223236,0.08789059999980964,64.71649932861328,64.71649932861328,0.0,,7.0
9,['2'],2,TMTstop-control_1_6linestimulus6.png,TMTstop-control_1_6greenlinestimulus6.png,TMTstop-control_1_6redlinestimulus6.png,TMT_Control,6,134,1.0,64.91732025146484,64.91732025146484,0.0,,1.0,1.0,0.0,1,2,0.02581089999875985,0.09194939999724738,64.91732025146484,64.91732025146484,0.0,,8.0
10,['1'],1,TMTstop-control_1_6linestimulus7.png,TMTstop-control_1_6greenlinestimulus7.png,TMTstop-control_1_6redlinestimulus7.png,TMT_Control,6,135,1.0,65.12628173828125,65.12628173828125,0.0,,1.0,1.0,0.0,3,1,2,3,1,0.0033591999963391572,0.16630389998317696,0.20567110000411049,0.352084999991348,0.525083899992751,65.12628173828125,65.12628173828125,0.0,,9.0
11,['2'],2,TMTstop-control_1_6linestimulus8.png,TMTstop-control_1_6greenlinestimulus8.png,TMTstop-control_1_6redlinestimulus8.png,TMT_Control,6,136,1.0,65.77193450927734,65.77193450927734,0.0,,1.0,1.0,0.0,2,-0.07941649999702349,65.77193450927734,65.77193450927734,0.0,,10.0
12,['3'],3,TMTstop-control_1_6linestimulus9.png,TMTstop-control_1_6greenlinestimulus9.png,TMTstop-control_1_6redlinestimulus9.png,TMT_Control,6,137,1.0,65.8634262084961,65.8634262084961,0.0,,1.0,1.0,0.0,3,-0.03062169998884201,65.8634262084961,65.8634262084961,0.0,,11.0
13,['1'],1,TMTstop-control_1_6linestimulus10.png,TMTstop-control_1_6greenlinestimulus10.png,TMTstop-control_1_6redlinestimulus10.png,TMT_Control,6,138,1.0,65.95159149169922,65.95159149169922,0.0,,1.0,1.0,0.0,1,0.02336759999161586,65.95159149169922,65.95159149169922,0.0,,12.0
14,['3'],3,TMTstop-control_1_6linestimulus11.png,TMTstop-control_1_6greenlinestimulus11.png,TMTstop-control_1_6redlinestimulus11.png,TMT_Control,6,139,1.0,66.0711441040039,66.0711441040039,0.0,,1.0,1.0,0.0,2,3,-0.05081710001104511,0.08499040000606328,66.0711441040039,66.0711441040039,0.0,,13.0
15,['2'],2,TMTstop-control_1_6linestimulus12.png,TMTstop-control_1_6greenlinestimulus12.png,TMTstop-control_1_6redlinestimulus12.png,TMT_Control,6,140,1.0,66.2646713256836,66.2646713256836,0.0,,1.0,1.0,0.0,1,2,0.027741099998820573,0.07338899999740534,66.2646713256836,66.2646713256836,0.0,,14.0
16,['3'],3,TMTstop-control_1_6linestimulus13.png,TMTstop-control_1_6greenlinestimulus13.png,TMTstop-control_1_6redlinestimulus13.png,TMT_Control,6,141,1.0,66.43099975585938,66.43099975585938,0.0,,1.0,1.0,0.0,3,0.030522099987138063,66.43099975585938,66.43099975585938,0.0,,15.0
17,['1'],1,TMTstop-control_1_6linestimulus14.png,TMTstop-control_1_6greenlinestimulus14.png,TMTstop-control_1_6redlinestimulus14.png,TMT_Control,6,142,1.0,66.56600189208984,66.56600189208984,0.0,,1.0,1.0,0.0,1,0.04816390000632964,66.56600189208984,66.56600189208984,0.0,,16.0
18,['2'],2,TMTstop-control_1_6linestimulus15.png,TMTstop-control_1_6greenlinestimulus15.png,TMTstop-control_1_6redlinestimulus15.png,TMT_Control,6,143,1.0,66.73910522460938,66.73910522460938,0.0,,1.0,1.0,0.0,2,-0.05636729998514056,66.73910522460938,66.73910522460938,0.0,,17.0
19,['3'],3,TMTstop-control_1_6linestimulus16.png,TMTstop-control_1_6greenlinestimulus16.png,TMTstop-control_1_6redlinestimulus16.png,TMT_Control,6,144,1.0,66.8360824584961,66.8360824584961,0.0,,1.0,1.0,0.0,3,0.014871899998979643,66.8360824584961,66.8360824584961,0.0,,18.0
20,['2'],2,TMTstop-control_1_6linestimulus17.png,TMTstop-control_1_6greenlinestimulus17.png,TMTstop-control_1_6redlinestimulus17.png,TMT_Control,6,145,1.0,66.94652557373047,66.94652557373047,0.0,,1.0,1.0,0.0,1,2,1.6925622999842744,1.7665321999811567,66.94652557373047,66.94652557373047,0.0,,19.0
21,['1'],1,TMTstop-control_1_6linestimulus18.png,TMTstop-control_1_6greenlinestimulus18.png,TMTstop-control_1_6redlinestimulus18.png,TMT_Control,6,146,1.0,68.83405303955078,68.83405303955078,0.0,,1.0,1.0,0.0,3,1,0.008345100010046735,0.16783970000687987,68.83405303955078,68.83405303955078,0.0,,20.0
22,['2'],2,TMTstop-control_1_6linestimulus19.png,TMTstop-control_1_6greenlinestimulus19.png,TMTstop-control_1_6redlinestimulus19.png,TMT_Control,6,147,1.0,69.1404037475586,69.1404037475586,0.0,,1.0,1.0,0.0,2,-0.09248210000805557,69.1404037475586,69.1404037475586,0.0,,21.0
23,['1'],1,TMTstop-control_1_6linestimulus20.png,TMTstop-control_1_6greenlinestimulus20.png,TMTstop-control_1_6redlinestimulus20.png,TMT_Control,6,148,1.0,69.23811340332031,69.23811340332031,0.0,,1.0,1.0,0.0,3,1,-0.047342499980004504,0.0941418000147678,69.23811340332031,69.23811340332031,0.0,,22.0
24,['2'],2,TMTstop-control_1_6linestimulus21.png,TMTstop-control_1_6greenlinestimulus21.png,TMTstop-control_1_6redlinestimulus21.png,TMT_Control,6,149,1.0,69.44650268554688,69.44650268554688,0.0,,1.0,1.0,0.0,2,-0.07128049997845665,69.44650268554688,69.44650268554688,0.0,,23.0
25,['3'],3,TMTstop-control_1_6linestimulus22.png,TMTstop-control_1_6greenlinestimulus22.png,TMTstop-control_1_6redlinestimulus22.png,TMT_Control,6,150,1.0,69.55712127685547,69.55712127685547,0.0,,1.0,1.0,0.0,3,-0.04573300000629388,69.55712127685547,69.55712127685547,0.0,,24.0
None,None,None,TMTstop-control_1_6linestimulus23.png,TMTstop-control_1_6greenlinestimulus23.png,TMTstop-control_1_6redlinestimulus23.png,TMT_Control,6,Feedback_last,1.0,69.63919067382812,69.63919067382812,0.0,,0.0,0.0,0.0,1,2,3,2,3,1,2,0.013618700002552941,0.05946530000073835,0.20337130001280457,0.5142476000182796,0.7855233000009321,0.8378039000090212,0.9474835000000894,69.63919067382812,69.63919067382812,0.0,,25.0

extraInfo
participant,
session,001
date,2022_Apr_29_1051
expName,TMT_fmri
psychopyVersion,2021.2.3
frameRate,140.0330758361401
﻿NumberLetter,corrAns,Correct,StimFile,Correct_StimFile,False_StimFile,Version,Block,TrialNumber_session,n,Stim.started_mean,Stim.started_raw,Stim.started_std,Stim.stopped_raw,key_resp_2.corr_mean,key_resp_2.corr_raw,key_resp_2.corr_std,key_resp_2.keys_raw,key_resp_2.rt_raw,key_resp_2.started_mean,key_resp_2.started_raw,key_resp_2.started_std,key_resp_2.stopped_raw,order
1,['1'],1,TMTstop-control_1_7.png,TMTstop-control_1_7.png,TMTstop-control_1_7.png,TMT_Control,7,151,1.0,73.80725860595703,73.80725860595703,0.0,,1.0,1.0,0.0,3,1,2,3,1,-3.1278346000181045,-2.9294792000146117,-2.8861485999950673,-2.736833300004946,0.55476989998715,73.80725860595703,73.80725860595703,0.0,,0.0
2,['2'],2,TMTstop-control_1_7.png,TMTstop-control_1_7firstgreen.png,TMTstop-control_1_7firstred.png,TMT_Control,7,152,1.0,74.53047943115234,74.53047943115234,0.0,,1.0,1.0,0.0,2,-0.09044629998970777,74.53047943115234,74.53047943115234,0.0,,1.0
3,['3'],3,TMTstop-control_1_7linestimulus0.png,TMTstop-control_1_7greenlinestimulus0.png,TMTstop-control_1_7redlinestimulus0.png,TMT_Control,7,153,1.0,74.63905334472656,74.63905334472656,0.0,,1.0,1.0,0.0,3,-0.08456940000178292,74.63905334472656,74.63905334472656,0.0,,2.0
4,['2'],2,TMTstop-control_1_7linestimulus1.png,TMTstop-control_1_7greenlinestimulus1.png,TMTstop-control_1_7redlinestimulus1.png,TMT_Control,7,154,1.0,74.72930908203125,74.72930908203125,0.0,,1.0,1.0,0.0,1,2,-0.03025580002577044,0.01290619999053888,74.72930908203125,74.72930908203125,0.0,,3.0
5,['3'],3,TMTstop-control_1_7linestimulus2.png,TMTstop-control_1_7greenlinestimulus2.png,TMTstop-control_1_7redlinestimulus2.png,TMT_Control,7,155,1.0,74.85598754882812,74.85598754882812,0.0,,1.0,1.0,0.0,3,0.018891000014264137,74.85598754882812,74.85598754882812,0.0,,4.0
6,['1'],1,TMTstop-control_1_7linestimulus3.png,TMTstop-control_1_7greenlinestimulus3.png,TMTstop-control_1_7redlinestimulus3.png,TMT_Control,7,156,1.0,74.96612548828125,74.96612548828125,0.0,,1.0,1.0,0.0,1,0.04540769997402094,74.96612548828125,74.96612548828125,0.0,,5.0
7,['3'],3,TMTstop-control_1_7linestimulus4.png,TMTstop-control_1_7greenlinestimulus4.png,TMTstop-control_1_7redlinestimulus4.png,TMT_Control,7,157,1.0,75.09735107421875,75.09735107421875,0.0,,1.0,1.0,0.0,2,3,-0.044563100003870204,0.11082869998062961,75.09735107421875,75.09735107421875,0.0,,6.0
8,['2'],2,TMTstop-control_1_7linestimulus4.png,TMTstop-control_1_7greenlinestimulus5.png,TMTstop-control_1_7redlinestimulus5.png,TMT_Control,7,158,1.0,75.31981658935547,75.31981658935547,0.0,,1.0,1.0,0.0,1,2,0.04347500001313165,0.08902549999766052,75.31981658935547,75.31981658935547,0.0,,7.0
9,['3'],3,TMTstop-control_1_7linestimulus6.png,TMTstop-control_1_7greenlinestimulus6.png,TMTstop-control_1_7redlinestimulus6.png,TMT_Control,7,159,1.0,75.51457977294922,75.51457977294922,0.0,,1.0,1.0,0.0,3,0.05519109999295324,75.51457977294922,75.51457977294922,0.0,,8.0
10,['2'],2,TMTstop-control_1_7linestimulus7.png,TMTstop-control_1_7greenlinestimulus7.png,TMTstop-control_1_7redlinestimulus7.png,TMT_Control,7,160,1.0,75.65303039550781,75.65303039550781,0.0,,1.0,1.0,0.0,1,2,0.12705799998366274,0.15488089999416843,75.65303039550781,75.65303039550781,0.0,,9.0
11,['1'],1,TMTstop-control_1_7linestimulus8.png,TMTstop-control_1_7greenlinestimulus8.png,TMTstop-control_1_7redlinestimulus8.png,TMT_Control,7,161,1.0,75.92361450195312,75.92361450195312,0.0,,1.0,1.0,0.0,3,1,0.06042679998790845,0.2110411999747157,75.92361450195312,75.92361450195312,0.0,,10.0
12,['2'],2,TMTstop-control_1_7linestimulus9.png,TMTstop-control_1_7greenlinestimulus9.png,TMTstop-control_1_7redlinestimulus9.png,TMT_Control,7,162,1.0,76.22232055664062,76.22232055664062,0.0,,1.0,1.0,0.0,2,-0.04715249998844229,76.22232055664062,76.22232055664062,0.0,,11.0
13,['3'],3,TMTstop-control_1_7linestimulus10.png,TMTstop-control_1_7greenlinestimulus10.png,TMTstop-control_1_7redlinestimulus10.png,TMT_Control,7,163,1.0,76.30519104003906,76.30519104003906,0.0,,1.0,1.0,0.0,3,0.01599549999809824,76.30519104003906,76.30519104003906,0.0,,12.0
14,['1'],1,TMTstop-control_1_7linestimulus11.png,TMTstop-control_1_7greenlinestimulus11.png,TMTstop-control_1_7redlinestimulus11.png,TMT_Control,7,164,1.0,76.41706848144531,76.41706848144531,0.0,,1.0,1.0,0.0,1,0.055297300015809014,76.41706848144531,76.41706848144531,0.0,,13.0
15,['2'],2,TMTstop-control_1_7linestimulus12.png,TMTstop-control_1_7greenlinestimulus12.png,TMTstop-control_1_7redlinestimulus12.png,TMT_Control,7,165,1.0,76.58470153808594,76.58470153808594,0.0,,1.0,1.0,0.0,2,-0.07982729998184368,76.58470153808594,76.58470153808594,0.0,,14.0
16,['3'],3,TMTstop-control_1_7linestimulus13.png,TMTstop-control_1_7greenlinestimulus13.png,TMTstop-control_1_7redlinestimulus13.png,TMT_Control,7,166,1.0,76.67381286621094,76.67381286621094,0.0,,1.0,1.0,0.0,3,0.000671899993903935,76.67381286621094,76.67381286621094,0.0,,15.0
17,['1'],1,TMTstop-control_1_7linestimulus14.png,TMTstop-control_1_7greenlinestimulus14.png,TMTstop-control_1_7redlinestimulus14.png,TMT_Control,7,167,1.0,76.7733154296875,76.7733154296875,0.0,,1.0,1.0,0.0,1,0.055593299999600276,76.7733154296875,76.7733154296875,0.0,,16.0
18,['2'],2,TMTstop-control_1_7linestimulus15.png,TMTstop-control_1_7greenlinestimulus15.png,TMTstop-control_1_7redlinestimulus15.png,TMT_Control,7,168,1.0,76.92359161376953,76.92359161376953,0.0,,1.0,1.0,0.0,2,-0.03835829999297857,76.92359161376953,76.92359161376953,0.0,,17.0
19,['3'],3,TMTstop-control_1_7linestimulus16.png,TMTstop-control_1_7greenlinestimulus16.png,TMTstop-control_1_7redlinestimulus16.png,TMT_Control,7,169,1.0,77.00664520263672,77.00664520263672,0.0,,1.0,1.0,0.0,3,0.02977720001945272,77.00664520263672,77.00664520263672,0.0,,18.0
20,['2'],2,TMTstop-control_1_7linestimulus17.png,TMTstop-control_1_7greenlinestimulus17.png,TMTstop-control_1_7redlinestimulus17.png,TMT_Control,7,170,1.0,77.13200378417969,77.13200378417969,0.0,,1.0,1.0,0.0,1,2,0.0451251000049524,0.09781619999557734,77.13200378417969,77.13200378417969,0.0,,19.0
21,['3'],3,TMTstop-control_1_7linestimulus18.png,TMTstop-control_1_7greenlinestimulus18.png,TMTstop-control_1_7redlinestimulus18.png,TMT_Control,7,171,1.0,77.31937408447266,77.31937408447266,0.0,,1.0,1.0,0.0,3,0.04069510000408627,77.31937408447266,77.31937408447266,0.0,,20.0
22,['2'],2,TMTstop-control_1_7linestimulus19.png,TMTstop-control_1_7greenlinestimulus19.png,TMTstop-control_1_7redlinestimulus19.png,TMT_Control,7,172,1.0,77.44430541992188,77.44430541992188,0.0,,1.0,1.0,0.0,1,2,0.0674851999792736,0.10514969998621382,77.44430541992188,77.44430541992188,0.0,,21.0
23,['3'],3,TMTstop-control_1_7linestimulus20.png,TMTstop-control_1_7greenlinestimulus20.png,TMTstop-control_1_7redlinestimulus20.png,TMT_Control,7,173,1.0,77.65264892578125,77.65264892578125,0.0,,1.0,1.0,0.0,3,0.03746250001131557,77.65264892578125,77.65264892578125,0.0,,22.0
24,['2'],2,TMTstop-control_1_7linestimulus21.png,TMTstop-control_1_7greenlinestimulus21.png,TMTstop-control_1_7redlinestimulus21.png,TMT_Control,7,174,1.0,77.77825927734375,77.77825927734375,0.0,,1.0,1.0,0.0,1,2,0.07223399999202229,0.12379019998479635,77.77825927734375,77.77825927734375,0.0,,23.0
25,['3'],3,TMTstop-control_1_7linestimulus22.png,TMTstop-control_1_7greenlinestimulus22.png,TMTstop-control_1_7redlinestimulus22.png,TMT_Control,7,175,1.0,78.13264465332031,78.13264465332031,0.0,,1.0,1.0,0.0,3,-0.0710319000063464,78.13264465332031,78.13264465332031,0.0,,24.0
None,None,None,TMTstop-control_1_7linestimulus23.png,TMTstop-control_1_7greenlinestimulus23.png,TMTstop-control_1_7redlinestimulus23.png,TMT_Control,7,Feedback_last,1.0,78.2087631225586,78.2087631225586,0.0,,0.0,0.0,0.0,1,2,3,-0.0010221999837085605,0.04529999999795109,0.18150440001045354,78.2087631225586,78.2087631225586,0.0,,25.0

extraInfo
participant,
session,001
date,2022_Apr_29_1051
expName,TMT_fmri
psychopyVersion,2021.2.3
frameRate,140.0330758361401
﻿NumberLetter,corrAns,Correct,StimFile,Correct_StimFile,False_StimFile,Version,Block,TrialNumber_session,n,Stim.started_mean,Stim.started_raw,Stim.started_std,Stim.stopped_raw,key_resp_2.corr_mean,key_resp_2.corr_raw,key_resp_2.corr_std,key_resp_2.keys_raw,key_resp_2.rt_raw,key_resp_2.started_mean,key_resp_2.started_raw,key_resp_2.started_std,key_resp_2.stopped_raw,order
1,['3'],3,TMTstop-control_1_8.png,TMTstop-control_1_8.png,TMTstop-control_1_8.png,TMT_Control,8,176,1.0,82.38308715820312,82.38308715820312,0.0,,1.0,1.0,0.0,1,2,3,0.37985460000345483,0.4798863000178244,0.5642947000160348,82.38308715820312,82.38308715820312,0.0,,0.0
2,['2'],2,TMTstop-control_1_8.png,TMTstop-control_1_8firstgreen.png,TMTstop-control_1_8firstred.png,TMT_Control,8,177,1.0,83.07904052734375,83.07904052734375,0.0,,1.0,1.0,0.0,1,2,0.023495000001275912,0.052239000011468306,83.07904052734375,83.07904052734375,0.0,,1.0
3,['3'],3,TMTstop-control_1_8linestimulus0.png,TMTstop-control_1_8greenlinestimulus0.png,TMTstop-control_1_8redlinestimulus0.png,TMT_Control,8,178,1.0,83.24967193603516,83.24967193603516,0.0,,1.0,1.0,0.0,3,-0.019543499976862222,83.24967193603516,83.24967193603516,0.0,,2.0
4,['2'],2,TMTstop-control_1_8linestimulus1.png,TMTstop-control_1_8greenlinestimulus1.png,TMTstop-control_1_8redlinestimulus1.png,TMT_Control,8,179,1.0,83.32628631591797,83.32628631591797,0.0,,1.0,1.0,0.0,1,2,0.045899399992777035,0.08127539997803979,83.32628631591797,83.32628631591797,0.0,,3.0
5,['1'],1,TMTstop-control_1_8linestimulus2.png,TMTstop-control_1_8greenlinestimulus2.png,TMTstop-control_1_8redlinestimulus2.png,TMT_Control,8,180,1.0,83.51396942138672,83.51396942138672,0.0,,1.0,1.0,0.0,3,1,-0.01649919999181293,0.11625270001241006,83.51396942138672,83.51396942138672,0.0,,4.0
6,['2'],2,TMTstop-control_1_8linestimulus3.png,TMTstop-control_1_8greenlinestimulus3.png,TMTstop-control_1_8redlinestimulus3.png,TMT_Control,8,181,1.0,83.743896484375,83.743896484375,0.0,,1.0,1.0,0.0,2,-0.07696070001111366,83.743896484375,83.743896484375,0.0,,5.0
7,['1'],1,TMTstop-control_1_8linestimulus4.png,TMTstop-control_1_8greenlinestimulus4.png,TMTstop-control_1_8redlinestimulus4.png,TMT_Control,8,182,1.0,83.83364868164062,83.83364868164062,0.0,,1.0,1.0,0.0,3,1,-0.07229670000378974,0.06841449998319149,83.83364868164062,83.83364868164062,0.0,,6.0
8,['2'],2,TMTstop-control_1_8linestimulus4.png,TMTstop-control_1_8greenlinestimulus5.png,TMTstop-control_1_8redlinestimulus5.png,TMT_Control,8,183,1.0,84.01460266113281,84.01460266113281,0.0,,1.0,1.0,0.0,2,-0.0784840999986045,84.01460266113281,84.01460266113281,0.0,,7.0
9,['3'],3,TMTstop-control_1_8linestimulus6.png,TMTstop-control_1_8greenlinestimulus6.png,TMTstop-control_1_8redlinestimulus6.png,TMT_Control,8,184,1.0,84.09695434570312,84.09695434570312,0.0,,1.0,1.0,0.0,3,-0.029744300001766533,84.09695434570312,84.09695434570312,0.0,,8.0
10,['2'],2,TMTstop-control_1_8linestimulus7.png,TMTstop-control_1_8greenlinestimulus7.png,TMTstop-control_1_8redlinestimulus7.png,TMT_Control,8,185,1.0,84.18011474609375,84.18011474609375,0.0,,1.0,1.0,0.0,1,2,0.06277889999910258,0.11154559999704361,84.18011474609375,84.18011474609375,0.0,,9.0
11,['1'],1,TMTstop-control_1_8linestimulus8.png,TMTstop-control_1_8greenlinestimulus8.png,TMTstop-control_1_8redlinestimulus8.png,TMT_Control,8,186,1.0,84.3817367553711,84.3817367553711,0.0,,1.0,1.0,0.0,3,1,0.047856699995463714,0.23053050000453368,84.3817367553711,84.3817367553711,0.0,,10.0
12,['3'],3,TMTstop-control_1_8linestimulus9.png,TMTstop-control_1_8greenlinestimulus9.png,TMTstop-control_1_8redlinestimulus9.png,TMT_Control,8,187,1.0,84.70812225341797,84.70812225341797,0.0,,1.0,1.0,0.0,2,3,-0.06558960000984371,0.06036659999517724,84.70812225341797,84.70812225341797,0.0,,11.0
13,['1'],1,TMTstop-control_1_8linestimulus10.png,TMTstop-control_1_8greenlinestimulus10.png,TMTstop-control_1_8redlinestimulus10.png,TMT_Control,8,188,1.0,84.90422058105469,84.90422058105469,0.0,,1.0,1.0,0.0,1,0.018981100001838058,84.90422058105469,84.90422058105469,0.0,,12.0
14,['3'],3,TMTstop-control_1_8linestimulus11.png,TMTstop-control_1_8greenlinestimulus11.png,TMTstop-control_1_8redlinestimulus11.png,TMT_Control,8,189,1.0,85.02080535888672,85.02080535888672,0.0,,1.0,1.0,0.0,2,3,-0.058548000000882894,0.0676153999811504,85.02080535888672,85.02080535888672,0.0,,13.0
15,['1'],1,TMTstop-control_1_8linestimulus12.png,TMTstop-control_1_8greenlinestimulus12.png,TMTstop-control_1_8redlinestimulus12.png,TMT_Control,8,190,1.0,85.20156860351562,85.20156860351562,0.0,,1.0,1.0,0.0,1,0.040561200003139675,85.20156860351562,85.20156860351562,0.0,,14.0
16,['3'],3,TMTstop-control_1_8linestimulus13.png,TMTstop-control_1_8greenlinestimulus13.png,TMTstop-control_1_8redlinestimulus13.png,TMT_Control,8,191,1.0,85.3195571899414,85.3195571899414,0.0,,1.0,1.0,0.0,2,3,-0.046752800000831485,0.08651170000666752,85.3195571899414,85.3195571899414,0.0,,15.0
17,['1'],1,TMTstop-control_1_8linestimulus14.png,TMTstop-control_1_8greenlinestimulus14.png,TMTstop-control_1_8redlinestimulus14.png,TMT_Control,8,192,1.0,85.49268341064453,85.49268341064453,0.0,,1.0,1.0,0.0,1,0.06370440000318922,85.49268341064453,85.49268341064453,0.0,,16.0
18,['2'],2,TMTstop-control_1_8linestimulus15.png,TMTstop-control_1_8greenlinestimulus15.png,TMTstop-control_1_8redlinestimulus15.png,TMT_Control,8,193,1.0,85.64596557617188,85.64596557617188,0.0,,1.0,1.0,0.0,2,-0.034861599997384474,85.64596557617188,85.64596557617188,0.0,,17.0
19,['1'],1,TMTstop-control_1_8linestimulus16.png,TMTstop-control_1_8greenlinestimulus16.png,TMTstop-control_1_8redlinestimulus16.png,TMT_Control,8,194,1.0,85.72891235351562,85.72891235351562,0.0,,1.0,1.0,0.0,3,1,0.018736700003501028,0.17054540000390261,85.72891235351562,85.72891235351562,0.0,,18.0
20,['3'],3,TMTstop-control_1_8linestimulus17.png,TMTstop-control_1_8greenlinestimulus17.png,TMTstop-control_1_8redlinestimulus17.png,TMT_Control,8,195,1.0,86.00871276855469,86.00871276855469,0.0,,1.0,1.0,0.0,2,3,-0.07298260001698509,0.07029319999855943,86.00871276855469,86.00871276855469,0.0,,19.0
21,['2'],2,TMTstop-control_1_8linestimulus18.png,TMTstop-control_1_8greenlinestimulus18.png,TMTstop-control_1_8redlinestimulus18.png,TMT_Control,8,196,1.0,86.19409942626953,86.19409942626953,0.0,,1.0,1.0,0.0,1,2,0.04150839999783784,0.08711069999844767,86.19409942626953,86.19409942626953,0.0,,20.0
22,['3'],3,TMTstop-control_1_8linestimulus19.png,TMTstop-control_1_8greenlinestimulus19.png,TMTstop-control_1_8redlinestimulus19.png,TMT_Control,8,197,1.0,86.36783599853516,86.36783599853516,0.0,,1.0,1.0,0.0,3,0.040085400018142536,86.36783599853516,86.36783599853516,0.0,,21.0
23,['1'],1,TMTstop-control_1_8linestimulus20.png,TMTstop-control_1_8greenlinestimulus20.png,TMTstop-control_1_8redlinestimulus20.png,TMT_Control,8,198,1.0,86.49620819091797,86.49620819091797,0.0,,1.0,1.0,0.0,1,0.07108709999010898,86.49620819091797,86.49620819091797,0.0,,22.0
24,['2'],2,TMTstop-control_1_8linestimulus21.png,TMTstop-control_1_8greenlinestimulus21.png,TMTstop-control_1_8redlinestimulus21.png,TMT_Control,8,199,1.0,86.6524887084961,86.6524887084961,0.0,,1.0,1.0,0.0,2,-0.05550940000102855,86.6524887084961,86.6524887084961,0.0,,23.0
25,['3'],3,TMTstop-control_1_8linestimulus22.png,TMTstop-control_1_8greenlinestimulus22.png,TMTstop-control_1_8redlinestimulus22.png,TMT_Control,8,200,1.0,86.73544311523438,86.73544311523438,0.0,,1.0,1.0,0.0,3,0.016576699999859557,86.73544311523438,86.73544311523438,0.0,,24.0
None,None,None,TMTstop-control_1_8linestimulus23.png,TMTstop-control_1_8greenlinestimulus23.png,TMTstop-control_1_8redlinestimulus23.png,TMT_Control,8,Feedback_last,1.0,86.84784698486328,86.84784698486328,0.0,,0.0,0.0,0.0,1,2,3,0.04503949999343604,0.10045060000265948,0.22494769998593256,86.84784698486328,86.84784698486328,0.0,,25.0

extraInfo
participant,
session,001
date,2022_Apr_29_1051
expName,TMT_fmri
psychopyVersion,2021.2.3
frameRate,140.0330758361401
