NumberLetter,corrAns,Correct,StimFile,Correct_StimFile,False_StimFile,Version,Paper,TrialNumber_Version,Round,Block,n,Stim.started_mean,Stim.started_raw,Stim.started_std,Stim.stopped_raw,key_resp_2.corr_mean,key_resp_2.corr_raw,key_resp_2.corr_std,key_resp_2.keys_raw,key_resp_2.rt_raw,key_resp_2.started_mean,key_resp_2.started_raw,key_resp_2.started_std,key_resp_2.stopped_raw,order
1,['3'],3,TMTstop-control_1_5.png,TMTstop-control_1_5.png,TMTstop-control_1_5.png,TMT_Control,5,101,2,4,1.0,129.8018341064453,129.8018341064453,0.0,,1.0,1.0,0.0,1,2,3,0.7636707999918144,0.8969839999917895,0.975920099997893,129.8018341064453,129.8018341064453,0.0,,0.0
2,['2'],2,TMTstop-control_1_5.png,TMTstop-control_1_5firstgreen.png,TMTstop-control_1_5firstred.png,TMT_Control,5,102,None,4,1.0,130.83241271972656,130.83241271972656,0.0,,1.0,1.0,0.0,1,2,0.18927379997330718,0.22121189997415058,130.83241271972656,130.83241271972656,0.0,,1.0
3,['1'],1,TMTstop-control_1_5linestimulus0.png,TMTstop-control_1_5greenlinestimulus0.png,TMTstop-control_1_5redlinestimulus0.png,TMT_Control,5,103,None,4,1.0,131.1407470703125,131.1407470703125,0.0,,1.0,1.0,0.0,3,1,0.09432950001792051,0.28544140001758933,131.1407470703125,131.1407470703125,0.0,,2.0
4,['3'],3,TMTstop-control_1_5linestimulus1.png,TMTstop-control_1_5greenlinestimulus1.png,TMTstop-control_1_5redlinestimulus1.png,TMT_Control,5,104,None,4,1.0,131.50338745117188,131.50338745117188,0.0,,1.0,1.0,0.0,2,3,-0.03252259999862872,0.095599599997513,131.50338745117188,131.50338745117188,0.0,,3.0
5,['1'],1,TMTstop-control_1_5linestimulus2.png,TMTstop-control_1_5greenlinestimulus2.png,TMTstop-control_1_5redlinestimulus2.png,TMT_Control,5,105,None,4,1.0,131.65367126464844,131.65367126464844,0.0,,1.0,1.0,0.0,1,0.10711489999084733,131.65367126464844,131.65367126464844,0.0,,4.0
6,['2'],2,TMTstop-control_1_5linestimulus3.png,TMTstop-control_1_5greenlinestimulus3.png,TMTstop-control_1_5redlinestimulus3.png,TMT_Control,5,106,None,4,1.0,131.8240966796875,131.8240966796875,0.0,,1.0,1.0,0.0,2,-0.014398500003153458,131.8240966796875,131.8240966796875,0.0,,5.0
7,['3'],3,TMTstop-control_1_5linestimulus4.png,TMTstop-control_1_5greenlinestimulus4.png,TMTstop-control_1_5redlinestimulus4.png,TMT_Control,5,107,None,4,1.0,131.88108825683594,131.88108825683594,0.0,,1.0,1.0,0.0,3,0.08232690001023002,131.88108825683594,131.88108825683594,0.0,,6.0
8,['2'],2,TMTstop-control_1_5linestimulus4.png,TMTstop-control_1_5greenlinestimulus5.png,TMTstop-control_1_5redlinestimulus5.png,TMT_Control,5,108,None,4,1.0,132.01675415039062,132.01675415039062,0.0,,1.0,1.0,0.0,1,2,0.06013349999557249,0.1416466999799013,132.01675415039062,132.01675415039062,0.0,,7.0
9,['1'],1,TMTstop-control_1_5linestimulus6.png,TMTstop-control_1_5greenlinestimulus6.png,TMTstop-control_1_5redlinestimulus6.png,TMT_Control,5,109,None,4,1.0,132.25665283203125,132.25665283203125,0.0,,1.0,1.0,0.0,3,1,0.016937199980020523,0.16405149997444823,132.25665283203125,132.25665283203125,0.0,,8.0
10,['2'],2,TMTstop-control_1_5linestimulus7.png,TMTstop-control_1_5greenlinestimulus7.png,TMTstop-control_1_5redlinestimulus7.png,TMT_Control,5,110,None,4,1.0,132.483642578125,132.483642578125,0.0,,1.0,1.0,0.0,2,0.07101869999314658,132.483642578125,132.483642578125,0.0,,9.0
11,['1'],1,TMTstop-control_1_5linestimulus8.png,TMTstop-control_1_5greenlinestimulus8.png,TMTstop-control_1_5redlinestimulus8.png,TMT_Control,5,111,None,4,1.0,132.62037658691406,132.62037658691406,0.0,,1.0,1.0,0.0,3,1,0.0026969999889843166,0.18469809999805875,132.62037658691406,132.62037658691406,0.0,,10.0
12,['3'],3,TMTstop-control_1_5linestimulus9.png,TMTstop-control_1_5greenlinestimulus9.png,TMTstop-control_1_5redlinestimulus9.png,TMT_Control,5,112,None,4,1.0,132.8601531982422,132.8601531982422,0.0,,1.0,1.0,0.0,2,3,0.005318299983628094,0.10392389999469742,132.8601531982422,132.8601531982422,0.0,,11.0
13,['2'],2,TMTstop-control_1_5linestimulus10.png,TMTstop-control_1_5greenlinestimulus10.png,TMTstop-control_1_5redlinestimulus10.png,TMT_Control,5,113,None,4,1.0,133.0338897705078,133.0338897705078,0.0,,1.0,1.0,0.0,1,2,0.09665360001963563,0.17003969999495894,133.0338897705078,133.0338897705078,0.0,,12.0
14,['3'],3,TMTstop-control_1_5linestimulus11.png,TMTstop-control_1_5greenlinestimulus11.png,TMTstop-control_1_5redlinestimulus11.png,TMT_Control,5,114,None,4,1.0,133.2900390625,133.2900390625,0.0,,1.0,1.0,0.0,3,0.012206700019305572,133.2900390625,133.2900390625,0.0,,13.0
15,['1'],1,TMTstop-control_1_5linestimulus12.png,TMTstop-control_1_5greenlinestimulus12.png,TMTstop-control_1_5redlinestimulus12.png,TMT_Control,5,115,None,4,1.0,133.36216735839844,133.36216735839844,0.0,,1.0,1.0,0.0,1,0.09837730001891032,133.36216735839844,133.36216735839844,0.0,,14.0
16,['2'],2,TMTstop-control_1_5linestimulus13.png,TMTstop-control_1_5greenlinestimulus13.png,TMTstop-control_1_5redlinestimulus13.png,TMT_Control,5,116,None,4,1.0,133.5154266357422,133.5154266357422,0.0,,1.0,1.0,0.0,2,0.01641460001701489,133.5154266357422,133.5154266357422,0.0,,15.0
17,['3'],3,TMTstop-control_1_5linestimulus14.png,TMTstop-control_1_5greenlinestimulus14.png,TMTstop-control_1_5redlinestimulus14.png,TMT_Control,5,117,None,4,1.0,133.598876953125,133.598876953125,0.0,,1.0,1.0,0.0,3,0.036219900008291006,133.598876953125,133.598876953125,0.0,,16.0
18,['1'],1,TMTstop-control_1_5linestimulus15.png,TMTstop-control_1_5greenlinestimulus15.png,TMTstop-control_1_5redlinestimulus15.png,TMT_Control,5,118,None,4,1.0,133.68907165527344,133.68907165527344,0.0,,1.0,1.0,0.0,1,0.11280030000489205,133.68907165527344,133.68907165527344,0.0,,17.0
19,['2'],2,TMTstop-control_1_5linestimulus16.png,TMTstop-control_1_5greenlinestimulus16.png,TMTstop-control_1_5redlinestimulus16.png,TMT_Control,5,119,None,4,1.0,133.85589599609375,133.85589599609375,0.0,,1.0,1.0,0.0,2,0.0006811999774072319,133.85589599609375,133.85589599609375,0.0,,18.0
20,['1'],1,TMTstop-control_1_5linestimulus17.png,TMTstop-control_1_5greenlinestimulus17.png,TMTstop-control_1_5redlinestimulus17.png,TMT_Control,5,120,None,4,1.0,133.90576171875,133.90576171875,0.0,,1.0,1.0,0.0,3,1,0.05627989998902194,0.2110785999975633,133.90576171875,133.90576171875,0.0,,19.0
21,['2'],2,TMTstop-control_1_5linestimulus18.png,TMTstop-control_1_5greenlinestimulus18.png,TMTstop-control_1_5redlinestimulus18.png,TMT_Control,5,121,None,4,1.0,134.179443359375,134.179443359375,0.0,,1.0,1.0,0.0,2,-0.028542000014567748,134.179443359375,134.179443359375,0.0,,20.0
22,['1'],1,TMTstop-control_1_5linestimulus19.png,TMTstop-control_1_5greenlinestimulus19.png,TMTstop-control_1_5redlinestimulus19.png,TMT_Control,5,122,None,4,1.0,134.22952270507812,134.22952270507812,0.0,,1.0,1.0,0.0,3,1,0.03610329999355599,0.20824720000382513,134.22952270507812,134.22952270507812,0.0,,21.0
23,['3'],3,TMTstop-control_1_5linestimulus20.png,TMTstop-control_1_5greenlinestimulus20.png,TMTstop-control_1_5redlinestimulus20.png,TMT_Control,5,123,None,4,1.0,134.53372192382812,134.53372192382812,0.0,,1.0,1.0,0.0,2,3,-0.040850199991837144,0.083259300008649,134.53372192382812,134.53372192382812,0.0,,22.0
24,['1'],1,TMTstop-control_1_5linestimulus21.png,TMTstop-control_1_5greenlinestimulus21.png,TMTstop-control_1_5redlinestimulus21.png,TMT_Control,5,124,None,4,1.0,134.68370056152344,134.68370056152344,0.0,,1.0,1.0,0.0,1,0.07977669997490011,134.68370056152344,134.68370056152344,0.0,,23.0
25,['3'],3,TMTstop-control_1_5linestimulus22.png,TMTstop-control_1_5greenlinestimulus22.png,TMTstop-control_1_5redlinestimulus22.png,TMT_Control,5,125,None,4,1.0,134.8202667236328,134.8202667236328,0.0,,1.0,1.0,0.0,2,3,-0.006683999992674217,0.19708179999724962,134.8202667236328,134.8202667236328,0.0,,24.0
None,None,None,TMTstop-control_1_5linestimulus23.png,TMTstop-control_1_5greenlinestimulus23.png,TMTstop-control_1_5redlinestimulus23.png,TMT_Control,5,Feedback_last,None,4,1.0,135.07066345214844,135.07066345214844,0.0,,1.0,1.0,0.0,,'--',135.07066345214844,135.07066345214844,0.0,,25.0

extraInfo
participant,
session,001
date,2022_May_11_1110
expName,TMT_fmri
psychopyVersion,2021.2.3
frameRate,59.94176058854945
﻿NumberLetter,corrAns,Correct,StimFile,Correct_StimFile,False_StimFile,Version,Paper,TrialNumber_Version,Round,Block,n,Stim.started_mean,Stim.started_raw,Stim.started_std,Stim.stopped_raw,key_resp_2.corr_mean,key_resp_2.corr_raw,key_resp_2.corr_std,key_resp_2.keys_raw,key_resp_2.rt_raw,key_resp_2.started_mean,key_resp_2.started_raw,key_resp_2.started_std,key_resp_2.stopped_raw,order
1,['3'],3,TMTstop-control_1_6.png,TMTstop-control_1_6.png,TMTstop-control_1_6.png,TMT_Control,6,126,None,4,1.0,139.1684112548828,139.1684112548828,0.0,,1.0,1.0,0.0,1,2,3,0.6153537999780383,0.7035332999948878,0.7874999999767169,139.1684112548828,139.1684112548828,0.0,,0.0
2,['2'],2,TMTstop-control_1_6.png,TMTstop-control_1_6firstgreen.png,TMTstop-control_1_6firstred.png,TMT_Control,6,127,None,4,1.0,140.01681518554688,140.01681518554688,0.0,,1.0,1.0,0.0,1,2,0.0937221999920439,0.16609079999034293,140.01681518554688,140.01681518554688,0.0,,1.0
3,['1'],1,TMTstop-control_1_6linestimulus0.png,TMTstop-control_1_6greenlinestimulus0.png,TMTstop-control_1_6redlinestimulus0.png,TMT_Control,6,128,None,4,1.0,140.28286743164062,140.28286743164062,0.0,,1.0,1.0,0.0,3,1,-0.008248800004366785,0.15741590000106953,140.28286743164062,140.28286743164062,0.0,,2.0
4,['2'],2,TMTstop-control_1_6linestimulus1.png,TMTstop-control_1_6greenlinestimulus1.png,TMTstop-control_1_6redlinestimulus1.png,TMT_Control,6,129,None,4,1.0,140.53353881835938,140.53353881835938,0.0,,1.0,1.0,0.0,2,0.022799900005338714,140.53353881835938,140.53353881835938,0.0,,3.0
5,['3'],3,TMTstop-control_1_6linestimulus2.png,TMTstop-control_1_6greenlinestimulus2.png,TMTstop-control_1_6redlinestimulus2.png,TMT_Control,6,130,None,4,1.0,140.62106323242188,140.62106323242188,0.0,,1.0,1.0,0.0,3,0.08502729999599978,140.62106323242188,140.62106323242188,0.0,,4.0
6,['2'],2,TMTstop-control_1_6linestimulus3.png,TMTstop-control_1_6greenlinestimulus3.png,TMTstop-control_1_6redlinestimulus3.png,TMT_Control,6,131,None,4,1.0,140.77117919921875,140.77117919921875,0.0,,1.0,1.0,0.0,1,2,0.044272800005273893,0.14265339999110438,140.77117919921875,140.77117919921875,0.0,,5.0
7,['1'],1,TMTstop-control_1_6linestimulus4.png,TMTstop-control_1_6greenlinestimulus4.png,TMTstop-control_1_6redlinestimulus4.png,TMT_Control,6,132,None,4,1.0,141.0078582763672,141.0078582763672,0.0,,1.0,1.0,0.0,3,1,-0.006957800011150539,0.1355160999810323,141.0078582763672,141.0078582763672,0.0,,6.0
8,['3'],3,TMTstop-control_1_6linestimulus4.png,TMTstop-control_1_6greenlinestimulus5.png,TMTstop-control_1_6redlinestimulus5.png,TMT_Control,6,133,None,4,1.0,141.208251953125,141.208251953125,0.0,,1.0,1.0,0.0,2,3,0.02072749999933876,0.13339150001411326,141.208251953125,141.208251953125,0.0,,7.0
9,['2'],2,TMTstop-control_1_6linestimulus6.png,TMTstop-control_1_6greenlinestimulus6.png,TMTstop-control_1_6redlinestimulus6.png,TMT_Control,6,134,None,4,1.0,141.4082489013672,141.4082489013672,0.0,,1.0,1.0,0.0,1,2,0.05876159999752417,0.16658119999920018,141.4082489013672,141.4082489013672,0.0,,8.0
10,['1'],1,TMTstop-control_1_6linestimulus7.png,TMTstop-control_1_6greenlinestimulus7.png,TMTstop-control_1_6redlinestimulus7.png,TMT_Control,6,135,None,4,1.0,141.6385955810547,141.6385955810547,0.0,,1.0,1.0,0.0,3,1,0.043598299991572276,0.19758119998732582,141.6385955810547,141.6385955810547,0.0,,9.0
11,['2'],2,TMTstop-control_1_6linestimulus8.png,TMTstop-control_1_6greenlinestimulus8.png,TMTstop-control_1_6redlinestimulus8.png,TMT_Control,6,136,None,4,1.0,141.8889617919922,141.8889617919922,0.0,,1.0,1.0,0.0,2,0.01429320001625456,141.8889617919922,141.8889617919922,0.0,,10.0
12,['3'],3,TMTstop-control_1_6linestimulus9.png,TMTstop-control_1_6greenlinestimulus9.png,TMTstop-control_1_6redlinestimulus9.png,TMT_Control,6,137,None,4,1.0,141.96202087402344,141.96202087402344,0.0,,1.0,1.0,0.0,3,0.05031629998120479,141.96202087402344,141.96202087402344,0.0,,11.0
13,['1'],1,TMTstop-control_1_6linestimulus10.png,TMTstop-control_1_6greenlinestimulus10.png,TMTstop-control_1_6redlinestimulus10.png,TMT_Control,6,138,None,4,1.0,142.0620880126953,142.0620880126953,0.0,,1.0,1.0,0.0,1,0.10257970000384375,142.0620880126953,142.0620880126953,0.0,,12.0
14,['3'],3,TMTstop-control_1_6linestimulus11.png,TMTstop-control_1_6greenlinestimulus11.png,TMTstop-control_1_6redlinestimulus11.png,TMT_Control,6,139,None,4,1.0,142.2156219482422,142.2156219482422,0.0,,1.0,1.0,0.0,2,3,0.0356741999858059,0.1134631999884732,142.2156219482422,142.2156219482422,0.0,,13.0
15,['2'],2,TMTstop-control_1_6linestimulus12.png,TMTstop-control_1_6greenlinestimulus12.png,TMTstop-control_1_6redlinestimulus12.png,TMT_Control,6,140,None,4,1.0,142.4130401611328,142.4130401611328,0.0,,1.0,1.0,0.0,1,2,0.05501800001366064,0.1529963999928441,142.4130401611328,142.4130401611328,0.0,,14.0
16,['3'],3,TMTstop-control_1_6linestimulus13.png,TMTstop-control_1_6greenlinestimulus13.png,TMTstop-control_1_6redlinestimulus13.png,TMT_Control,6,141,None,4,1.0,142.6292724609375,142.6292724609375,0.0,,1.0,1.0,0.0,3,0.031026900018332526,142.6292724609375,142.6292724609375,0.0,,15.0
17,['1'],1,TMTstop-control_1_6linestimulus14.png,TMTstop-control_1_6greenlinestimulus14.png,TMTstop-control_1_6redlinestimulus14.png,TMT_Control,6,142,None,4,1.0,142.7294158935547,142.7294158935547,0.0,,1.0,1.0,0.0,1,0.08338180001010187,142.7294158935547,142.7294158935547,0.0,,16.0
18,['2'],2,TMTstop-control_1_6linestimulus15.png,TMTstop-control_1_6greenlinestimulus15.png,TMTstop-control_1_6redlinestimulus15.png,TMT_Control,6,143,None,4,1.0,142.86322021484375,142.86322021484375,0.0,,1.0,1.0,0.0,2,0.06543190000229515,142.86322021484375,142.86322021484375,0.0,,17.0
19,['3'],3,TMTstop-control_1_6linestimulus16.png,TMTstop-control_1_6greenlinestimulus16.png,TMTstop-control_1_6redlinestimulus16.png,TMT_Control,6,144,None,4,1.0,142.9803009033203,142.9803009033203,0.0,,1.0,1.0,0.0,3,0.028452099999412894,142.9803009033203,142.9803009033203,0.0,,18.0
20,['2'],2,TMTstop-control_1_6linestimulus17.png,TMTstop-control_1_6greenlinestimulus17.png,TMTstop-control_1_6redlinestimulus17.png,TMT_Control,6,145,None,4,1.0,143.06320190429688,143.06320190429688,0.0,,1.0,1.0,0.0,1,2,0.1079572000016924,0.19427819998236373,143.06320190429688,143.06320190429688,0.0,,19.0
21,['1'],1,TMTstop-control_1_6linestimulus18.png,TMTstop-control_1_6greenlinestimulus18.png,TMTstop-control_1_6redlinestimulus18.png,TMT_Control,6,146,None,4,1.0,143.32083129882812,143.32083129882812,0.0,,1.0,1.0,0.0,3,1,0.011513400007970631,0.17411160000483505,143.32083129882812,143.32083129882812,0.0,,20.0
22,['2'],2,TMTstop-control_1_6linestimulus19.png,TMTstop-control_1_6greenlinestimulus19.png,TMTstop-control_1_6redlinestimulus19.png,TMT_Control,6,147,None,4,1.0,143.56028747558594,143.56028747558594,0.0,,1.0,1.0,0.0,2,0.009724000003188848,143.56028747558594,143.56028747558594,0.0,,21.0
23,['1'],1,TMTstop-control_1_6linestimulus20.png,TMTstop-control_1_6greenlinestimulus20.png,TMTstop-control_1_6redlinestimulus20.png,TMT_Control,6,148,None,4,1.0,143.63409423828125,143.63409423828125,0.0,,1.0,1.0,0.0,3,1,0.05094340001232922,0.20557710001594387,143.63409423828125,143.63409423828125,0.0,,22.0
24,['2'],2,TMTstop-control_1_6linestimulus21.png,TMTstop-control_1_6greenlinestimulus21.png,TMTstop-control_1_6redlinestimulus21.png,TMT_Control,6,149,None,4,1.0,143.91036987304688,143.91036987304688,0.0,,1.0,1.0,0.0,2,0.015260099986335263,143.91036987304688,143.91036987304688,0.0,,23.0
25,['3'],3,TMTstop-control_1_6linestimulus22.png,TMTstop-control_1_6greenlinestimulus22.png,TMTstop-control_1_6redlinestimulus22.png,TMT_Control,6,150,None,4,1.0,143.98355102539062,143.98355102539062,0.0,,1.0,1.0,0.0,3,0.045724499999778345,143.98355102539062,143.98355102539062,0.0,,24.0
None,None,None,TMTstop-control_1_6linestimulus23.png,TMTstop-control_1_6greenlinestimulus23.png,TMTstop-control_1_6redlinestimulus23.png,TMT_Control,6,Feedback_last,None,4,1.0,144.0839385986328,144.0839385986328,0.0,,0.0,0.0,0.0,1,0.11862240001210012,144.0839385986328,144.0839385986328,0.0,,25.0

extraInfo
participant,
session,001
date,2022_May_11_1110
expName,TMT_fmri
psychopyVersion,2021.2.3
frameRate,59.94176058854945
﻿NumberLetter,corrAns,Correct,StimFile,Correct_StimFile,False_StimFile,Version,Paper,TrialNumber_Version,Round,Block,n,Stim.started_mean,Stim.started_raw,Stim.started_std,Stim.stopped_raw,key_resp_2.corr_mean,key_resp_2.corr_raw,key_resp_2.corr_std,key_resp_2.keys_raw,key_resp_2.rt_raw,key_resp_2.started_mean,key_resp_2.started_raw,key_resp_2.started_std,key_resp_2.stopped_raw,order
1,['1'],1,TMTstop-control_1_7.png,TMTstop-control_1_7.png,TMTstop-control_1_7.png,TMT_Control,7,151,None,4,1.0,148.2324981689453,148.2324981689453,0.0,,1.0,1.0,0.0,1,0.408375300001353,148.2324981689453,148.2324981689453,0.0,,0.0
2,['2'],2,TMTstop-control_1_7.png,TMTstop-control_1_7firstgreen.png,TMTstop-control_1_7firstred.png,TMT_Control,7,152,None,4,1.0,148.7070770263672,148.7070770263672,0.0,,1.0,1.0,0.0,2,0.045171900012064725,148.7070770263672,148.7070770263672,0.0,,1.0
3,['3'],3,TMTstop-control_1_7linestimulus0.png,TMTstop-control_1_7greenlinestimulus0.png,TMTstop-control_1_7redlinestimulus0.png,TMT_Control,7,153,None,4,1.0,148.80751037597656,148.80751037597656,0.0,,1.0,1.0,0.0,3,0.02754009998170659,148.80751037597656,148.80751037597656,0.0,,2.0
4,['2'],2,TMTstop-control_1_7linestimulus1.png,TMTstop-control_1_7greenlinestimulus1.png,TMTstop-control_1_7redlinestimulus1.png,TMT_Control,7,154,None,4,1.0,148.89097595214844,148.89097595214844,0.0,,1.0,1.0,0.0,1,2,0.10422179999295622,0.14391069998964667,148.89097595214844,148.89097595214844,0.0,,3.0
5,['3'],3,TMTstop-control_1_7linestimulus2.png,TMTstop-control_1_7greenlinestimulus2.png,TMTstop-control_1_7redlinestimulus2.png,TMT_Control,7,155,None,4,1.0,149.11587524414062,149.11587524414062,0.0,,1.0,1.0,0.0,3,0.034088099986547604,149.11587524414062,149.11587524414062,0.0,,4.0
6,['1'],1,TMTstop-control_1_7linestimulus3.png,TMTstop-control_1_7greenlinestimulus3.png,TMTstop-control_1_7redlinestimulus3.png,TMT_Control,7,156,None,4,1.0,149.2160186767578,149.2160186767578,0.0,,1.0,1.0,0.0,1,0.05717769998591393,149.2160186767578,149.2160186767578,0.0,,5.0
7,['3'],3,TMTstop-control_1_7linestimulus4.png,TMTstop-control_1_7greenlinestimulus4.png,TMTstop-control_1_7redlinestimulus4.png,TMT_Control,7,157,None,4,1.0,149.33238220214844,149.33238220214844,0.0,,1.0,1.0,0.0,2,3,0.03090009998413734,0.09802469998248853,149.33238220214844,149.33238220214844,0.0,,6.0
8,['2'],2,TMTstop-control_1_7linestimulus4.png,TMTstop-control_1_7greenlinestimulus5.png,TMTstop-control_1_7redlinestimulus5.png,TMT_Control,7,158,None,4,1.0,149.5215301513672,149.5215301513672,0.0,,1.0,1.0,0.0,1,2,0.060211399977561086,0.13348819999373518,149.5215301513672,149.5215301513672,0.0,,7.0
9,['3'],3,TMTstop-control_1_7linestimulus6.png,TMTstop-control_1_7greenlinestimulus6.png,TMTstop-control_1_7redlinestimulus6.png,TMT_Control,7,159,None,4,1.0,149.75070190429688,149.75070190429688,0.0,,1.0,1.0,0.0,3,-0.01682079999591224,149.75070190429688,149.75070190429688,0.0,,8.0
10,['2'],2,TMTstop-control_1_7linestimulus7.png,TMTstop-control_1_7greenlinestimulus7.png,TMTstop-control_1_7redlinestimulus7.png,TMT_Control,7,160,None,4,1.0,149.80088806152344,149.80088806152344,0.0,,1.0,1.0,0.0,1,2,0.08843229999183677,0.16642629998386838,149.80088806152344,149.80088806152344,0.0,,9.0
11,['1'],1,TMTstop-control_1_7linestimulus8.png,TMTstop-control_1_7greenlinestimulus8.png,TMTstop-control_1_7redlinestimulus8.png,TMT_Control,7,161,None,4,1.0,150.05819702148438,150.05819702148438,0.0,,1.0,1.0,0.0,3,1,-0.022630999999819323,0.14181650002137758,150.05819702148438,150.05819702148438,0.0,,10.0
12,['2'],2,TMTstop-control_1_7linestimulus9.png,TMTstop-control_1_7greenlinestimulus9.png,TMTstop-control_1_7redlinestimulus9.png,TMT_Control,7,162,None,4,1.0,150.25840759277344,150.25840759277344,0.0,,1.0,1.0,0.0,3,2,0.10662649999721907,0.1145161000022199,150.25840759277344,150.25840759277344,0.0,,11.0
13,['3'],3,TMTstop-control_1_7linestimulus10.png,TMTstop-control_1_7greenlinestimulus10.png,TMTstop-control_1_7redlinestimulus10.png,TMT_Control,7,163,None,4,1.0,150.42526245117188,150.42526245117188,0.0,,1.0,1.0,0.0,1,2,3,0.15254140002070926,0.22505050001200289,0.40409640001598746,150.42526245117188,150.42526245117188,0.0,,12.0
14,['1'],1,TMTstop-control_1_7linestimulus11.png,TMTstop-control_1_7greenlinestimulus11.png,TMTstop-control_1_7redlinestimulus11.png,TMT_Control,7,164,None,4,1.0,150.9129180908203,150.9129180908203,0.0,,1.0,1.0,0.0,1,0.004082100000232458,150.9129180908203,150.9129180908203,0.0,,13.0
15,['2'],2,TMTstop-control_1_7linestimulus12.png,TMTstop-control_1_7greenlinestimulus12.png,TMTstop-control_1_7redlinestimulus12.png,TMT_Control,7,165,None,4,1.0,150.9866943359375,150.9866943359375,0.0,,1.0,1.0,0.0,2,0.03634849999798462,150.9866943359375,150.9866943359375,0.0,,14.0
16,['3'],3,TMTstop-control_1_7linestimulus13.png,TMTstop-control_1_7greenlinestimulus13.png,TMTstop-control_1_7redlinestimulus13.png,TMT_Control,7,166,None,4,1.0,151.08688354492188,151.08688354492188,0.0,,1.0,1.0,0.0,3,0.009575400006724522,151.08688354492188,151.08688354492188,0.0,,15.0
17,['1'],1,TMTstop-control_1_7linestimulus14.png,TMTstop-control_1_7greenlinestimulus14.png,TMTstop-control_1_7redlinestimulus14.png,TMT_Control,7,167,None,4,1.0,151.1607666015625,151.1607666015625,0.0,,1.0,1.0,0.0,1,0.09057189998566173,151.1607666015625,151.1607666015625,0.0,,16.0
18,['2'],2,TMTstop-control_1_7linestimulus15.png,TMTstop-control_1_7greenlinestimulus15.png,TMTstop-control_1_7redlinestimulus15.png,TMT_Control,7,168,None,4,1.0,151.3112030029297,151.3112030029297,0.0,,1.0,1.0,0.0,2,0.009296800009906292,151.3112030029297,151.3112030029297,0.0,,17.0
19,['3'],3,TMTstop-control_1_7linestimulus16.png,TMTstop-control_1_7greenlinestimulus16.png,TMTstop-control_1_7redlinestimulus16.png,TMT_Control,7,169,None,4,1.0,151.39508056640625,151.39508056640625,0.0,,1.0,1.0,0.0,3,0.01665629999479279,151.39508056640625,151.39508056640625,0.0,,18.0
20,['2'],2,TMTstop-control_1_7linestimulus17.png,TMTstop-control_1_7greenlinestimulus17.png,TMTstop-control_1_7redlinestimulus17.png,TMT_Control,7,170,None,4,1.0,151.48463439941406,151.48463439941406,0.0,,1.0,1.0,0.0,1,2,0.1341514000087045,0.1550823000143282,151.48463439941406,151.48463439941406,0.0,,19.0
21,['3'],3,TMTstop-control_1_7linestimulus18.png,TMTstop-control_1_7greenlinestimulus18.png,TMTstop-control_1_7redlinestimulus18.png,TMT_Control,7,171,None,4,1.0,151.70770263671875,151.70770263671875,0.0,,1.0,1.0,0.0,3,0.04955389999668114,151.70770263671875,151.70770263671875,0.0,,20.0
22,['2'],2,TMTstop-control_1_7linestimulus19.png,TMTstop-control_1_7greenlinestimulus19.png,TMTstop-control_1_7redlinestimulus19.png,TMT_Control,7,172,None,4,1.0,151.8079833984375,151.8079833984375,0.0,,1.0,1.0,0.0,1,2,0.094078800000716,0.16219790000468493,151.8079833984375,151.8079833984375,0.0,,21.0
23,['3'],3,TMTstop-control_1_7linestimulus20.png,TMTstop-control_1_7greenlinestimulus20.png,TMTstop-control_1_7redlinestimulus20.png,TMT_Control,7,173,None,4,1.0,152.07081604003906,152.07081604003906,0.0,,1.0,1.0,0.0,3,0.010242799995467067,152.07081604003906,152.07081604003906,0.0,,22.0
24,['2'],2,TMTstop-control_1_7linestimulus21.png,TMTstop-control_1_7greenlinestimulus21.png,TMTstop-control_1_7redlinestimulus21.png,TMT_Control,7,174,None,4,1.0,152.162109375,152.162109375,0.0,,1.0,1.0,0.0,1,2,0.07615760000771843,0.1459720999991987,152.162109375,152.162109375,0.0,,23.0
25,['3'],3,TMTstop-control_1_7linestimulus22.png,TMTstop-control_1_7greenlinestimulus22.png,TMTstop-control_1_7redlinestimulus22.png,TMT_Control,7,175,None,4,1.0,152.4024658203125,152.4024658203125,0.0,,1.0,1.0,0.0,3,0.02843929998925887,152.4024658203125,152.4024658203125,0.0,,24.0
None,None,None,TMTstop-control_1_7linestimulus23.png,TMTstop-control_1_7greenlinestimulus23.png,TMTstop-control_1_7redlinestimulus23.png,TMT_Control,7,Feedback_last,None,4,1.0,152.50262451171875,152.50262451171875,0.0,,0.0,0.0,0.0,1,2,3,0.07279080001171678,0.1472111000039149,0.26217870000982657,152.50262451171875,152.50262451171875,0.0,,25.0

extraInfo
participant,
session,001
date,2022_May_11_1110
expName,TMT_fmri
psychopyVersion,2021.2.3
frameRate,59.94176058854945
﻿NumberLetter,corrAns,Correct,StimFile,Correct_StimFile,False_StimFile,Version,Paper,TrialNumber_Version,Round,Block,n,Stim.started_mean,Stim.started_raw,Stim.started_std,Stim.stopped_raw,key_resp_2.corr_mean,key_resp_2.corr_raw,key_resp_2.corr_std,key_resp_2.keys_raw,key_resp_2.rt_raw,key_resp_2.started_mean,key_resp_2.started_raw,key_resp_2.started_std,key_resp_2.stopped_raw,order
1,['3'],3,TMTstop-control_1_8.png,TMTstop-control_1_8.png,TMTstop-control_1_8.png,TMT_Control,8,176,None,4,1.0,156.62559509277344,156.62559509277344,0.0,,1.0,1.0,0.0,1,2,3,0.3794016999891028,0.48639369997545145,0.5781399999978021,156.62559509277344,156.62559509277344,0.0,,0.0
2,['2'],2,TMTstop-control_1_8.png,TMTstop-control_1_8firstgreen.png,TMTstop-control_1_8firstred.png,TMT_Control,8,177,None,4,1.0,157.27365112304688,157.27365112304688,0.0,,1.0,1.0,0.0,1,2,0.11822390000452287,0.13698280000244267,157.27365112304688,157.27365112304688,0.0,,1.0
3,['3'],3,TMTstop-control_1_8linestimulus0.png,TMTstop-control_1_8greenlinestimulus0.png,TMTstop-control_1_8redlinestimulus0.png,TMT_Control,8,178,None,4,1.0,157.4903564453125,157.4903564453125,0.0,,1.0,1.0,0.0,3,0.049410700012231246,157.4903564453125,157.4903564453125,0.0,,2.0
4,['2'],2,TMTstop-control_1_8linestimulus1.png,TMTstop-control_1_8greenlinestimulus1.png,TMTstop-control_1_8redlinestimulus1.png,TMT_Control,8,179,None,4,1.0,157.59043884277344,157.59043884277344,0.0,,1.0,1.0,0.0,1,2,0.12736370001221076,0.1947791000129655,157.59043884277344,157.59043884277344,0.0,,3.0
5,['1'],1,TMTstop-control_1_8linestimulus2.png,TMTstop-control_1_8greenlinestimulus2.png,TMTstop-control_1_8redlinestimulus2.png,TMT_Control,8,180,None,4,1.0,157.88670349121094,157.88670349121094,0.0,,1.0,1.0,0.0,3,1,0.006917299993801862,0.1330215999914799,157.88670349121094,157.88670349121094,0.0,,4.0
6,['2'],2,TMTstop-control_1_8linestimulus3.png,TMTstop-control_1_8greenlinestimulus3.png,TMTstop-control_1_8redlinestimulus3.png,TMT_Control,8,181,None,4,1.0,158.11598205566406,158.11598205566406,0.0,,1.0,1.0,0.0,2,-0.01723690002108924,158.11598205566406,158.11598205566406,0.0,,5.0
7,['1'],1,TMTstop-control_1_8linestimulus4.png,TMTstop-control_1_8greenlinestimulus4.png,TMTstop-control_1_8redlinestimulus4.png,TMT_Control,8,182,None,4,1.0,158.16610717773438,158.16610717773438,0.0,,1.0,1.0,0.0,3,1,0.03786650000256486,0.3386754000093788,158.16610717773438,158.16610717773438,0.0,,6.0
8,['2'],2,TMTstop-control_1_8linestimulus4.png,TMTstop-control_1_8greenlinestimulus5.png,TMTstop-control_1_8redlinestimulus5.png,TMT_Control,8,183,None,4,1.0,158.5665740966797,158.5665740966797,0.0,,1.0,1.0,0.0,2,0.052704300003824756,158.5665740966797,158.5665740966797,0.0,,7.0
9,['3'],3,TMTstop-control_1_8linestimulus6.png,TMTstop-control_1_8greenlinestimulus6.png,TMTstop-control_1_8redlinestimulus6.png,TMT_Control,8,184,None,4,1.0,158.68333435058594,158.68333435058594,0.0,,1.0,1.0,0.0,3,-0.022212900017620996,158.68333435058594,158.68333435058594,0.0,,8.0
10,['2'],2,TMTstop-control_1_8linestimulus7.png,TMTstop-control_1_8greenlinestimulus7.png,TMTstop-control_1_8redlinestimulus7.png,TMT_Control,8,185,None,4,1.0,158.740478515625,158.740478515625,0.0,,1.0,1.0,0.0,1,2,0.13622759998543188,0.19490539998514578,158.740478515625,158.740478515625,0.0,,9.0
11,['1'],1,TMTstop-control_1_8linestimulus8.png,TMTstop-control_1_8greenlinestimulus8.png,TMTstop-control_1_8redlinestimulus8.png,TMT_Control,8,186,None,4,1.0,159.02780151367188,159.02780151367188,0.0,,1.0,1.0,0.0,3,1,0.010253500018734485,0.2472515000263229,159.02780151367188,159.02780151367188,0.0,,10.0
12,['3'],3,TMTstop-control_1_8linestimulus9.png,TMTstop-control_1_8greenlinestimulus9.png,TMTstop-control_1_8redlinestimulus9.png,TMT_Control,8,187,None,4,1.0,159.3616485595703,159.3616485595703,0.0,,1.0,1.0,0.0,1,2,3,0.37379700000747107,0.5014474000199698,0.5753823000122793,159.3616485595703,159.3616485595703,0.0,,11.0
13,['1'],1,TMTstop-control_1_8linestimulus10.png,TMTstop-control_1_8greenlinestimulus10.png,TMTstop-control_1_8redlinestimulus10.png,TMT_Control,8,188,None,4,1.0,160.01548767089844,160.01548767089844,0.0,,1.0,1.0,0.0,1,0.054860100004589185,160.01548767089844,160.01548767089844,0.0,,12.0
14,['3'],3,TMTstop-control_1_8linestimulus11.png,TMTstop-control_1_8greenlinestimulus11.png,TMTstop-control_1_8redlinestimulus11.png,TMT_Control,8,189,None,4,1.0,160.1322784423828,160.1322784423828,0.0,,1.0,1.0,0.0,2,1,2,3,0.01416559997596778,0.36420369998086244,0.500081299978774,0.5557979999866802,160.1322784423828,160.1322784423828,0.0,,13.0
15,['1'],1,TMTstop-control_1_8linestimulus12.png,TMTstop-control_1_8greenlinestimulus12.png,TMTstop-control_1_8redlinestimulus12.png,TMT_Control,8,190,None,4,1.0,160.76829528808594,160.76829528808594,0.0,,1.0,1.0,0.0,1,0.058774600009201095,160.76829528808594,160.76829528808594,0.0,,14.0
16,['3'],3,TMTstop-control_1_8linestimulus13.png,TMTstop-control_1_8greenlinestimulus13.png,TMTstop-control_1_8redlinestimulus13.png,TMT_Control,8,191,None,4,1.0,160.90313720703125,160.90313720703125,0.0,,1.0,1.0,0.0,2,3,-0.006540400005178526,0.10151169999153353,160.90313720703125,160.90313720703125,0.0,,15.0
17,['1'],1,TMTstop-control_1_8linestimulus14.png,TMTstop-control_1_8greenlinestimulus14.png,TMTstop-control_1_8redlinestimulus14.png,TMT_Control,8,192,None,4,1.0,161.10292053222656,161.10292053222656,0.0,,1.0,1.0,0.0,1,0.03897389999474399,161.10292053222656,161.10292053222656,0.0,,16.0
18,['2'],2,TMTstop-control_1_8linestimulus15.png,TMTstop-control_1_8greenlinestimulus15.png,TMTstop-control_1_8redlinestimulus15.png,TMT_Control,8,193,None,4,1.0,161.20335388183594,161.20335388183594,0.0,,1.0,1.0,0.0,2,0.03988039999967441,161.20335388183594,161.20335388183594,0.0,,17.0
19,['1'],1,TMTstop-control_1_8linestimulus16.png,TMTstop-control_1_8greenlinestimulus16.png,TMTstop-control_1_8redlinestimulus16.png,TMT_Control,8,194,None,4,1.0,161.30319213867188,161.30319213867188,0.0,,1.0,1.0,0.0,3,1,0.01362479999079369,0.1650911999749951,161.30319213867188,161.30319213867188,0.0,,18.0
20,['3'],3,TMTstop-control_1_8linestimulus17.png,TMTstop-control_1_8greenlinestimulus17.png,TMTstop-control_1_8redlinestimulus17.png,TMT_Control,8,195,None,4,1.0,161.54360961914062,161.54360961914062,0.0,,1.0,1.0,0.0,2,3,0.03054639999754727,0.10323360000620596,161.54360961914062,161.54360961914062,0.0,,19.0
21,['2'],2,TMTstop-control_1_8linestimulus18.png,TMTstop-control_1_8greenlinestimulus18.png,TMTstop-control_1_8redlinestimulus18.png,TMT_Control,8,196,None,4,1.0,161.74436950683594,161.74436950683594,0.0,,1.0,1.0,0.0,1,2,0.05422059999546036,0.12349170001107268,161.74436950683594,161.74436950683594,0.0,,20.0
22,['3'],3,TMTstop-control_1_8linestimulus19.png,TMTstop-control_1_8greenlinestimulus19.png,TMTstop-control_1_8redlinestimulus19.png,TMT_Control,8,197,None,4,1.0,161.96990966796875,161.96990966796875,0.0,,1.0,1.0,0.0,3,0.009522999986074865,161.96990966796875,161.96990966796875,0.0,,21.0
23,['1'],1,TMTstop-control_1_8linestimulus20.png,TMTstop-control_1_8greenlinestimulus20.png,TMTstop-control_1_8redlinestimulus20.png,TMT_Control,8,198,None,4,1.0,162.04324340820312,162.04324340820312,0.0,,1.0,1.0,0.0,1,0.062425299984170124,162.04324340820312,162.04324340820312,0.0,,22.0
24,['2'],2,TMTstop-control_1_8linestimulus21.png,TMTstop-control_1_8greenlinestimulus21.png,TMTstop-control_1_8redlinestimulus21.png,TMT_Control,8,199,None,4,1.0,162.16065979003906,162.16065979003906,0.0,,1.0,1.0,0.0,2,0.02270870000938885,162.16065979003906,162.16065979003906,0.0,,23.0
25,['3'],3,TMTstop-control_1_8linestimulus22.png,TMTstop-control_1_8greenlinestimulus22.png,TMTstop-control_1_8redlinestimulus22.png,TMT_Control,8,200,None,4,1.0,162.2440948486328,162.2440948486328,0.0,,1.0,1.0,0.0,3,0.04649259999860078,162.2440948486328,162.2440948486328,0.0,,24.0
None,None,None,TMTstop-control_1_8linestimulus23.png,TMTstop-control_1_8greenlinestimulus23.png,TMTstop-control_1_8redlinestimulus23.png,TMT_Control,8,Feedback_last,None,4,1.0,162.34420776367188,162.34420776367188,0.0,,0.0,0.0,0.0,1,2,0.07775320002110675,0.14589270000578836,162.34420776367188,162.34420776367188,0.0,,25.0

extraInfo
participant,
session,001
date,2022_May_11_1110
expName,TMT_fmri
psychopyVersion,2021.2.3
frameRate,59.94176058854945
