NumberLetter,corrAns,Correct,StimFile,Correct_StimFile,False_StimFile,Version,Paper,TrialNumber_Version,Round,Block,TrialNumber_total,n,Stim.started_mean,Stim.started_raw,Stim.started_std,Stim.stopped_raw,key_resp_2.corr_mean,key_resp_2.corr_raw,key_resp_2.corr_std,key_resp_2.keys_raw,key_resp_2.rt_raw,key_resp_2.started_mean,key_resp_2.started_raw,key_resp_2.started_std,key_resp_2.stopped_raw,order
1,['1'],1,Images/TMTstop-A_1_1.png,Images/TMTstop-A_1_1.png,Images/TMTstop-A_1_1.png,TMT_A,A1,1,2.0,2,401,1.0,98.03108215332031,98.03108215332031,0.0,,1.0,1.0,0.0,1,0.8506653000367805,98.03108215332031,98.03108215332031,0.0,,0.0
2,['3'],3,Images/TMTstop-A_1_1.png,Images/TMTstop-A_1_1firstgreen.png,Images/TMTstop-A_1_1firstred.png,TMT_A,A1,2,None,2,402,1.0,98.94005584716797,98.94005584716797,0.0,,1.0,1.0,0.0,1,2,3,0.1806372000137344,0.20906720001948997,0.31605090002994984,98.94005584716797,98.94005584716797,0.0,,1.0
3,['1'],1,Images/TMTstop-A_1_1linestimulus0.png,Images/TMTstop-A_1_1greenlinestimulus0.png,Images/TMTstop-A_1_1redlinestimulus0.png,TMT_A,A1,3,None,2,403,1.0,99.35496520996094,99.35496520996094,0.0,,1.0,1.0,0.0,1,0.08481649996247143,99.35496520996094,99.35496520996094,0.0,,2.0
4,['3'],3,Images/TMTstop-A_1_1linestimulus1.png,Images/TMTstop-A_1_1greenlinestimulus1.png,Images/TMTstop-A_1_1redlinestimulus1.png,TMT_A,A1,4,None,2,404,1.0,99.50507354736328,99.50507354736328,0.0,,1.0,1.0,0.0,2,3,-0.008881799993105233,0.08389130001887679,99.50507354736328,99.50507354736328,0.0,,3.0
5,['1'],1,Images/TMTstop-A_1_1linestimulus2.png,Images/TMTstop-A_1_1greenlinestimulus2.png,Images/TMTstop-A_1_1redlinestimulus2.png,TMT_A,A1,5,None,2,405,1.0,99.66864013671875,99.66864013671875,0.0,,1.0,1.0,0.0,1,0.07147749996511266,99.66864013671875,99.66864013671875,0.0,,4.0
6,['3'],3,Images/TMTstop-A_1_1linestimulus3.png,Images/TMTstop-A_1_1greenlinestimulus3.png,Images/TMTstop-A_1_1redlinestimulus3.png,TMT_A,A1,6,None,2,406,1.0,99.80220031738281,99.80220031738281,0.0,,1.0,1.0,0.0,2,3,-0.007737900014035404,0.09001699998043478,99.80220031738281,99.80220031738281,0.0,,5.0
7,['1'],1,Images/TMTstop-A_1_1linestimulus4.png,Images/TMTstop-A_1_1greenlinestimulus4.png,Images/TMTstop-A_1_1redlinestimulus4.png,TMT_A,A1,7,None,2,407,1.0,99.96329498291016,99.96329498291016,0.0,,1.0,1.0,0.0,1,0.09172179998131469,99.96329498291016,99.96329498291016,0.0,,6.0
8,['2'],2,Images/TMTstop-A_1_1linestimulus5.png,Images/TMTstop-A_1_1greenlinestimulus5.png,Images/TMTstop-A_1_1redlinestimulus5.png,TMT_A,A1,8,None,2,408,1.0,100.11333465576172,100.11333465576172,0.0,,1.0,1.0,0.0,2,-0.003946699958760291,100.11333465576172,100.11333465576172,0.0,,7.0
9,['3'],3,Images/TMTstop-A_1_1linestimulus6.png,Images/TMTstop-A_1_1greenlinestimulus6.png,Images/TMTstop-A_1_1redlinestimulus6.png,TMT_A,A1,9,None,2,409,1.0,100.16357421875,100.16357421875,0.0,,1.0,1.0,0.0,3,0.05122080002911389,100.16357421875,100.16357421875,0.0,,8.0
10,['1'],1,Images/TMTstop-A_1_1linestimulus7.png,Images/TMTstop-A_1_1greenlinestimulus7.png,Images/TMTstop-A_1_1redlinestimulus7.png,TMT_A,A1,10,None,2,410,1.0,100.28034210205078,100.28034210205078,0.0,,1.0,1.0,0.0,1,0.11287290003383532,100.28034210205078,100.28034210205078,0.0,,9.0
11,['3'],3,Images/TMTstop-A_1_1linestimulus8.png,Images/TMTstop-A_1_1greenlinestimulus8.png,Images/TMTstop-A_1_1redlinestimulus8.png,TMT_A,A1,11,None,2,411,1.0,100.45500183105469,100.45500183105469,0.0,,1.0,1.0,0.0,2,3,-0.03278229996794835,0.17023049999261275,100.45500183105469,100.45500183105469,0.0,,10.0
12,['2'],2,Images/TMTstop-A_1_1linestimulus9.png,Images/TMTstop-A_1_1greenlinestimulus9.png,Images/TMTstop-A_1_1redlinestimulus9.png,TMT_A,A1,12,None,2,412,1.0,100.70152282714844,100.70152282714844,0.0,,1.0,1.0,0.0,1,2,0.1301577999838628,0.16653129999758676,100.70152282714844,100.70152282714844,0.0,,11.0
13,['1'],1,Images/TMTstop-A_1_1linestimulus10.png,Images/TMTstop-A_1_1greenlinestimulus10.png,Images/TMTstop-A_1_1redlinestimulus10.png,TMT_A,A1,13,None,2,413,1.0,100.93524932861328,100.93524932861328,0.0,,1.0,1.0,0.0,3,1,0.09917920001316816,0.23907650000182912,100.93524932861328,100.93524932861328,0.0,,12.0
14,['2'],2,Images/TMTstop-A_1_1linestimulus11.png,Images/TMTstop-A_1_1greenlinestimulus11.png,Images/TMTstop-A_1_1redlinestimulus11.png,TMT_A,A1,14,None,2,414,1.0,101.24710845947266,101.24710845947266,0.0,,1.0,1.0,0.0,2,-0.016335799999069422,101.24710845947266,101.24710845947266,0.0,,13.0
15,['1'],1,Images/TMTstop-A_1_1linestimulus12.png,Images/TMTstop-A_1_1greenlinestimulus12.png,Images/TMTstop-A_1_1redlinestimulus12.png,TMT_A,A1,15,None,2,415,1.0,101.29756164550781,101.29756164550781,0.0,,1.0,1.0,0.0,3,1,0.05134539998834953,0.215405999973882,101.29756164550781,101.29756164550781,0.0,,14.0
16,['2'],2,Images/TMTstop-A_1_1linestimulus13.png,Images/TMTstop-A_1_1greenlinestimulus13.png,Images/TMTstop-A_1_1redlinestimulus13.png,TMT_A,A1,16,None,2,416,1.0,101.59795379638672,101.59795379638672,0.0,,1.0,1.0,0.0,2,0.05416419997345656,101.59795379638672,101.59795379638672,0.0,,15.0
17,['1'],1,Images/TMTstop-A_1_1linestimulus14.png,Images/TMTstop-A_1_1greenlinestimulus14.png,Images/TMTstop-A_1_1redlinestimulus14.png,TMT_A,A1,17,None,2,417,1.0,101.71472930908203,101.71472930908203,0.0,,1.0,1.0,0.0,3,1,0.02711050002835691,0.37803610000992194,101.71472930908203,101.71472930908203,0.0,,16.0
18,['3'],3,Images/TMTstop-A_1_1linestimulus15.png,Images/TMTstop-A_1_1greenlinestimulus15.png,Images/TMTstop-A_1_1redlinestimulus15.png,TMT_A,A1,18,None,2,418,1.0,102.1480484008789,102.1480484008789,0.0,,1.0,1.0,0.0,2,3,0.005895599955692887,0.11519369995221496,102.1480484008789,102.1480484008789,0.0,,17.0
19,['2'],2,Images/TMTstop-A_1_1linestimulus16.png,Images/TMTstop-A_1_1greenlinestimulus16.png,Images/TMTstop-A_1_1redlinestimulus16.png,TMT_A,A1,19,None,2,419,1.0,102.33631134033203,102.33631134033203,0.0,,1.0,1.0,0.0,1,2,0.11484049999853596,0.16028060001553968,102.33631134033203,102.33631134033203,0.0,,18.0
20,['3'],3,Images/TMTstop-A_1_1linestimulus17.png,Images/TMTstop-A_1_1greenlinestimulus17.png,Images/TMTstop-A_1_1redlinestimulus17.png,TMT_A,A1,20,None,2,420,1.0,102.55720520019531,102.55720520019531,0.0,,1.0,1.0,0.0,3,0.0382493999786675,102.55720520019531,102.55720520019531,0.0,,19.0
21,['1'],1,Images/TMTstop-A_1_1linestimulus18.png,Images/TMTstop-A_1_1greenlinestimulus18.png,Images/TMTstop-A_1_1redlinestimulus18.png,TMT_A,A1,21,None,2,421,1.0,102.66704559326172,102.66704559326172,0.0,,1.0,1.0,0.0,1,0.09710260003339499,102.66704559326172,102.66704559326172,0.0,,20.0
22,['3'],3,Images/TMTstop-A_1_1linestimulus19.png,Images/TMTstop-A_1_1greenlinestimulus19.png,Images/TMTstop-A_1_1redlinestimulus19.png,TMT_A,A1,22,None,2,422,1.0,102.81788635253906,102.81788635253906,0.0,,1.0,1.0,0.0,2,3,-0.016323400021065027,0.09426629997324198,102.81788635253906,102.81788635253906,0.0,,21.0
23,['1'],1,Images/TMTstop-A_1_1linestimulus20.png,Images/TMTstop-A_1_1greenlinestimulus20.png,Images/TMTstop-A_1_1redlinestimulus20.png,TMT_A,A1,23,None,2,423,1.0,102.98072052001953,102.98072052001953,0.0,,1.0,1.0,0.0,1,0.0672836999874562,102.98072052001953,102.98072052001953,0.0,,22.0
24,['3'],3,Images/TMTstop-A_1_1linestimulus21.png,Images/TMTstop-A_1_1greenlinestimulus21.png,Images/TMTstop-A_1_1redlinestimulus21.png,TMT_A,A1,24,None,2,424,1.0,103.0975570678711,103.0975570678711,0.0,,1.0,1.0,0.0,2,3,0.009458100015763193,0.09361350000835955,103.0975570678711,103.0975570678711,0.0,,23.0
25,['1'],1,Images/TMTstop-A_1_1linestimulus22.png,Images/TMTstop-A_1_1greenlinestimulus22.png,Images/TMTstop-A_1_1redlinestimulus22.png,TMT_A,A1,25,None,2,425,1.0,103.28791809082031,103.28791809082031,0.0,,1.0,1.0,0.0,1,0.05325080000329763,103.28791809082031,103.28791809082031,0.0,,24.0
None,None,None,Images/TMTstop-A_1_1linestimulus23.png,Images/TMTstop-A_1_1greenlinestimulus23.png,Images/TMTstop-A_1_1redlinestimulus23.png,TMT_A,A1,Feedback_last,None,2,Feedback_last,1.0,103.40479278564453,103.40479278564453,0.0,,0.0,0.0,0.0,2,3,-0.009027099993545562,0.0765063000144437,103.40479278564453,103.40479278564453,0.0,,25.0

extraInfo
participant,
session,001
date,2022_Dec_20_1655
expName,TMT_fmri
psychopyVersion,2021.2.3
frameRate,59.88583364190807
﻿NumberLetter,corrAns,Correct,StimFile,Correct_StimFile,False_StimFile,Version,Paper,TrialNumber_Version,Round,Block,TrialNumber_total,n,Stim.started_mean,Stim.started_raw,Stim.started_std,Stim.stopped_raw,key_resp_2.corr_mean,key_resp_2.corr_raw,key_resp_2.corr_std,key_resp_2.keys_raw,key_resp_2.rt_raw,key_resp_2.started_mean,key_resp_2.started_raw,key_resp_2.started_std,key_resp_2.stopped_raw,order
1,['1'],1,Images/TMTstop-A_1_2.png,Images/TMTstop-A_1_2.png,Images/TMTstop-A_1_2.png,TMT_A,A2,26,None,2,426,1.0,107.78048706054688,107.78048706054688,0.0,,1.0,1.0,0.0,1,0.3927714999881573,107.78048706054688,107.78048706054688,0.0,,0.0
2,['3'],3,Images/TMTstop-A_1_2.png,Images/TMTstop-A_1_2firstgreen.png,Images/TMTstop-A_1_2firstred.png,TMT_A,A2,27,None,2,427,1.0,108.2221450805664,108.2221450805664,0.0,,1.0,1.0,0.0,2,3,0.04798559995833784,0.11298129998613149,108.2221450805664,108.2221450805664,0.0,,1.0
3,['1'],1,Images/TMTstop-A_1_2linestimulus0.png,Images/TMTstop-A_1_2greenlinestimulus0.png,Images/TMTstop-A_1_2redlinestimulus0.png,TMT_A,A2,28,None,2,428,1.0,108.4120864868164,108.4120864868164,0.0,,1.0,1.0,0.0,1,0.09012400003848597,108.4120864868164,108.4120864868164,0.0,,2.0
4,['2'],2,Images/TMTstop-A_1_2linestimulus1.png,Images/TMTstop-A_1_2greenlinestimulus1.png,Images/TMTstop-A_1_2redlinestimulus1.png,TMT_A,A2,29,None,2,429,1.0,108.5622329711914,108.5622329711914,0.0,,1.0,1.0,0.0,2,-0.016971000004559755,108.5622329711914,108.5622329711914,0.0,,3.0
5,['1'],1,Images/TMTstop-A_1_2linestimulus2.png,Images/TMTstop-A_1_2greenlinestimulus2.png,Images/TMTstop-A_1_2redlinestimulus2.png,TMT_A,A2,30,None,2,430,1.0,108.6123046875,108.6123046875,0.0,,1.0,1.0,0.0,3,1,0.025378799997270107,0.18047179997665808,108.6123046875,108.6123046875,0.0,,4.0
6,['3'],3,Images/TMTstop-A_1_2linestimulus3.png,Images/TMTstop-A_1_2greenlinestimulus3.png,Images/TMTstop-A_1_2redlinestimulus3.png,TMT_A,A2,31,None,2,431,1.0,108.85164642333984,108.85164642333984,0.0,,1.0,1.0,0.0,2,3,-0.014466499967966229,0.07258079998428002,108.85164642333984,108.85164642333984,0.0,,5.0
7,['2'],2,Images/TMTstop-A_1_2linestimulus4.png,Images/TMTstop-A_1_2greenlinestimulus4.png,Images/TMTstop-A_1_2redlinestimulus4.png,TMT_A,A2,32,None,2,432,1.0,109.00177764892578,109.00177764892578,0.0,,1.0,1.0,0.0,1,2,0.07204559998353943,0.11744950001593679,109.00177764892578,109.00177764892578,0.0,,6.0
8,['1'],1,Images/TMTstop-A_1_2linestimulus5.png,Images/TMTstop-A_1_2greenlinestimulus5.png,Images/TMTstop-A_1_2redlinestimulus5.png,TMT_A,A2,33,None,2,433,1.0,109.20911407470703,109.20911407470703,0.0,,1.0,1.0,0.0,3,1,0.07718010002281517,0.3560521000181325,109.20911407470703,109.20911407470703,0.0,,7.0
9,['3'],3,Images/TMTstop-A_1_2linestimulus6.png,Images/TMTstop-A_1_2greenlinestimulus6.png,Images/TMTstop-A_1_2redlinestimulus6.png,TMT_A,A2,34,None,2,434,1.0,109.6214370727539,109.6214370727539,0.0,,1.0,1.0,0.0,2,3,-0.01622220000717789,0.06684210000094026,109.6214370727539,109.6214370727539,0.0,,8.0
10,['2'],2,Images/TMTstop-A_1_2linestimulus7.png,Images/TMTstop-A_1_2greenlinestimulus7.png,Images/TMTstop-A_1_2redlinestimulus7.png,TMT_A,A2,35,None,2,435,1.0,109.78146362304688,109.78146362304688,0.0,,1.0,1.0,0.0,1,2,0.10666990000754595,0.1687833999749273,109.78146362304688,109.78146362304688,0.0,,9.0
11,['1'],1,Images/TMTstop-A_1_2linestimulus8.png,Images/TMTstop-A_1_2greenlinestimulus8.png,Images/TMTstop-A_1_2redlinestimulus8.png,TMT_A,A2,36,None,2,436,1.0,110.06092834472656,110.06092834472656,0.0,,1.0,1.0,0.0,3,1,-0.007708599965553731,0.1761586000211537,110.06092834472656,110.06092834472656,0.0,,10.0
12,['2'],2,Images/TMTstop-A_1_2linestimulus9.png,Images/TMTstop-A_1_2greenlinestimulus9.png,Images/TMTstop-A_1_2redlinestimulus9.png,TMT_A,A2,37,None,2,437,1.0,110.31116485595703,110.31116485595703,0.0,,1.0,1.0,0.0,2,-0.03318910003872588,110.31116485595703,110.31116485595703,0.0,,11.0
13,['1'],1,Images/TMTstop-A_1_2linestimulus10.png,Images/TMTstop-A_1_2greenlinestimulus10.png,Images/TMTstop-A_1_2redlinestimulus10.png,TMT_A,A2,38,None,2,438,1.0,110.36253356933594,110.36253356933594,0.0,,1.0,1.0,0.0,3,1,0.020685100054834038,0.18031900003552437,110.36253356933594,110.36253356933594,0.0,,12.0
14,['3'],3,Images/TMTstop-A_1_2linestimulus11.png,Images/TMTstop-A_1_2greenlinestimulus11.png,Images/TMTstop-A_1_2redlinestimulus11.png,TMT_A,A2,39,None,2,439,1.0,110.60157012939453,110.60157012939453,0.0,,1.0,1.0,0.0,2,3,-0.010141099977772683,0.0774041999829933,110.60157012939453,110.60157012939453,0.0,,13.0
15,['1'],1,Images/TMTstop-A_1_2linestimulus12.png,Images/TMTstop-A_1_2greenlinestimulus12.png,Images/TMTstop-A_1_2redlinestimulus12.png,TMT_A,A2,40,None,2,440,1.0,110.7564926147461,110.7564926147461,0.0,,1.0,1.0,0.0,1,0.06878849997883663,110.7564926147461,110.7564926147461,0.0,,14.0
16,['3'],3,Images/TMTstop-A_1_2linestimulus13.png,Images/TMTstop-A_1_2greenlinestimulus13.png,Images/TMTstop-A_1_2redlinestimulus13.png,TMT_A,A2,41,None,2,441,1.0,110.89009094238281,110.89009094238281,0.0,,1.0,1.0,0.0,2,3,-0.015754499996546656,0.07318310003029183,110.89009094238281,110.89009094238281,0.0,,15.0
17,['1'],1,Images/TMTstop-A_1_2linestimulus14.png,Images/TMTstop-A_1_2greenlinestimulus14.png,Images/TMTstop-A_1_2redlinestimulus14.png,TMT_A,A2,42,None,2,442,1.0,111.0401382446289,111.0401382446289,0.0,,1.0,1.0,0.0,1,0.0940365000278689,111.0401382446289,111.0401382446289,0.0,,16.0
18,['2'],2,Images/TMTstop-A_1_2linestimulus15.png,Images/TMTstop-A_1_2greenlinestimulus15.png,Images/TMTstop-A_1_2redlinestimulus15.png,TMT_A,A2,43,None,2,443,1.0,111.19036865234375,111.19036865234375,0.0,,1.0,1.0,0.0,2,-0.006116800010204315,111.19036865234375,111.19036865234375,0.0,,17.0
19,['1'],1,Images/TMTstop-A_1_2linestimulus16.png,Images/TMTstop-A_1_2greenlinestimulus16.png,Images/TMTstop-A_1_2redlinestimulus16.png,TMT_A,A2,44,None,2,444,1.0,111.24037170410156,111.24037170410156,0.0,,1.0,1.0,0.0,3,1,0.04690640000626445,0.20679379999637604,111.24037170410156,111.24037170410156,0.0,,18.0
20,['2'],2,Images/TMTstop-A_1_2linestimulus17.png,Images/TMTstop-A_1_2greenlinestimulus17.png,Images/TMTstop-A_1_2redlinestimulus17.png,TMT_A,A2,45,None,2,445,1.0,111.50389099121094,111.50389099121094,0.0,,1.0,1.0,0.0,2,0.001794499985408038,111.50389099121094,111.50389099121094,0.0,,19.0
21,['3'],3,Images/TMTstop-A_1_2linestimulus18.png,Images/TMTstop-A_1_2greenlinestimulus18.png,Images/TMTstop-A_1_2redlinestimulus18.png,TMT_A,A2,46,None,2,446,1.0,111.5776596069336,111.5776596069336,0.0,,1.0,1.0,0.0,3,0.0235370000009425,111.5776596069336,111.5776596069336,0.0,,20.0
22,['2'],2,Images/TMTstop-A_1_2linestimulus19.png,Images/TMTstop-A_1_2greenlinestimulus19.png,Images/TMTstop-A_1_2redlinestimulus19.png,TMT_A,A2,47,None,2,447,1.0,111.6777572631836,111.6777572631836,0.0,,1.0,1.0,0.0,1,2,0.11357270000735298,0.15808439999818802,111.6777572631836,111.6777572631836,0.0,,21.0
23,['3'],3,Images/TMTstop-A_1_2linestimulus20.png,Images/TMTstop-A_1_2greenlinestimulus20.png,Images/TMTstop-A_1_2redlinestimulus20.png,TMT_A,A2,48,None,2,448,1.0,111.8975601196289,111.8975601196289,0.0,,1.0,1.0,0.0,3,0.04074369999580085,111.8975601196289,111.8975601196289,0.0,,22.0
24,['2'],2,Images/TMTstop-A_1_2linestimulus21.png,Images/TMTstop-A_1_2greenlinestimulus21.png,Images/TMTstop-A_1_2redlinestimulus21.png,TMT_A,A2,49,None,2,449,1.0,111.99764251708984,111.99764251708984,0.0,,1.0,1.0,0.0,1,2,0.5205145999789238,0.5906666999799199,111.99764251708984,111.99764251708984,0.0,,23.0
25,['3'],3,Images/TMTstop-A_1_2linestimulus22.png,Images/TMTstop-A_1_2greenlinestimulus22.png,Images/TMTstop-A_1_2redlinestimulus22.png,TMT_A,A2,50,None,2,450,1.0,112.6395492553711,112.6395492553711,0.0,,1.0,1.0,0.0,3,0.45623329997761175,112.6395492553711,112.6395492553711,0.0,,24.0
None,None,None,Images/TMTstop-A_1_2linestimulus23.png,Images/TMTstop-A_1_2greenlinestimulus23.png,Images/TMTstop-A_1_2redlinestimulus23.png,TMT_A,A2,Feedback_last,None,2,Feedback_last,1.0,113.16439056396484,113.16439056396484,0.0,,1.0,1.0,0.0,,'--',113.16439056396484,113.16439056396484,0.0,,25.0

extraInfo
participant,
session,001
date,2022_Dec_20_1655
expName,TMT_fmri
psychopyVersion,2021.2.3
frameRate,59.88583364190807
﻿NumberLetter,corrAns,Correct,StimFile,Correct_StimFile,False_StimFile,Version,Paper,TrialNumber_Version,Round,Block,TrialNumber_total,n,Stim.started_mean,Stim.started_raw,Stim.started_std,Stim.stopped_raw,key_resp_2.corr_mean,key_resp_2.corr_raw,key_resp_2.corr_std,key_resp_2.keys_raw,key_resp_2.rt_raw,key_resp_2.started_mean,key_resp_2.started_raw,key_resp_2.started_std,key_resp_2.stopped_raw,order
1,['1'],1,Images/TMTstop-A_1_3.png,Images/TMTstop-A_1_3.png,Images/TMTstop-A_1_3.png,TMT_A,A3,51,None,2,451,1.0,117.48841857910156,117.48841857910156,0.0,,1.0,1.0,0.0,1,0.32252669997978956,117.48841857910156,117.48841857910156,0.0,,0.0
2,['3'],3,Images/TMTstop-A_1_3.png,Images/TMTstop-A_1_3firstgreen.png,Images/TMTstop-A_1_3firstred.png,TMT_A,A3,52,None,2,452,1.0,117.8799819946289,117.8799819946289,0.0,,1.0,1.0,0.0,2,3,-0.028637700015679002,0.09032509999815375,117.8799819946289,117.8799819946289,0.0,,1.0
3,['2'],2,Images/TMTstop-A_1_3linestimulus0.png,Images/TMTstop-A_1_3greenlinestimulus0.png,Images/TMTstop-A_1_3redlinestimulus0.png,TMT_A,A3,53,None,2,453,1.0,118.04048156738281,118.04048156738281,0.0,,1.0,1.0,0.0,1,2,0.09160680003697053,0.1398744000471197,118.04048156738281,118.04048156738281,0.0,,2.0
4,['3'],3,Images/TMTstop-A_1_3linestimulus1.png,Images/TMTstop-A_1_3greenlinestimulus1.png,Images/TMTstop-A_1_3redlinestimulus1.png,TMT_A,A3,54,None,2,454,1.0,118.24088287353516,118.24088287353516,0.0,,1.0,1.0,0.0,3,0.04744880000362173,118.24088287353516,118.24088287353516,0.0,,3.0
5,['2'],2,Images/TMTstop-A_1_3linestimulus2.png,Images/TMTstop-A_1_3greenlinestimulus2.png,Images/TMTstop-A_1_3redlinestimulus2.png,TMT_A,A3,55,None,2,455,1.0,118.3410415649414,118.3410415649414,0.0,,1.0,1.0,0.0,1,2,0.08331220003310591,0.12741290003759786,118.3410415649414,118.3410415649414,0.0,,4.0
6,['1'],1,Images/TMTstop-A_1_3linestimulus3.png,Images/TMTstop-A_1_3greenlinestimulus3.png,Images/TMTstop-A_1_3redlinestimulus3.png,TMT_A,A3,56,None,2,456,1.0,118.52436828613281,118.52436828613281,0.0,,1.0,1.0,0.0,3,1,2,3,1,0.03669239999726415,0.1740707000135444,0.18078799999784678,0.3264513000031002,0.478948500007391,118.52436828613281,118.52436828613281,0.0,,5.0
7,['3'],3,Images/TMTstop-A_1_3linestimulus4.png,Images/TMTstop-A_1_3greenlinestimulus4.png,Images/TMTstop-A_1_3redlinestimulus4.png,TMT_A,A3,57,None,2,457,1.0,119.08595275878906,119.08595275878906,0.0,,1.0,1.0,0.0,2,3,-0.02085640002042055,0.07687559997430071,119.08595275878906,119.08595275878906,0.0,,6.0
8,['1'],1,Images/TMTstop-A_1_3linestimulus5.png,Images/TMTstop-A_1_3greenlinestimulus5.png,Images/TMTstop-A_1_3redlinestimulus5.png,TMT_A,A3,58,None,2,458,1.0,119.23680877685547,119.23680877685547,0.0,,1.0,1.0,0.0,1,0.2956162000191398,119.23680877685547,119.23680877685547,0.0,,7.0
9,['3'],3,Images/TMTstop-A_1_3linestimulus6.png,Images/TMTstop-A_1_3greenlinestimulus6.png,Images/TMTstop-A_1_3redlinestimulus6.png,TMT_A,A3,59,None,2,459,1.0,119.59475708007812,119.59475708007812,0.0,,1.0,1.0,0.0,2,3,-0.013405699981376529,0.06952319998526946,119.59475708007812,119.59475708007812,0.0,,8.0
10,['2'],2,Images/TMTstop-A_1_3linestimulus7.png,Images/TMTstop-A_1_3greenlinestimulus7.png,Images/TMTstop-A_1_3redlinestimulus7.png,TMT_A,A3,60,None,2,460,1.0,119.7577133178711,119.7577133178711,0.0,,1.0,1.0,0.0,1,2,0.09143959998618811,0.1342776999808848,119.7577133178711,119.7577133178711,0.0,,9.0
11,['3'],3,Images/TMTstop-A_1_3linestimulus8.png,Images/TMTstop-A_1_3greenlinestimulus8.png,Images/TMTstop-A_1_3redlinestimulus8.png,TMT_A,A3,61,None,2,461,1.0,119.95796966552734,119.95796966552734,0.0,,1.0,1.0,0.0,3,0.037406900024507195,119.95796966552734,119.95796966552734,0.0,,10.0
12,['2'],2,Images/TMTstop-A_1_3linestimulus9.png,Images/TMTstop-A_1_3greenlinestimulus9.png,Images/TMTstop-A_1_3redlinestimulus9.png,TMT_A,A3,62,None,2,462,1.0,120.05809783935547,120.05809783935547,0.0,,1.0,1.0,0.0,1,2,0.1451729999971576,0.22870049998164177,120.05809783935547,120.05809783935547,0.0,,11.0
13,['1'],1,Images/TMTstop-A_1_3linestimulus10.png,Images/TMTstop-A_1_3greenlinestimulus10.png,Images/TMTstop-A_1_3redlinestimulus10.png,TMT_A,A3,63,None,2,463,1.0,120.34905242919922,120.34905242919922,0.0,,1.0,1.0,0.0,3,1,-0.0039530000067316,0.15722299995832145,120.34905242919922,120.34905242919922,0.0,,12.0
14,['2'],2,Images/TMTstop-A_1_3linestimulus11.png,Images/TMTstop-A_1_3greenlinestimulus11.png,Images/TMTstop-A_1_3redlinestimulus11.png,TMT_A,A3,64,None,2,464,1.0,120.56281280517578,120.56281280517578,0.0,,1.0,1.0,0.0,2,-0.013502600020729005,120.56281280517578,120.56281280517578,0.0,,13.0
15,['3'],3,Images/TMTstop-A_1_3linestimulus12.png,Images/TMTstop-A_1_3greenlinestimulus12.png,Images/TMTstop-A_1_3redlinestimulus12.png,TMT_A,A3,65,None,2,465,1.0,120.6141586303711,120.6141586303711,0.0,,1.0,1.0,0.0,3,0.03333310002926737,120.6141586303711,120.6141586303711,0.0,,14.0
16,['2'],2,Images/TMTstop-A_1_3linestimulus13.png,Images/TMTstop-A_1_3greenlinestimulus13.png,Images/TMTstop-A_1_3redlinestimulus13.png,TMT_A,A3,66,None,2,466,1.0,120.71427154541016,120.71427154541016,0.0,,1.0,1.0,0.0,1,2,0.08554800000274554,0.13018929999088868,120.71427154541016,120.71427154541016,0.0,,15.0
17,['3'],3,Images/TMTstop-A_1_3linestimulus14.png,Images/TMTstop-A_1_3greenlinestimulus14.png,Images/TMTstop-A_1_3redlinestimulus14.png,TMT_A,A3,67,None,2,467,1.0,120.9144515991211,120.9144515991211,0.0,,1.0,1.0,0.0,3,0.050096800026949495,120.9144515991211,120.9144515991211,0.0,,16.0
18,['2'],2,Images/TMTstop-A_1_3linestimulus15.png,Images/TMTstop-A_1_3greenlinestimulus15.png,Images/TMTstop-A_1_3redlinestimulus15.png,TMT_A,A3,68,None,2,468,1.0,121.01461791992188,121.01461791992188,0.0,,1.0,1.0,0.0,2,1,2,3,1,2,0.07567099999869242,0.08449549996294081,0.3157904999679886,0.31656979996478185,0.6037372999708168,0.688393399992492,121.01461791992188,121.01461791992188,0.0,,17.0
19,['3'],3,Images/TMTstop-A_1_3linestimulus16.png,Images/TMTstop-A_1_3greenlinestimulus16.png,Images/TMTstop-A_1_3redlinestimulus16.png,TMT_A,A3,69,None,2,469,1.0,121.76571655273438,121.76571655273438,0.0,,1.0,1.0,0.0,3,-0.0016539000207558274,121.76571655273438,121.76571655273438,0.0,,18.0
20,['1'],1,Images/TMTstop-A_1_3linestimulus17.png,Images/TMTstop-A_1_3greenlinestimulus17.png,Images/TMTstop-A_1_3redlinestimulus17.png,TMT_A,A3,70,None,2,470,1.0,121.8175277709961,121.8175277709961,0.0,,1.0,1.0,0.0,1,0.10954430000856519,121.8175277709961,121.8175277709961,0.0,,19.0
21,['2'],2,Images/TMTstop-A_1_3linestimulus18.png,Images/TMTstop-A_1_3greenlinestimulus18.png,Images/TMTstop-A_1_3redlinestimulus18.png,TMT_A,A3,71,None,2,471,1.0,121.9842300415039,121.9842300415039,0.0,,1.0,1.0,0.0,2,-0.012064500013366342,121.9842300415039,121.9842300415039,0.0,,20.0
22,['3'],3,Images/TMTstop-A_1_3linestimulus19.png,Images/TMTstop-A_1_3greenlinestimulus19.png,Images/TMTstop-A_1_3redlinestimulus19.png,TMT_A,A3,72,None,2,472,1.0,122.0386962890625,122.0386962890625,0.0,,1.0,1.0,0.0,3,0.02314840001054108,122.0386962890625,122.0386962890625,0.0,,21.0
23,['2'],2,Images/TMTstop-A_1_3linestimulus20.png,Images/TMTstop-A_1_3greenlinestimulus20.png,Images/TMTstop-A_1_3redlinestimulus20.png,TMT_A,A3,73,None,2,473,1.0,122.12904357910156,122.12904357910156,0.0,,1.0,1.0,0.0,1,2,0.09320339997066185,0.12783879996277392,122.12904357910156,122.12904357910156,0.0,,22.0
24,['1'],1,Images/TMTstop-A_1_3linestimulus21.png,Images/TMTstop-A_1_3greenlinestimulus21.png,Images/TMTstop-A_1_3redlinestimulus21.png,TMT_A,A3,74,None,2,474,1.0,122.32927703857422,122.32927703857422,0.0,,1.0,1.0,0.0,3,1,0.03873979998752475,0.1969558999990113,122.32927703857422,122.32927703857422,0.0,,23.0
25,['2'],2,Images/TMTstop-A_1_3linestimulus22.png,Images/TMTstop-A_1_3greenlinestimulus22.png,Images/TMTstop-A_1_3redlinestimulus22.png,TMT_A,A3,75,None,2,475,1.0,122.59272766113281,122.59272766113281,0.0,,1.0,1.0,0.0,2,-0.011480400047730654,122.59272766113281,122.59272766113281,0.0,,24.0
None,None,None,Images/TMTstop-A_1_3linestimulus23.png,Images/TMTstop-A_1_3greenlinestimulus23.png,Images/TMTstop-A_1_3redlinestimulus23.png,TMT_A,A3,Feedback_last,None,2,Feedback_last,1.0,122.64286804199219,122.64286804199219,0.0,,0.0,0.0,0.0,3,1,2,0.02398579998407513,0.16930059995502234,0.22112139995442703,122.64286804199219,122.64286804199219,0.0,,25.0

extraInfo
participant,
session,001
date,2022_Dec_20_1655
expName,TMT_fmri
psychopyVersion,2021.2.3
frameRate,59.88583364190807
﻿NumberLetter,corrAns,Correct,StimFile,Correct_StimFile,False_StimFile,Version,Paper,TrialNumber_Version,Round,Block,TrialNumber_total,n,Stim.started_mean,Stim.started_raw,Stim.started_std,Stim.stopped_raw,key_resp_2.corr_mean,key_resp_2.corr_raw,key_resp_2.corr_std,key_resp_2.keys_raw,key_resp_2.rt_raw,key_resp_2.started_mean,key_resp_2.started_raw,key_resp_2.started_std,key_resp_2.stopped_raw,order
1,['2'],2,Images/TMTstop-A_1_4.png,Images/TMTstop-A_1_4.png,Images/TMTstop-A_1_4.png,TMT_A,A4,76,None,2.0,476,1.0,127.04617309570312,127.04617309570312,0.0,,1.0,1.0,0.0,1,2,0.5649418999673799,0.6531806999701075,127.04617309570312,127.04617309570312,0.0,,0.0
2,['3'],3,Images/TMTstop-A_1_4.png,Images/TMTstop-A_1_4firstgreen.png,Images/TMTstop-A_1_4firstred.png,TMT_A,A4,77,None,2.0,477,1.0,127.7784652709961,127.7784652709961,0.0,,1.0,1.0,0.0,3,-0.024275800038594753,127.7784652709961,127.7784652709961,0.0,,1.0
3,['1'],1,Images/TMTstop-A_1_4linestimulus0.png,Images/TMTstop-A_1_4greenlinestimulus0.png,Images/TMTstop-A_1_4redlinestimulus0.png,TMT_A,A4,78,None,2.0,478,1.0,127.8343505859375,127.8343505859375,0.0,,1.0,1.0,0.0,1,0.09269969997694716,127.8343505859375,127.8343505859375,0.0,,2.0
4,['3'],3,Images/TMTstop-A_1_4linestimulus1.png,Images/TMTstop-A_1_4greenlinestimulus1.png,Images/TMTstop-A_1_4redlinestimulus1.png,TMT_A,A4,79,None,2.0,479,1.0,127.98396301269531,127.98396301269531,0.0,,1.0,1.0,0.0,2,3,-0.004381799953989685,0.08215700002619997,127.98396301269531,127.98396301269531,0.0,,3.0
5,['2'],2,Images/TMTstop-A_1_4linestimulus2.png,Images/TMTstop-A_1_4greenlinestimulus2.png,Images/TMTstop-A_1_4redlinestimulus2.png,TMT_A,A4,80,None,2.0,480,1.0,128.1315155029297,128.1315155029297,0.0,,1.0,1.0,0.0,1,2,0.08209709997754544,0.1328539999667555,128.1315155029297,128.1315155029297,0.0,,4.0
6,['1'],1,Images/TMTstop-A_1_4linestimulus3.png,Images/TMTstop-A_1_4greenlinestimulus3.png,Images/TMTstop-A_1_4redlinestimulus3.png,TMT_A,A4,81,None,2.0,481,1.0,128.31504821777344,128.31504821777344,0.0,,1.0,1.0,0.0,3,1,2,3,1,0.026830999995581806,0.18652109999675304,0.22325699997600168,0.31346699997084215,0.4722596000065096,128.31504821777344,128.31504821777344,0.0,,5.0
7,['2'],2,Images/TMTstop-A_1_4linestimulus4.png,Images/TMTstop-A_1_4greenlinestimulus4.png,Images/TMTstop-A_1_4redlinestimulus4.png,TMT_A,A4,82,None,2.0,482,1.0,128.84896850585938,128.84896850585938,0.0,,1.0,1.0,0.0,2,-0.010252600011881441,128.84896850585938,128.84896850585938,0.0,,6.0
8,['1'],1,Images/TMTstop-A_1_4linestimulus5.png,Images/TMTstop-A_1_4greenlinestimulus5.png,Images/TMTstop-A_1_4redlinestimulus5.png,TMT_A,A4,83,None,2.0,483,1.0,128.90151977539062,128.90151977539062,0.0,,1.0,1.0,0.0,3,1,0.01382930000545457,0.18182930001057684,128.90151977539062,128.90151977539062,0.0,,7.0
9,['3'],3,Images/TMTstop-A_1_4linestimulus6.png,Images/TMTstop-A_1_4greenlinestimulus6.png,Images/TMTstop-A_1_4redlinestimulus6.png,TMT_A,A4,84,None,2.0,484,1.0,129.13938903808594,129.13938903808594,0.0,,1.0,1.0,0.0,2,3,-0.005481699947267771,0.0743030000012368,129.13938903808594,129.13938903808594,0.0,,8.0
10,['2'],2,Images/TMTstop-A_1_4linestimulus7.png,Images/TMTstop-A_1_4greenlinestimulus7.png,Images/TMTstop-A_1_4redlinestimulus7.png,TMT_A,A4,85,None,2.0,485,1.0,129.33766174316406,129.33766174316406,0.0,,1.0,1.0,0.0,1,2,0.03721629997016862,0.09653399995295331,129.33766174316406,129.33766174316406,0.0,,9.0
11,['3'],3,Images/TMTstop-A_1_4linestimulus8.png,Images/TMTstop-A_1_4greenlinestimulus8.png,Images/TMTstop-A_1_4redlinestimulus8.png,TMT_A,A4,86,None,2.0,486,1.0,129.50393676757812,129.50393676757812,0.0,,1.0,1.0,0.0,3,0.014400299987755716,129.50393676757812,129.50393676757812,0.0,,10.0
12,['1'],1,Images/TMTstop-A_1_4linestimulus9.png,Images/TMTstop-A_1_4greenlinestimulus9.png,Images/TMTstop-A_1_4redlinestimulus9.png,TMT_A,A4,87,None,2.0,487,1.0,129.57623291015625,129.57623291015625,0.0,,1.0,1.0,0.0,1,0.11912649997975677,129.57623291015625,129.57623291015625,0.0,,11.0
13,['3'],3,Images/TMTstop-A_1_4linestimulus10.png,Images/TMTstop-A_1_4greenlinestimulus10.png,Images/TMTstop-A_1_4redlinestimulus10.png,TMT_A,A4,88,None,2.0,488,1.0,129.74696350097656,129.74696350097656,0.0,,1.0,1.0,0.0,2,2,1,3,0.013453999999910593,0.33676049998030066,0.3376367000164464,0.351967099995818,129.74696350097656,129.74696350097656,0.0,,12.0
14,['1'],1,Images/TMTstop-A_1_4linestimulus11.png,Images/TMTstop-A_1_4greenlinestimulus11.png,Images/TMTstop-A_1_4redlinestimulus11.png,TMT_A,A4,89,None,2.0,489,1.0,130.175537109375,130.175537109375,0.0,,1.0,1.0,0.0,1,0.19486789999064058,130.175537109375,130.175537109375,0.0,,13.0
15,['2'],2,Images/TMTstop-A_1_4linestimulus12.png,Images/TMTstop-A_1_4greenlinestimulus12.png,Images/TMTstop-A_1_4redlinestimulus12.png,TMT_A,A4,90,None,2.0,490,1.0,130.4371337890625,130.4371337890625,0.0,,1.0,1.0,0.0,2,-0.017948599997907877,130.4371337890625,130.4371337890625,0.0,,14.0
16,['1'],1,Images/TMTstop-A_1_4linestimulus13.png,Images/TMTstop-A_1_4greenlinestimulus13.png,Images/TMTstop-A_1_4redlinestimulus13.png,TMT_A,A4,91,None,2.0,491,1.0,130.4871826171875,130.4871826171875,0.0,,1.0,1.0,0.0,3,1,0.019243900023866445,0.26300629996694624,130.4871826171875,130.4871826171875,0.0,,15.0
17,['3'],3,Images/TMTstop-A_1_4linestimulus14.png,Images/TMTstop-A_1_4greenlinestimulus14.png,Images/TMTstop-A_1_4redlinestimulus14.png,TMT_A,A4,92,None,2.0,492,1.0,130.81112670898438,130.81112670898438,0.0,,1.0,1.0,0.0,2,3,-0.023743500001728535,0.11938479996751994,130.81112670898438,130.81112670898438,0.0,,16.0
18,['2'],2,Images/TMTstop-A_1_4linestimulus15.png,Images/TMTstop-A_1_4greenlinestimulus15.png,Images/TMTstop-A_1_4redlinestimulus15.png,TMT_A,A4,93,None,2.0,493,1.0,131.01138305664062,131.01138305664062,0.0,,1.0,1.0,0.0,1,2,0.11450610001338646,0.15685979998670518,131.01138305664062,131.01138305664062,0.0,,17.0
19,['3'],3,Images/TMTstop-A_1_4linestimulus16.png,Images/TMTstop-A_1_4greenlinestimulus16.png,Images/TMTstop-A_1_4redlinestimulus16.png,TMT_A,A4,94,None,2.0,494,1.0,131.2366485595703,131.2366485595703,0.0,,1.0,1.0,0.0,3,0.0637290999875404,131.2366485595703,131.2366485595703,0.0,,18.0
20,['2'],2,Images/TMTstop-A_1_4linestimulus17.png,Images/TMTstop-A_1_4greenlinestimulus17.png,Images/TMTstop-A_1_4redlinestimulus17.png,TMT_A,A4,95,None,2.0,495,1.0,131.37351989746094,131.37351989746094,0.0,,1.0,1.0,0.0,1,2,0.12036940001416951,0.1802033999701962,131.37351989746094,131.37351989746094,0.0,,19.0
21,['1'],1,Images/TMTstop-A_1_4linestimulus18.png,Images/TMTstop-A_1_4greenlinestimulus18.png,Images/TMTstop-A_1_4redlinestimulus18.png,TMT_A,A4,96,None,2.0,496,1.0,131.60888671875,131.60888671875,0.0,,1.0,1.0,0.0,2,1,0.6474778999690898,1.1645063000032678,131.60888671875,131.60888671875,0.0,,20.0
22,['3'],3,Images/TMTstop-A_1_4linestimulus19.png,Images/TMTstop-A_1_4greenlinestimulus19.png,Images/TMTstop-A_1_4redlinestimulus19.png,TMT_A,A4,97,None,2.0,497,1.0,132.8248748779297,132.8248748779297,0.0,,1.0,1.0,0.0,3,0.8367999999900348,132.8248748779297,132.8248748779297,0.0,,21.0
23,['1'],1,Images/TMTstop-A_1_4linestimulus20.png,Images/TMTstop-A_1_4greenlinestimulus20.png,Images/TMTstop-A_1_4redlinestimulus20.png,TMT_A,A4,98,None,2.0,498,1.0,133.71633911132812,133.71633911132812,0.0,,1.0,1.0,0.0,1,0.30605189997004345,133.71633911132812,133.71633911132812,0.0,,22.0
24,['2'],2,Images/TMTstop-A_1_4linestimulus21.png,Images/TMTstop-A_1_4greenlinestimulus21.png,Images/TMTstop-A_1_4redlinestimulus21.png,TMT_A,A4,99,None,2.0,499,1.0,134.09161376953125,134.09161376953125,0.0,,1.0,1.0,0.0,2,0.28697890002513304,134.09161376953125,134.09161376953125,0.0,,23.0
25,['3'],3,Images/TMTstop-A_1_4linestimulus22.png,Images/TMTstop-A_1_4greenlinestimulus22.png,Images/TMTstop-A_1_4redlinestimulus22.png,TMT_A,A4,100,None,2.0,500,1.0,134.4369354248047,134.4369354248047,0.0,,1.0,1.0,0.0,3,0.26169109996408224,134.4369354248047,134.4369354248047,0.0,,24.0
None,None,None,Images/TMTstop-A_1_4linestimulus23.png,Images/TMTstop-A_1_4greenlinestimulus23.png,Images/TMTstop-A_1_4redlinestimulus23.png,TMT_A,A4,Feedback_last,None,2.0,Feedback_last,1.0,134.7615966796875,134.7615966796875,0.0,,1.0,1.0,0.0,,'--',134.7615966796875,134.7615966796875,0.0,,25.0

extraInfo
participant,
session,001
date,2022_Dec_20_1655
expName,TMT_fmri
psychopyVersion,2021.2.3
frameRate,59.88583364190807
