NumberLetter,corrAns,Correct,StimFile,Correct_StimFile,False_StimFile,Version,Paper,TrialNumber_Version,Round,Block,n,Stim_2.started_mean,Stim_2.started_raw,Stim_2.started_std,Stim_2.stopped_raw,key_resp_8.corr_mean,key_resp_8.corr_raw,key_resp_8.corr_std,key_resp_8.keys_raw,key_resp_8.rt_raw,key_resp_8.started_mean,key_resp_8.started_raw,key_resp_8.started_std,key_resp_8.stopped_raw,order
1,['2'],2,TMTstop-control_1_3.png,TMTstop-control_1_3.png,TMTstop-control_1_3.png,TMT_Control,3,51,None,1,1.0,146.40908813476562,146.40908813476562,0.0,,1.0,1.0,0.0,3,2,3.733840599998075,3.810745599999791,146.40908813476562,146.40908813476562,0.0,,0.0
2,['1'],1,TMTstop-control_1_3.png,TMTstop-control_1_3firstgreen.png,TMTstop-control_1_3firstred.png,TMT_Control,3,52,None,1,1.0,150.2716827392578,150.2716827392578,0.0,,1.0,1.0,0.0,1,0.05721449999691686,150.2716827392578,150.2716827392578,0.0,,1.0
3,['2'],2,TMTstop-control_1_3linestimulus0.png,TMTstop-control_1_3greenlinestimulus0.png,TMTstop-control_1_3redlinestimulus0.png,TMT_Control,3,53,None,1,1.0,150.36611938476562,150.36611938476562,0.0,,1.0,1.0,0.0,3,2,0.10165479999704985,0.13099169999622973,150.36611938476562,150.36611938476562,0.0,,2.0
4,['1'],1,TMTstop-control_1_3linestimulus1.png,TMTstop-control_1_3greenlinestimulus1.png,TMTstop-control_1_3redlinestimulus1.png,TMT_Control,3,54,None,1,1.0,150.54844665527344,150.54844665527344,0.0,,1.0,1.0,0.0,1,0.08605720000196015,150.54844665527344,150.54844665527344,0.0,,3.0
5,['3'],3,TMTstop-control_1_3linestimulus2.png,TMTstop-control_1_3greenlinestimulus2.png,TMTstop-control_1_3redlinestimulus2.png,TMT_Control,3,55,None,1,1.0,150.67279052734375,150.67279052734375,0.0,,1.0,1.0,0.0,3,0.08572530000674305,150.67279052734375,150.67279052734375,0.0,,4.0
6,['1'],1,TMTstop-control_1_3linestimulus3.png,TMTstop-control_1_3greenlinestimulus3.png,TMTstop-control_1_3redlinestimulus3.png,TMT_Control,3,56,None,1,1.0,150.7993927001953,150.7993927001953,0.0,,1.0,1.0,0.0,2,1,-0.014019000002008397,0.11932209999940824,150.7993927001953,150.7993927001953,0.0,,5.0
7,['2'],2,TMTstop-control_1_3linestimulus4.png,TMTstop-control_1_3greenlinestimulus4.png,TMTstop-control_1_3redlinestimulus4.png,TMT_Control,3,57,None,1,1.0,150.9767303466797,150.9767303466797,0.0,,1.0,1.0,0.0,3,2,0.0991347000017413,0.12706120000075316,150.9767303466797,150.9767303466797,0.0,,6.0
8,['3'],3,TMTstop-control_1_3linestimulus4.png,TMTstop-control_1_3greenlinestimulus5.png,TMTstop-control_1_3redlinestimulus5.png,TMT_Control,3,58,None,1,1.0,151.15150451660156,151.15150451660156,0.0,,1.0,1.0,0.0,1,3,0.07405149999976857,0.22173840000323253,151.15150451660156,151.15150451660156,0.0,,7.0
9,['1'],1,TMTstop-control_1_3linestimulus6.png,TMTstop-control_1_3greenlinestimulus6.png,TMTstop-control_1_3redlinestimulus6.png,TMT_Control,3,59,None,1,1.0,151.42083740234375,151.42083740234375,0.0,,1.0,1.0,0.0,2,1,-0.016446100002212916,0.10682090000045719,151.42083740234375,151.42083740234375,0.0,,8.0
10,['2'],2,TMTstop-control_1_3linestimulus7.png,TMTstop-control_1_3greenlinestimulus7.png,TMTstop-control_1_3redlinestimulus7.png,TMT_Control,3,60,None,1,1.0,151.56820678710938,151.56820678710938,0.0,,1.0,1.0,0.0,3,2,0.06852339999750257,0.10607850000087637,151.56820678710938,151.56820678710938,0.0,,9.0
11,['1'],1,TMTstop-control_1_3linestimulus8.png,TMTstop-control_1_3greenlinestimulus8.png,TMTstop-control_1_3redlinestimulus8.png,TMT_Control,3,61,None,1,1.0,151.71888732910156,151.71888732910156,0.0,,1.0,1.0,0.0,1,0.08427500000107102,151.71888732910156,151.71888732910156,0.0,,10.0
12,['2'],2,TMTstop-control_1_3linestimulus9.png,TMTstop-control_1_3greenlinestimulus9.png,TMTstop-control_1_3redlinestimulus9.png,TMT_Control,3,62,None,1,1.0,151.8450927734375,151.8450927734375,0.0,,1.0,1.0,0.0,3,2,0.07913480000570416,0.10202399999980116,151.8450927734375,151.8450927734375,0.0,,11.0
13,['3'],3,TMTstop-control_1_3linestimulus10.png,TMTstop-control_1_3greenlinestimulus10.png,TMTstop-control_1_3redlinestimulus10.png,TMT_Control,3,63,None,1,1.0,151.99964904785156,151.99964904785156,0.0,,1.0,1.0,0.0,1,3,0.135566299999482,0.2515237999978126,151.99964904785156,151.99964904785156,0.0,,12.0
14,['2'],2,TMTstop-control_1_3linestimulus11.png,TMTstop-control_1_3greenlinestimulus11.png,TMTstop-control_1_3redlinestimulus11.png,TMT_Control,3,64,None,1,1.0,152.32058715820312,152.32058715820312,0.0,,1.0,1.0,0.0,2,-0.014902100003382657,152.32058715820312,152.32058715820312,0.0,,13.0
15,['1'],1,TMTstop-control_1_3linestimulus12.png,TMTstop-control_1_3greenlinestimulus12.png,TMTstop-control_1_3redlinestimulus12.png,TMT_Control,3,65,None,1,1.0,152.3601837158203,152.3601837158203,0.0,,1.0,1.0,0.0,1,0.08654419999948004,152.3601837158203,152.3601837158203,0.0,,14.0
16,['3'],3,TMTstop-control_1_3linestimulus13.png,TMTstop-control_1_3greenlinestimulus13.png,TMTstop-control_1_3redlinestimulus13.png,TMT_Control,3,66,None,1,1.0,152.49276733398438,152.49276733398438,0.0,,1.0,1.0,0.0,3,0.06509010000445414,152.49276733398438,152.49276733398438,0.0,,15.0
17,['1'],1,TMTstop-control_1_3linestimulus14.png,TMTstop-control_1_3greenlinestimulus14.png,TMTstop-control_1_3redlinestimulus14.png,TMT_Control,3,67,None,1,1.0,152.6016082763672,152.6016082763672,0.0,,1.0,1.0,0.0,2,1,-0.012821399999666028,0.13529380000545643,152.6016082763672,152.6016082763672,0.0,,16.0
18,['3'],3,TMTstop-control_1_3linestimulus15.png,TMTstop-control_1_3greenlinestimulus15.png,TMTstop-control_1_3redlinestimulus15.png,TMT_Control,3,68,None,1,1.0,152.7838134765625,152.7838134765625,0.0,,1.0,1.0,0.0,3,0.06866789999912726,152.7838134765625,152.7838134765625,0.0,,17.0
19,['2'],2,TMTstop-control_1_3linestimulus16.png,TMTstop-control_1_3greenlinestimulus16.png,TMTstop-control_1_3redlinestimulus16.png,TMT_Control,3,69,None,1,1.0,152.8946990966797,152.8946990966797,0.0,,1.0,1.0,0.0,2,-0.0012052999954903498,152.8946990966797,152.8946990966797,0.0,,18.0
20,['1'],1,TMTstop-control_1_3linestimulus17.png,TMTstop-control_1_3greenlinestimulus17.png,TMTstop-control_1_3redlinestimulus17.png,TMT_Control,3,70,None,1,1.0,152.93276977539062,152.93276977539062,0.0,,1.0,1.0,0.0,1,0.10098909999942407,152.93276977539062,152.93276977539062,0.0,,19.0
21,['3'],3,TMTstop-control_1_3linestimulus18.png,TMTstop-control_1_3greenlinestimulus18.png,TMTstop-control_1_3redlinestimulus18.png,TMT_Control,3,71,None,1,1.0,153.0763702392578,153.0763702392578,0.0,,1.0,1.0,0.0,3,0.08325289999629604,153.0763702392578,153.0763702392578,0.0,,20.0
22,['2'],2,TMTstop-control_1_3linestimulus19.png,TMTstop-control_1_3greenlinestimulus19.png,TMTstop-control_1_3redlinestimulus19.png,TMT_Control,3,72,None,1,1.0,153.19805908203125,153.19805908203125,0.0,,1.0,1.0,0.0,2,-0.014888700003211852,153.19805908203125,153.19805908203125,0.0,,21.0
23,['3'],3,TMTstop-control_1_3linestimulus20.png,TMTstop-control_1_3greenlinestimulus20.png,TMTstop-control_1_3redlinestimulus20.png,TMT_Control,3,73,None,1,1.0,153.2359619140625,153.2359619140625,0.0,,1.0,1.0,0.0,1,3,2,1,3,0.10276980000344338,0.2311143000042648,0.2526757000014186,0.4007682000010391,0.5154142000028514,153.2359619140625,153.2359619140625,0.0,,22.0
24,['1'],1,TMTstop-control_1_3linestimulus21.png,TMTstop-control_1_3greenlinestimulus21.png,TMTstop-control_1_3redlinestimulus21.png,TMT_Control,3,74,None,1,1.0,153.81640625,153.81640625,0.0,,1.0,1.0,0.0,2,1,-0.02392110000073444,0.11879720000433736,153.81640625,153.81640625,0.0,,23.0
25,['2'],2,TMTstop-control_1_3linestimulus22.png,TMTstop-control_1_3greenlinestimulus22.png,TMTstop-control_1_3redlinestimulus22.png,TMT_Control,3,75,None,1,1.0,153.99855041503906,153.99855041503906,0.0,,1.0,1.0,0.0,3,2,0.05070010000054026,0.08614460000535473,153.99855041503906,153.99855041503906,0.0,,24.0
None,None,None,TMTstop-control_1_3linestimulus23.png,TMTstop-control_1_3greenlinestimulus23.png,TMTstop-control_1_3redlinestimulus23.png,TMT_Control,3,Feedback_last,None,1,1.0,154.13058471679688,154.13058471679688,0.0,,0.0,0.0,0.0,1,3,2,1,3,2,0.09275220000563422,0.21560000000317814,0.2356694000045536,0.37182559999928344,0.5006400000056601,0.5706676000045263,154.13058471679688,154.13058471679688,0.0,,25.0

extraInfo
participant,
session,001
date,2022_Nov_17_1338
expName,TMT_fmri
psychopyVersion,2021.2.3
frameRate,143.87661141982346
﻿NumberLetter,corrAns,Correct,StimFile,Correct_StimFile,False_StimFile,Version,Paper,TrialNumber_Version,Round,Block,n,Stim_2.started_mean,Stim_2.started_raw,Stim_2.started_std,Stim_2.stopped_raw,key_resp_8.corr_mean,key_resp_8.corr_raw,key_resp_8.corr_std,key_resp_8.keys_raw,key_resp_8.rt_raw,key_resp_8.started_mean,key_resp_8.started_raw,key_resp_8.started_std,key_resp_8.stopped_raw,order
1,['2'],2,TMTstop-control_1_4.png,TMTstop-control_1_4.png,TMTstop-control_1_4.png,TMT_Control,4,76,None,1,1.0,158.25942993164062,158.25942993164062,0.0,,1.0,1.0,0.0,3,2,0.36072759999660775,0.4291425999981584,158.25942993164062,158.25942993164062,0.0,,0.0
2,['1'],1,TMTstop-control_1_4.png,TMTstop-control_1_4firstgreen.png,TMTstop-control_1_4firstred.png,TMT_Control,4,77,None,1,1.0,158.75157165527344,158.75157165527344,0.0,,1.0,1.0,0.0,3,2,1,0.14456950000021607,0.17604059999575838,0.2674750999940443,158.75157165527344,158.75157165527344,0.0,,1.0
3,['3'],3,TMTstop-control_1_4linestimulus0.png,TMTstop-control_1_4greenlinestimulus0.png,TMTstop-control_1_4redlinestimulus0.png,TMT_Control,4,78,None,1,1.0,159.07725524902344,159.07725524902344,0.0,,1.0,1.0,0.0,3,0.05181540000194218,159.07725524902344,159.07725524902344,0.0,,2.0
4,['1'],1,TMTstop-control_1_4linestimulus1.png,TMTstop-control_1_4greenlinestimulus1.png,TMTstop-control_1_4redlinestimulus1.png,TMT_Control,4,79,None,1,1.0,159.17332458496094,159.17332458496094,0.0,,1.0,1.0,0.0,2,1,0.013143500000296626,0.09032409999781521,159.17332458496094,159.17332458496094,0.0,,3.0
5,['3'],3,TMTstop-control_1_4linestimulus2.png,TMTstop-control_1_4greenlinestimulus2.png,TMTstop-control_1_4redlinestimulus2.png,TMT_Control,4,80,None,1,1.0,159.3389892578125,159.3389892578125,0.0,,1.0,1.0,0.0,3,0.038737000002583954,159.3389892578125,159.3389892578125,0.0,,4.0
6,['1'],1,TMTstop-control_1_4linestimulus3.png,TMTstop-control_1_4greenlinestimulus3.png,TMTstop-control_1_4redlinestimulus3.png,TMT_Control,4,81,None,1,1.0,159.41964721679688,159.41964721679688,0.0,,1.0,1.0,0.0,2,1,0.053207999997539446,0.09283549999963725,159.41964721679688,159.41964721679688,0.0,,5.0
7,['3'],3,TMTstop-control_1_4linestimulus4.png,TMTstop-control_1_4greenlinestimulus4.png,TMTstop-control_1_4redlinestimulus4.png,TMT_Control,4,82,None,1,1.0,159.55123901367188,159.55123901367188,0.0,,1.0,1.0,0.0,3,0.08365570000023581,159.55123901367188,159.55123901367188,0.0,,6.0
8,['1'],1,TMTstop-control_1_4linestimulus4.png,TMTstop-control_1_4greenlinestimulus5.png,TMTstop-control_1_4redlinestimulus5.png,TMT_Control,4,83,None,1,1.0,159.6776885986328,159.6776885986328,0.0,,1.0,1.0,0.0,2,1,0.00834440000471659,0.08580739999888465,159.6776885986328,159.6776885986328,0.0,,7.0
9,['3'],3,TMTstop-control_1_4linestimulus6.png,TMTstop-control_1_4greenlinestimulus6.png,TMTstop-control_1_4redlinestimulus6.png,TMT_Control,4,84,None,1,1.0,159.8368682861328,159.8368682861328,0.0,,1.0,1.0,0.0,3,0.05093250000209082,159.8368682861328,159.8368682861328,0.0,,8.0
10,['2'],2,TMTstop-control_1_4linestimulus7.png,TMTstop-control_1_4greenlinestimulus7.png,TMTstop-control_1_4redlinestimulus7.png,TMT_Control,4,85,None,1,1.0,159.93011474609375,159.93011474609375,0.0,,1.0,1.0,0.0,2,-0.006639899998845067,159.93011474609375,159.93011474609375,0.0,,9.0
11,['1'],1,TMTstop-control_1_4linestimulus8.png,TMTstop-control_1_4greenlinestimulus8.png,TMTstop-control_1_4redlinestimulus8.png,TMT_Control,4,86,None,1,1.0,159.96852111816406,159.96852111816406,0.0,,1.0,1.0,0.0,1,0.05811119999998482,159.96852111816406,159.96852111816406,0.0,,10.0
12,['3'],3,TMTstop-control_1_4linestimulus9.png,TMTstop-control_1_4greenlinestimulus9.png,TMTstop-control_1_4redlinestimulus9.png,TMT_Control,4,87,None,1,1.0,160.068115234375,160.068115234375,0.0,,1.0,1.0,0.0,3,0.08526480000000447,160.068115234375,160.068115234375,0.0,,11.0
13,['2'],2,TMTstop-control_1_4linestimulus10.png,TMTstop-control_1_4greenlinestimulus10.png,TMTstop-control_1_4redlinestimulus10.png,TMT_Control,4,88,None,1,1.0,160.195068359375,160.195068359375,0.0,,1.0,1.0,0.0,2,0.014501099998597056,160.195068359375,160.195068359375,0.0,,12.0
14,['3'],3,TMTstop-control_1_4linestimulus11.png,TMTstop-control_1_4greenlinestimulus11.png,TMTstop-control_1_4redlinestimulus11.png,TMT_Control,4,89,None,1,1.0,160.24945068359375,160.24945068359375,0.0,,1.0,1.0,0.0,1,3,0.06671479999931762,0.18075400000088848,160.24945068359375,160.24945068359375,0.0,,13.0
15,['2'],2,TMTstop-control_1_4linestimulus12.png,TMTstop-control_1_4greenlinestimulus12.png,TMTstop-control_1_4redlinestimulus12.png,TMT_Control,4,90,None,1,1.0,160.46725463867188,160.46725463867188,0.0,,1.0,1.0,0.0,2,0.03612799999973504,160.46725463867188,160.46725463867188,0.0,,14.0
16,['1'],1,TMTstop-control_1_4linestimulus13.png,TMTstop-control_1_4greenlinestimulus13.png,TMTstop-control_1_4redlinestimulus13.png,TMT_Control,4,91,None,1,1.0,160.54110717773438,160.54110717773438,0.0,,1.0,1.0,0.0,1,0.050836599999456666,160.54110717773438,160.54110717773438,0.0,,15.0
17,['3'],3,TMTstop-control_1_4linestimulus14.png,TMTstop-control_1_4greenlinestimulus14.png,TMTstop-control_1_4redlinestimulus14.png,TMT_Control,4,92,None,1,1.0,160.63516235351562,160.63516235351562,0.0,,1.0,1.0,0.0,3,0.09384660000068834,160.63516235351562,160.63516235351562,0.0,,16.0
18,['1'],1,TMTstop-control_1_4linestimulus15.png,TMTstop-control_1_4greenlinestimulus15.png,TMTstop-control_1_4redlinestimulus15.png,TMT_Control,4,93,None,1,1.0,160.7713165283203,160.7713165283203,0.0,,1.0,1.0,0.0,2,1,-0.02591690000554081,0.10437509999610484,160.7713165283203,160.7713165283203,0.0,,17.0
19,['2'],2,TMTstop-control_1_4linestimulus16.png,TMTstop-control_1_4greenlinestimulus16.png,TMTstop-control_1_4redlinestimulus16.png,TMT_Control,4,94,None,1,1.0,160.9218292236328,160.9218292236328,0.0,,1.0,1.0,0.0,3,2,0.09070830000564456,0.18689990000711987,160.9218292236328,160.9218292236328,0.0,,18.0
20,['1'],1,TMTstop-control_1_4linestimulus17.png,TMTstop-control_1_4greenlinestimulus17.png,TMTstop-control_1_4redlinestimulus17.png,TMT_Control,4,95,None,1,1.0,161.15721130371094,161.15721130371094,0.0,,1.0,1.0,0.0,1,0.03745820000040112,161.15721130371094,161.15721130371094,0.0,,19.0
21,['2'],2,TMTstop-control_1_4linestimulus18.png,TMTstop-control_1_4greenlinestimulus18.png,TMTstop-control_1_4redlinestimulus18.png,TMT_Control,4,96,None,1,1.0,161.24154663085938,161.24154663085938,0.0,,1.0,1.0,0.0,3,2,0.08077509999566246,0.15906790000008186,161.24154663085938,161.24154663085938,0.0,,20.0
22,['1'],1,TMTstop-control_1_4linestimulus19.png,TMTstop-control_1_4greenlinestimulus19.png,TMTstop-control_1_4redlinestimulus19.png,TMT_Control,4,97,None,1,1.0,161.44061279296875,161.44061279296875,0.0,,1.0,1.0,0.0,1,0.05015370000182884,161.44061279296875,161.44061279296875,0.0,,21.0
23,['2'],2,TMTstop-control_1_4linestimulus20.png,TMTstop-control_1_4greenlinestimulus20.png,TMTstop-control_1_4redlinestimulus20.png,TMT_Control,4,98,None,1,1.0,161.53099060058594,161.53099060058594,0.0,,1.0,1.0,0.0,3,2,0.09607539999706205,0.15689199999906123,161.53099060058594,161.53099060058594,0.0,,22.0
24,['1'],1,TMTstop-control_1_4linestimulus21.png,TMTstop-control_1_4greenlinestimulus21.png,TMTstop-control_1_4redlinestimulus21.png,TMT_Control,4,99,None,1,1.0,161.73715209960938,161.73715209960938,0.0,,1.0,1.0,0.0,1,0.0509509000039543,161.73715209960938,161.73715209960938,0.0,,23.0
25,['2'],2,TMTstop-control_1_4linestimulus22.png,TMTstop-control_1_4greenlinestimulus22.png,TMTstop-control_1_4redlinestimulus22.png,TMT_Control,4,100,None,1,1.0,161.8248748779297,161.8248748779297,0.0,,1.0,1.0,0.0,3,2,0.09835130000283243,0.12455249999766238,161.8248748779297,161.8248748779297,0.0,,24.0
None,None,None,TMTstop-control_1_4linestimulus23.png,TMTstop-control_1_4greenlinestimulus23.png,TMTstop-control_1_4redlinestimulus23.png,TMT_Control,4,Feedback_last,None,1,1.0,162.0044708251953,162.0044708251953,0.0,,0.0,0.0,0.0,1,3,2,1,0.08644959999946877,0.1929556999966735,0.22532520000095246,0.3443362999969395,162.0044708251953,162.0044708251953,0.0,,25.0

extraInfo
participant,
session,001
date,2022_Nov_17_1338
expName,TMT_fmri
psychopyVersion,2021.2.3
frameRate,143.87661141982346
