NumberLetter,corrAns,Correct,StimFile,Correct_StimFile,False_StimFile,Version,Paper,TrialNumber_Version,Round,Block,TrialNumber_total,n,Stim.started_mean,Stim.started_raw,Stim.started_std,Stim.stopped_raw,key_resp_2.corr_mean,key_resp_2.corr_raw,key_resp_2.corr_std,key_resp_2.keys_raw,key_resp_2.rt_raw,key_resp_2.started_mean,key_resp_2.started_raw,key_resp_2.started_std,key_resp_2.stopped_raw,order
1,['3'],3,Images/TMTstop-control_1_5.png,Images/TMTstop-control_1_5.png,Images/TMTstop-control_1_5.png,TMT_Control,C5,101,3.0,3.0,101,1.0,185.08314514160156,185.08314514160156,0.0,,1.0,1.0,0.0,2,3,5.694624700001441,5.7002076000208035,185.08314514160156,185.08314514160156,0.0,,0.0
2,['2'],2,Images/TMTstop-control_1_5.png,Images/TMTstop-control_1_5firstgreen.png,Images/TMTstop-control_1_5firstred.png,TMT_Control,C5,102,None,3.0,102,1.0,190.86399841308594,190.86399841308594,0.0,,1.0,1.0,0.0,1,2,0.22469170001568273,0.22554720001062378,190.86399841308594,190.86399841308594,0.0,,1.0
3,['1'],1,Images/TMTstop-control_1_5linestimulus0.png,Images/TMTstop-control_1_5greenlinestimulus0.png,Images/TMTstop-control_1_5redlinestimulus0.png,TMT_Control,C5,103,None,3.0,103,1.0,191.15594482421875,191.15594482421875,0.0,,1.0,1.0,0.0,3,2,1,0.11239150003530085,0.1536947000422515,0.2947995000286028,191.15594482421875,191.15594482421875,0.0,,2.0
4,['3'],3,Images/TMTstop-control_1_5linestimulus1.png,Images/TMTstop-control_1_5greenlinestimulus1.png,Images/TMTstop-control_1_5redlinestimulus1.png,TMT_Control,C5,104,None,3.0,104,1.0,191.54202270507812,191.54202270507812,0.0,,1.0,1.0,0.0,3,0.06327030004467815,191.54202270507812,191.54202270507812,0.0,,3.0
5,['1'],1,Images/TMTstop-control_1_5linestimulus2.png,Images/TMTstop-control_1_5greenlinestimulus2.png,Images/TMTstop-control_1_5redlinestimulus2.png,TMT_Control,C5,105,None,3.0,105,1.0,191.65879821777344,191.65879821777344,0.0,,1.0,1.0,0.0,2,1,0.03277630003867671,0.13992400001734495,191.65879821777344,191.65879821777344,0.0,,4.0
6,['2'],2,Images/TMTstop-control_1_5linestimulus3.png,Images/TMTstop-control_1_5greenlinestimulus3.png,Images/TMTstop-control_1_5redlinestimulus3.png,TMT_Control,C5,106,None,3.0,106,1.0,191.88299560546875,191.88299560546875,0.0,,1.0,1.0,0.0,3,2,0.04656250000698492,0.10960710002109408,191.88299560546875,191.88299560546875,0.0,,5.0
7,['3'],3,Images/TMTstop-control_1_5linestimulus4.png,Images/TMTstop-control_1_5greenlinestimulus4.png,Images/TMTstop-control_1_5redlinestimulus4.png,TMT_Control,C5,107,None,3.0,107,1.0,192.07337951660156,192.07337951660156,0.0,,1.0,1.0,0.0,1,3,0.08779910003067926,0.23620169999776408,192.07337951660156,192.07337951660156,0.0,,6.0
8,['2'],2,Images/TMTstop-control_1_5linestimulus4.png,Images/TMTstop-control_1_5greenlinestimulus5.png,Images/TMTstop-control_1_5redlinestimulus5.png,TMT_Control,C5,108,None,3.0,108,1.0,192.38555908203125,192.38555908203125,0.0,,1.0,1.0,0.0,2,-0.011994100001174957,192.38555908203125,192.38555908203125,0.0,,7.0
9,['1'],1,Images/TMTstop-control_1_5linestimulus6.png,Images/TMTstop-control_1_5greenlinestimulus6.png,Images/TMTstop-control_1_5redlinestimulus6.png,TMT_Control,C5,109,None,3.0,109,1.0,192.43576049804688,192.43576049804688,0.0,,1.0,1.0,0.0,1,0.08079899998847395,192.43576049804688,192.43576049804688,0.0,,8.0
10,['2'],2,Images/TMTstop-control_1_5linestimulus7.png,Images/TMTstop-control_1_5greenlinestimulus7.png,Images/TMTstop-control_1_5redlinestimulus7.png,TMT_Control,C5,110,None,3.0,110,1.0,192.56927490234375,192.56927490234375,0.0,,1.0,1.0,0.0,3,2,0.12833199999295175,0.20244660001480952,192.56927490234375,192.56927490234375,0.0,,9.0
11,['1'],1,Images/TMTstop-control_1_5linestimulus8.png,Images/TMTstop-control_1_5greenlinestimulus8.png,Images/TMTstop-control_1_5redlinestimulus8.png,TMT_Control,C5,111,None,3.0,111,1.0,192.8433837890625,192.8433837890625,0.0,,1.0,1.0,0.0,1,0.034649399982299656,192.8433837890625,192.8433837890625,0.0,,10.0
12,['3'],3,Images/TMTstop-control_1_5linestimulus9.png,Images/TMTstop-control_1_5greenlinestimulus9.png,Images/TMTstop-control_1_5redlinestimulus9.png,TMT_Control,C5,112,None,3.0,112,1.0,192.9266815185547,192.9266815185547,0.0,,1.0,1.0,0.0,3,0.09192510001594201,192.9266815185547,192.9266815185547,0.0,,11.0
13,['2'],2,Images/TMTstop-control_1_5linestimulus10.png,Images/TMTstop-control_1_5greenlinestimulus10.png,Images/TMTstop-control_1_5redlinestimulus10.png,TMT_Control,C5,113,None,3.0,113,1.0,193.0773162841797,193.0773162841797,0.0,,1.0,1.0,0.0,2,-0.023646799963898957,193.0773162841797,193.0773162841797,0.0,,12.0
14,['3'],3,Images/TMTstop-control_1_5linestimulus11.png,Images/TMTstop-control_1_5greenlinestimulus11.png,Images/TMTstop-control_1_5redlinestimulus11.png,TMT_Control,C5,114,None,3.0,114,1.0,193.12747192382812,193.12747192382812,0.0,,1.0,1.0,0.0,1,3,0.21432799997273833,0.4293160999659449,193.12747192382812,193.12747192382812,0.0,,13.0
15,['1'],1,Images/TMTstop-control_1_5linestimulus12.png,Images/TMTstop-control_1_5greenlinestimulus12.png,Images/TMTstop-control_1_5redlinestimulus12.png,TMT_Control,C5,115,None,3.0,115,1.0,193.6411895751953,193.6411895751953,0.0,,1.0,1.0,0.0,2,1,-0.030767999996896833,0.15120500000193715,193.6411895751953,193.6411895751953,0.0,,14.0
16,['2'],2,Images/TMTstop-control_1_5linestimulus13.png,Images/TMTstop-control_1_5greenlinestimulus13.png,Images/TMTstop-control_1_5redlinestimulus13.png,TMT_Control,C5,116,None,3.0,116,1.0,193.84153747558594,193.84153747558594,0.0,,1.0,1.0,0.0,3,2,0.1791598999989219,0.2698017000220716,193.84153747558594,193.84153747558594,0.0,,15.0
17,['3'],3,Images/TMTstop-control_1_5linestimulus14.png,Images/TMTstop-control_1_5greenlinestimulus14.png,Images/TMTstop-control_1_5redlinestimulus14.png,TMT_Control,C5,117,None,3.0,117,1.0,194.1857147216797,194.1857147216797,0.0,,1.0,1.0,0.0,1,3,0.023571399971842766,0.2909302999614738,194.1857147216797,194.1857147216797,0.0,,16.0
18,['1'],1,Images/TMTstop-control_1_5linestimulus15.png,Images/TMTstop-control_1_5greenlinestimulus15.png,Images/TMTstop-control_1_5redlinestimulus15.png,TMT_Control,C5,118,None,3.0,118,1.0,194.55711364746094,194.55711364746094,0.0,,1.0,1.0,0.0,2,1,0.042463699996005744,0.0698465000023134,194.55711364746094,194.55711364746094,0.0,,17.0
19,['2'],2,Images/TMTstop-control_1_5linestimulus16.png,Images/TMTstop-control_1_5greenlinestimulus16.png,Images/TMTstop-control_1_5redlinestimulus16.png,TMT_Control,C5,119,None,3.0,119,1.0,194.69815063476562,194.69815063476562,0.0,,1.0,1.0,0.0,3,2,0.11132919997908175,0.21500629995716736,194.69815063476562,194.69815063476562,0.0,,18.0
20,['1'],1,Images/TMTstop-control_1_5linestimulus17.png,Images/TMTstop-control_1_5greenlinestimulus17.png,Images/TMTstop-control_1_5redlinestimulus17.png,TMT_Control,C5,120,None,3.0,120,1.0,194.97000122070312,194.97000122070312,0.0,,1.0,1.0,0.0,1,-0.008617600018624216,194.97000122070312,194.97000122070312,0.0,,19.0
21,['2'],2,Images/TMTstop-control_1_5linestimulus18.png,Images/TMTstop-control_1_5greenlinestimulus18.png,Images/TMTstop-control_1_5redlinestimulus18.png,TMT_Control,C5,121,None,3.0,121,1.0,195.02745056152344,195.02745056152344,0.0,,1.0,1.0,0.0,2,0.8921306999982335,195.02745056152344,195.02745056152344,0.0,,20.0
22,['1'],1,Images/TMTstop-control_1_5linestimulus19.png,Images/TMTstop-control_1_5greenlinestimulus19.png,Images/TMTstop-control_1_5redlinestimulus19.png,TMT_Control,C5,122,None,3.0,122,1.0,195.98599243164062,195.98599243164062,0.0,,1.0,1.0,0.0,1,0.34255549998488277,195.98599243164062,195.98599243164062,0.0,,21.0
23,['3'],3,Images/TMTstop-control_1_5linestimulus20.png,Images/TMTstop-control_1_5greenlinestimulus20.png,Images/TMTstop-control_1_5redlinestimulus20.png,TMT_Control,C5,123,None,3.0,123,1.0,196.39462280273438,196.39462280273438,0.0,,1.0,1.0,0.0,3,0.2740357000147924,196.39462280273438,196.39462280273438,0.0,,22.0
24,['1'],1,Images/TMTstop-control_1_5linestimulus21.png,Images/TMTstop-control_1_5greenlinestimulus21.png,Images/TMTstop-control_1_5redlinestimulus21.png,TMT_Control,C5,124,None,3.0,124,1.0,196.73605346679688,196.73605346679688,0.0,,1.0,1.0,0.0,1,0.5405125999823213,196.73605346679688,196.73605346679688,0.0,,23.0
25,['3'],3,Images/TMTstop-control_1_5linestimulus22.png,Images/TMTstop-control_1_5greenlinestimulus22.png,Images/TMTstop-control_1_5redlinestimulus22.png,TMT_Control,C5,125,None,3.0,125,1.0,197.34413146972656,197.34413146972656,0.0,,1.0,1.0,0.0,3,0.4094720999710262,197.34413146972656,197.34413146972656,0.0,,24.0
None,None,None,Images/TMTstop-control_1_5linestimulus23.png,Images/TMTstop-control_1_5greenlinestimulus23.png,Images/TMTstop-control_1_5redlinestimulus23.png,TMT_Control,C5,Feedback_last,None,3.0,Feedback_last,1.0,197.8193817138672,197.8193817138672,0.0,,1.0,1.0,0.0,,'--',197.8193817138672,197.8193817138672,0.0,,25.0

extraInfo
participant,
session,001
date,2022_Dec_20_1551
expName,TMT_fmri
psychopyVersion,2021.2.3
frameRate,59.8764031355123
﻿NumberLetter,corrAns,Correct,StimFile,Correct_StimFile,False_StimFile,Version,Paper,TrialNumber_Version,Round,Block,TrialNumber_total,n,Stim.started_mean,Stim.started_raw,Stim.started_std,Stim.stopped_raw,key_resp_2.corr_mean,key_resp_2.corr_raw,key_resp_2.corr_std,key_resp_2.keys_raw,key_resp_2.rt_raw,key_resp_2.started_mean,key_resp_2.started_raw,key_resp_2.started_std,key_resp_2.stopped_raw,order
1,['3'],3,Images/TMTstop-control_1_6.png,Images/TMTstop-control_1_6.png,Images/TMTstop-control_1_6.png,TMT_Control,C6,126,None,3.0,126,1.0,202.16773986816406,202.16773986816406,0.0,,1.0,1.0,0.0,3,0.36534680001204833,202.16773986816406,202.16773986816406,0.0,,0.0
2,['2'],2,Images/TMTstop-control_1_6.png,Images/TMTstop-control_1_6firstgreen.png,Images/TMTstop-control_1_6firstred.png,TMT_Control,C6,127,None,3.0,127,1.0,202.59263610839844,202.59263610839844,0.0,,1.0,1.0,0.0,2,1,3,2,0.07285569998202845,0.07702419999986887,0.23932509997393936,0.2782073999987915,202.59263610839844,202.59263610839844,0.0,,1.0
3,['1'],1,Images/TMTstop-control_1_6linestimulus0.png,Images/TMTstop-control_1_6greenlinestimulus0.png,Images/TMTstop-control_1_6redlinestimulus0.png,TMT_Control,C6,128,None,3.0,128,1.0,202.9407958984375,202.9407958984375,0.0,,1.0,1.0,0.0,1,0.039870799984782934,202.9407958984375,202.9407958984375,0.0,,2.0
4,['2'],2,Images/TMTstop-control_1_6linestimulus1.png,Images/TMTstop-control_1_6greenlinestimulus1.png,Images/TMTstop-control_1_6redlinestimulus1.png,TMT_Control,C6,129,None,3.0,129,1.0,203.04090881347656,203.04090881347656,0.0,,1.0,1.0,0.0,3,2,0.08280849998118356,0.12016150000272319,203.04090881347656,203.04090881347656,0.0,,3.0
5,['3'],3,Images/TMTstop-control_1_6linestimulus2.png,Images/TMTstop-control_1_6greenlinestimulus2.png,Images/TMTstop-control_1_6redlinestimulus2.png,TMT_Control,C6,130,None,3.0,130,1.0,203.2240447998047,203.2240447998047,0.0,,1.0,1.0,0.0,1,3,2,1,3,0.0566984000033699,0.21568970003863797,0.2516360000008717,0.36988140002358705,0.510133300034795,203.2240447998047,203.2240447998047,0.0,,4.0
6,['2'],2,Images/TMTstop-control_1_6linestimulus3.png,Images/TMTstop-control_1_6greenlinestimulus3.png,Images/TMTstop-control_1_6redlinestimulus3.png,TMT_Control,C6,131,None,3.0,131,1.0,203.78536987304688,203.78536987304688,0.0,,1.0,1.0,0.0,2,-0.020606600039172918,203.78536987304688,203.78536987304688,0.0,,5.0
7,['1'],1,Images/TMTstop-control_1_6linestimulus4.png,Images/TMTstop-control_1_6greenlinestimulus4.png,Images/TMTstop-control_1_6redlinestimulus4.png,TMT_Control,C6,132,None,3.0,132,1.0,203.83538818359375,203.83538818359375,0.0,,1.0,1.0,0.0,1,0.03924479999113828,203.83538818359375,203.83538818359375,0.0,,6.0
8,['3'],3,Images/TMTstop-control_1_6linestimulus4.png,Images/TMTstop-control_1_6greenlinestimulus5.png,Images/TMTstop-control_1_6redlinestimulus5.png,TMT_Control,C6,133,None,3.0,133,1.0,203.94415283203125,203.94415283203125,0.0,,1.0,1.0,0.0,3,0.07642390002729371,203.94415283203125,203.94415283203125,0.0,,7.0
9,['2'],2,Images/TMTstop-control_1_6linestimulus6.png,Images/TMTstop-control_1_6greenlinestimulus6.png,Images/TMTstop-control_1_6redlinestimulus6.png,TMT_Control,C6,134,None,3.0,134,1.0,204.07781982421875,204.07781982421875,0.0,,1.0,1.0,0.0,2,-0.02949439996154979,204.07781982421875,204.07781982421875,0.0,,8.0
10,['1'],1,Images/TMTstop-control_1_6linestimulus7.png,Images/TMTstop-control_1_6greenlinestimulus7.png,Images/TMTstop-control_1_6redlinestimulus7.png,TMT_Control,C6,135,None,3.0,135,1.0,204.13314819335938,204.13314819335938,0.0,,1.0,1.0,0.0,1,0.025558100023772568,204.13314819335938,204.13314819335938,0.0,,9.0
11,['2'],2,Images/TMTstop-control_1_6linestimulus8.png,Images/TMTstop-control_1_6greenlinestimulus8.png,Images/TMTstop-control_1_6redlinestimulus8.png,TMT_Control,C6,136,None,3.0,136,1.0,204.216552734375,204.216552734375,0.0,,1.0,1.0,0.0,3,2,0.08559689996764064,0.1621961999917403,204.216552734375,204.216552734375,0.0,,10.0
12,['3'],3,Images/TMTstop-control_1_6linestimulus9.png,Images/TMTstop-control_1_6greenlinestimulus9.png,Images/TMTstop-control_1_6redlinestimulus9.png,TMT_Control,C6,137,None,3.0,137,1.0,204.4334716796875,204.4334716796875,0.0,,1.0,1.0,0.0,1,3,0.0029941999819129705,0.15709120000246912,204.4334716796875,204.4334716796875,0.0,,11.0
13,['1'],1,Images/TMTstop-control_1_6linestimulus10.png,Images/TMTstop-control_1_6greenlinestimulus10.png,Images/TMTstop-control_1_6redlinestimulus10.png,TMT_Control,C6,138,None,3.0,138,1.0,204.66136169433594,204.66136169433594,0.0,,1.0,1.0,0.0,2,1,-0.02749730000505224,0.059306499955710024,204.66136169433594,204.66136169433594,0.0,,12.0
14,['3'],3,Images/TMTstop-control_1_6linestimulus11.png,Images/TMTstop-control_1_6greenlinestimulus11.png,Images/TMTstop-control_1_6redlinestimulus11.png,TMT_Control,C6,139,None,3.0,139,1.0,204.81170654296875,204.81170654296875,0.0,,1.0,1.0,0.0,3,0.065566300007049,204.81170654296875,204.81170654296875,0.0,,13.0
15,['2'],2,Images/TMTstop-control_1_6linestimulus12.png,Images/TMTstop-control_1_6greenlinestimulus12.png,Images/TMTstop-control_1_6redlinestimulus12.png,TMT_Control,C6,140,None,3.0,140,1.0,204.9285888671875,204.9285888671875,0.0,,1.0,1.0,0.0,2,-0.004539500048849732,204.9285888671875,204.9285888671875,0.0,,14.0
16,['3'],3,Images/TMTstop-control_1_6linestimulus13.png,Images/TMTstop-control_1_6greenlinestimulus13.png,Images/TMTstop-control_1_6redlinestimulus13.png,TMT_Control,C6,141,None,3.0,141,1.0,204.9854278564453,204.9854278564453,0.0,,1.0,1.0,0.0,1,3,0.02827319997595623,0.18693739996524528,204.9854278564453,204.9854278564453,0.0,,15.0
17,['1'],1,Images/TMTstop-control_1_6linestimulus14.png,Images/TMTstop-control_1_6greenlinestimulus14.png,Images/TMTstop-control_1_6redlinestimulus14.png,TMT_Control,C6,142,None,3.0,142,1.0,205.22512817382812,205.22512817382812,0.0,,1.0,1.0,0.0,2,1,-0.012822299962863326,0.06439410004531965,205.22512817382812,205.22512817382812,0.0,,16.0
18,['2'],2,Images/TMTstop-control_1_6linestimulus15.png,Images/TMTstop-control_1_6greenlinestimulus15.png,Images/TMTstop-control_1_6redlinestimulus15.png,TMT_Control,C6,143,None,3.0,143,1.0,205.375244140625,205.375244140625,0.0,,1.0,1.0,0.0,3,2,0.06659709999803454,0.10140760004287586,205.375244140625,205.375244140625,0.0,,17.0
19,['3'],3,Images/TMTstop-control_1_6linestimulus16.png,Images/TMTstop-control_1_6greenlinestimulus16.png,Images/TMTstop-control_1_6redlinestimulus16.png,TMT_Control,C6,144,None,3.0,144,1.0,205.54714965820312,205.54714965820312,0.0,,1.0,1.0,0.0,1,3,2,1,3,0.0396271999925375,0.19556480000028387,0.21661639999365434,0.3223543000058271,0.4973471999983303,205.54714965820312,205.54714965820312,0.0,,18.0
20,['2'],2,Images/TMTstop-control_1_6linestimulus17.png,Images/TMTstop-control_1_6greenlinestimulus17.png,Images/TMTstop-control_1_6redlinestimulus17.png,TMT_Control,C6,145,None,3.0,145,1.0,206.1388702392578,206.1388702392578,0.0,,1.0,1.0,0.0,2,-0.046567599987611175,206.1388702392578,206.1388702392578,0.0,,19.0
21,['1'],1,Images/TMTstop-control_1_6linestimulus18.png,Images/TMTstop-control_1_6greenlinestimulus18.png,Images/TMTstop-control_1_6redlinestimulus18.png,TMT_Control,C6,146,None,3.0,146,1.0,206.19007873535156,206.19007873535156,0.0,,1.0,1.0,0.0,1,0.004545299976598471,206.19007873535156,206.19007873535156,0.0,,20.0
22,['2'],2,Images/TMTstop-control_1_6linestimulus19.png,Images/TMTstop-control_1_6greenlinestimulus19.png,Images/TMTstop-control_1_6redlinestimulus19.png,TMT_Control,C6,147,None,3.0,147,1.0,206.2777862548828,206.2777862548828,0.0,,1.0,1.0,0.0,3,2,0.07805550005286932,0.13785870000720024,206.2777862548828,206.2777862548828,0.0,,21.0
23,['1'],1,Images/TMTstop-control_1_6linestimulus20.png,Images/TMTstop-control_1_6greenlinestimulus20.png,Images/TMTstop-control_1_6redlinestimulus20.png,TMT_Control,C6,148,None,3.0,148,1.0,206.48861694335938,206.48861694335938,0.0,,1.0,1.0,0.0,1,0.016532899986486882,206.48861694335938,206.48861694335938,0.0,,22.0
24,['2'],2,Images/TMTstop-control_1_6linestimulus21.png,Images/TMTstop-control_1_6greenlinestimulus21.png,Images/TMTstop-control_1_6redlinestimulus21.png,TMT_Control,C6,149,None,3.0,149,1.0,206.5611114501953,206.5611114501953,0.0,,1.0,1.0,0.0,3,2,0.1026105000055395,0.14633499999763444,206.5611114501953,206.5611114501953,0.0,,23.0
25,['3'],3,Images/TMTstop-control_1_6linestimulus22.png,Images/TMTstop-control_1_6greenlinestimulus22.png,Images/TMTstop-control_1_6redlinestimulus22.png,TMT_Control,C6,150,None,3.0,150,1.0,206.7722625732422,206.7722625732422,0.0,,1.0,1.0,0.0,1,3,0.026418900000862777,0.5526142000453547,206.7722625732422,206.7722625732422,0.0,,24.0
None,None,None,Images/TMTstop-control_1_6linestimulus23.png,Images/TMTstop-control_1_6greenlinestimulus23.png,Images/TMTstop-control_1_6redlinestimulus23.png,TMT_Control,C6,Feedback_last,None,3.0,Feedback_last,1.0,207.412353515625,207.412353515625,0.0,,1.0,1.0,0.0,,'--',207.412353515625,207.412353515625,0.0,,25.0

extraInfo
participant,
session,001
date,2022_Dec_20_1551
expName,TMT_fmri
psychopyVersion,2021.2.3
frameRate,59.8764031355123
﻿NumberLetter,corrAns,Correct,StimFile,Correct_StimFile,False_StimFile,Version,Paper,TrialNumber_Version,Round,Block,TrialNumber_total,n,Stim.started_mean,Stim.started_raw,Stim.started_std,Stim.stopped_raw,key_resp_2.corr_mean,key_resp_2.corr_raw,key_resp_2.corr_std,key_resp_2.keys_raw,key_resp_2.rt_raw,key_resp_2.started_mean,key_resp_2.started_raw,key_resp_2.started_std,key_resp_2.stopped_raw,order
1,['1'],1,Images/TMTstop-control_1_7.png,Images/TMTstop-control_1_7.png,Images/TMTstop-control_1_7.png,TMT_Control,C7,151,None,3.0,151,1.0,211.7272491455078,211.7272491455078,0.0,,1.0,1.0,0.0,3,2,1,0.28933759999927133,0.4285303999786265,0.44524299999466166,211.7272491455078,211.7272491455078,0.0,,0.0
2,['2'],2,Images/TMTstop-control_1_7.png,Images/TMTstop-control_1_7firstgreen.png,Images/TMTstop-control_1_7firstred.png,TMT_Control,C7,152,None,3.0,152,1.0,212.2393798828125,212.2393798828125,0.0,,1.0,1.0,0.0,3,2,0.10553729999810457,0.13432009995449334,212.2393798828125,212.2393798828125,0.0,,1.0
3,['3'],3,Images/TMTstop-control_1_7linestimulus0.png,Images/TMTstop-control_1_7greenlinestimulus0.png,Images/TMTstop-control_1_7redlinestimulus0.png,TMT_Control,C7,153,None,3.0,153,1.0,212.45635986328125,212.45635986328125,0.0,,1.0,1.0,0.0,1,3,0.0071013999986462295,0.13833980000345036,212.45635986328125,212.45635986328125,0.0,,2.0
4,['2'],2,Images/TMTstop-control_1_7linestimulus1.png,Images/TMTstop-control_1_7greenlinestimulus1.png,Images/TMTstop-control_1_7redlinestimulus1.png,TMT_Control,C7,154,None,3.0,154,1.0,212.64761352539062,212.64761352539062,0.0,,1.0,1.0,0.0,2,-0.015431400039233267,212.64761352539062,212.64761352539062,0.0,,3.0
5,['3'],3,Images/TMTstop-control_1_7linestimulus2.png,Images/TMTstop-control_1_7greenlinestimulus2.png,Images/TMTstop-control_1_7redlinestimulus2.png,TMT_Control,C7,155,None,3.0,155,1.0,212.6975555419922,212.6975555419922,0.0,,1.0,1.0,0.0,1,3,0.02517989999614656,0.1714761999901384,212.6975555419922,212.6975555419922,0.0,,4.0
6,['1'],1,Images/TMTstop-control_1_7linestimulus3.png,Images/TMTstop-control_1_7greenlinestimulus3.png,Images/TMTstop-control_1_7redlinestimulus3.png,TMT_Control,C7,156,None,3.0,156,1.0,212.94796752929688,212.94796752929688,0.0,,1.0,1.0,0.0,2,1,-0.013449000020045787,0.03553279995685443,212.94796752929688,212.94796752929688,0.0,,5.0
7,['3'],3,Images/TMTstop-control_1_7linestimulus4.png,Images/TMTstop-control_1_7greenlinestimulus4.png,Images/TMTstop-control_1_7redlinestimulus4.png,TMT_Control,C7,157,None,3.0,157,1.0,213.0475311279297,213.0475311279297,0.0,,1.0,1.0,0.0,3,0.07692770002176985,213.0475311279297,213.0475311279297,0.0,,6.0
8,['2'],2,Images/TMTstop-control_1_7linestimulus4.png,Images/TMTstop-control_1_7greenlinestimulus5.png,Images/TMTstop-control_1_7redlinestimulus5.png,TMT_Control,C7,158,None,3.0,158,1.0,213.18173217773438,213.18173217773438,0.0,,1.0,1.0,0.0,2,-0.024296500021591783,213.18173217773438,213.18173217773438,0.0,,7.0
9,['3'],3,Images/TMTstop-control_1_7linestimulus6.png,Images/TMTstop-control_1_7greenlinestimulus6.png,Images/TMTstop-control_1_7redlinestimulus6.png,TMT_Control,C7,159,None,3.0,159,1.0,213.2317352294922,213.2317352294922,0.0,,1.0,1.0,0.0,1,3,0.00953410001238808,0.15594359999522567,213.2317352294922,213.2317352294922,0.0,,8.0
10,['2'],2,Images/TMTstop-control_1_7linestimulus7.png,Images/TMTstop-control_1_7greenlinestimulus7.png,Images/TMTstop-control_1_7redlinestimulus7.png,TMT_Control,C7,160,None,3.0,160,1.0,213.46023559570312,213.46023559570312,0.0,,1.0,1.0,0.0,2,-0.02638599998317659,213.46023559570312,213.46023559570312,0.0,,9.0
11,['1'],1,Images/TMTstop-control_1_7linestimulus8.png,Images/TMTstop-control_1_7greenlinestimulus8.png,Images/TMTstop-control_1_7redlinestimulus8.png,TMT_Control,C7,161,None,3.0,161,1.0,213.51040649414062,213.51040649414062,0.0,,1.0,1.0,0.0,1,0.001278800016734749,213.51040649414062,213.51040649414062,0.0,,10.0
12,['2'],2,Images/TMTstop-control_1_7linestimulus9.png,Images/TMTstop-control_1_7greenlinestimulus9.png,Images/TMTstop-control_1_7redlinestimulus9.png,TMT_Control,C7,162,None,3.0,162,1.0,213.55990600585938,213.55990600585938,0.0,,1.0,1.0,0.0,3,2,0.09249549999367446,0.11392520001390949,213.55990600585938,213.55990600585938,0.0,,11.0
13,['3'],3,Images/TMTstop-control_1_7linestimulus10.png,Images/TMTstop-control_1_7greenlinestimulus10.png,Images/TMTstop-control_1_7redlinestimulus10.png,TMT_Control,C7,163,None,3.0,163,1.0,213.76052856445312,213.76052856445312,0.0,,1.0,1.0,0.0,1,3,2,1,3,0.013530800002627075,0.14026559999911115,0.17878389998804778,0.2790640000021085,0.4110664000036195,213.76052856445312,213.76052856445312,0.0,,12.0
14,['1'],1,Images/TMTstop-control_1_7linestimulus11.png,Images/TMTstop-control_1_7greenlinestimulus11.png,Images/TMTstop-control_1_7redlinestimulus11.png,TMT_Control,C7,164,None,3.0,164,1.0,214.2444305419922,214.2444305419922,0.0,,1.0,1.0,0.0,2,1,-0.02456039999378845,0.07643509999616072,214.2444305419922,214.2444305419922,0.0,,13.0
15,['2'],2,Images/TMTstop-control_1_7linestimulus12.png,Images/TMTstop-control_1_7greenlinestimulus12.png,Images/TMTstop-control_1_7redlinestimulus12.png,TMT_Control,C7,165,None,3.0,165,1.0,214.39743041992188,214.39743041992188,0.0,,1.0,1.0,0.0,3,2,0.07307340000988916,0.08372659998713061,214.39743041992188,214.39743041992188,0.0,,14.0
16,['3'],3,Images/TMTstop-control_1_7linestimulus13.png,Images/TMTstop-control_1_7greenlinestimulus13.png,Images/TMTstop-control_1_7redlinestimulus13.png,TMT_Control,C7,166,None,3.0,166,1.0,214.5323028564453,214.5323028564453,0.0,,1.0,1.0,0.0,1,3,2,1,3,2,1,3,2,1,2,3,0.053511700010858476,0.19252169999526814,0.21493169997120276,0.31707699998514727,0.4572539000073448,0.4782234000158496,0.5930499999667518,0.7284776999731548,0.7295156000182033,0.8728315000189468,1.012528499995824,1.083181699970737,214.5323028564453,214.5323028564453,0.0,,15.0
17,['1'],1,Images/TMTstop-control_1_7linestimulus14.png,Images/TMTstop-control_1_7greenlinestimulus14.png,Images/TMTstop-control_1_7redlinestimulus14.png,TMT_Control,C7,167,None,3.0,167,1.0,215.6672821044922,215.6672821044922,0.0,,1.0,1.0,0.0,1,0.04150160000426695,215.6672821044922,215.6672821044922,0.0,,16.0
18,['2'],2,Images/TMTstop-control_1_7linestimulus15.png,Images/TMTstop-control_1_7greenlinestimulus15.png,Images/TMTstop-control_1_7redlinestimulus15.png,TMT_Control,C7,168,None,3.0,168,1.0,215.77488708496094,215.77488708496094,0.0,,1.0,1.0,0.0,2,0.08876159996725619,215.77488708496094,215.77488708496094,0.0,,17.0
19,['3'],3,Images/TMTstop-control_1_7linestimulus16.png,Images/TMTstop-control_1_7greenlinestimulus16.png,Images/TMTstop-control_1_7redlinestimulus16.png,TMT_Control,C7,169,None,3.0,169,1.0,215.92515563964844,215.92515563964844,0.0,,1.0,1.0,0.0,3,-0.023277000000234693,215.92515563964844,215.92515563964844,0.0,,18.0
20,['2'],2,Images/TMTstop-control_1_7linestimulus17.png,Images/TMTstop-control_1_7greenlinestimulus17.png,Images/TMTstop-control_1_7redlinestimulus17.png,TMT_Control,C7,170,None,3.0,170,1.0,215.97499084472656,215.97499084472656,0.0,,1.0,1.0,0.0,1,3,2,0.08874540001852438,0.23576780001167208,0.2828533999854699,215.97499084472656,215.97499084472656,0.0,,19.0
21,['3'],3,Images/TMTstop-control_1_7linestimulus18.png,Images/TMTstop-control_1_7greenlinestimulus18.png,Images/TMTstop-control_1_7redlinestimulus18.png,TMT_Control,C7,171,None,3.0,171,1.0,216.3372344970703,216.3372344970703,0.0,,1.0,1.0,0.0,1,3,0.02435179997701198,0.18554310000035912,216.3372344970703,216.3372344970703,0.0,,20.0
22,['2'],2,Images/TMTstop-control_1_7linestimulus19.png,Images/TMTstop-control_1_7greenlinestimulus19.png,Images/TMTstop-control_1_7redlinestimulus19.png,TMT_Control,C7,172,None,3.0,172,1.0,216.5880889892578,216.5880889892578,0.0,,1.0,1.0,0.0,2,-0.039360900002066046,216.5880889892578,216.5880889892578,0.0,,21.0
23,['3'],3,Images/TMTstop-control_1_7linestimulus20.png,Images/TMTstop-control_1_7greenlinestimulus20.png,Images/TMTstop-control_1_7redlinestimulus20.png,TMT_Control,C7,173,None,3.0,173,1.0,216.63792419433594,216.63792419433594,0.0,,1.0,1.0,0.0,1,3,0.036808300006669015,0.17993410001508892,216.63792419433594,216.63792419433594,0.0,,22.0
24,['2'],2,Images/TMTstop-control_1_7linestimulus21.png,Images/TMTstop-control_1_7greenlinestimulus21.png,Images/TMTstop-control_1_7redlinestimulus21.png,TMT_Control,C7,174,None,3.0,174,1.0,216.88824462890625,216.88824462890625,0.0,,1.0,1.0,0.0,2,-0.021724199992604554,216.88824462890625,216.88824462890625,0.0,,23.0
25,['3'],3,Images/TMTstop-control_1_7linestimulus22.png,Images/TMTstop-control_1_7greenlinestimulus22.png,Images/TMTstop-control_1_7redlinestimulus22.png,TMT_Control,C7,175,None,3.0,175,1.0,216.9382781982422,216.9382781982422,0.0,,1.0,1.0,0.0,1,3,0.03602820000378415,0.17258399998536333,216.9382781982422,216.9382781982422,0.0,,24.0
None,None,None,Images/TMTstop-control_1_7linestimulus23.png,Images/TMTstop-control_1_7greenlinestimulus23.png,Images/TMTstop-control_1_7redlinestimulus23.png,TMT_Control,C7,Feedback_last,None,3.0,Feedback_last,1.0,217.1885528564453,217.1885528564453,0.0,,0.0,0.0,0.0,2,1,-0.04276340000797063,0.07026529998984188,217.1885528564453,217.1885528564453,0.0,,25.0

extraInfo
participant,
session,001
date,2022_Dec_20_1551
expName,TMT_fmri
psychopyVersion,2021.2.3
frameRate,59.8764031355123
﻿NumberLetter,corrAns,Correct,StimFile,Correct_StimFile,False_StimFile,Version,Paper,TrialNumber_Version,Round,Block,TrialNumber_total,n,Stim.started_mean,Stim.started_raw,Stim.started_std,Stim.stopped_raw,key_resp_2.corr_mean,key_resp_2.corr_raw,key_resp_2.corr_std,key_resp_2.keys_raw,key_resp_2.rt_raw,key_resp_2.started_mean,key_resp_2.started_raw,key_resp_2.started_std,key_resp_2.stopped_raw,order
1,['3'],3,Images/TMTstop-control_1_8.png,Images/TMTstop-control_1_8.png,Images/TMTstop-control_1_8.png,TMT_Control,C8,176,None,3.0,176,1.0,221.6025848388672,221.6025848388672,0.0,,1.0,1.0,0.0,3,0.2801399000454694,221.6025848388672,221.6025848388672,0.0,,0.0
2,['2'],2,Images/TMTstop-control_1_8.png,Images/TMTstop-control_1_8firstgreen.png,Images/TMTstop-control_1_8firstred.png,TMT_Control,C8,177,None,3.0,177,1.0,221.94406127929688,221.94406127929688,0.0,,1.0,1.0,0.0,2,0.06424849998438731,221.94406127929688,221.94406127929688,0.0,,1.0
3,['3'],3,Images/TMTstop-control_1_8linestimulus0.png,Images/TMTstop-control_1_8greenlinestimulus0.png,Images/TMTstop-control_1_8redlinestimulus0.png,TMT_Control,C8,178,None,3.0,178,1.0,222.0686798095703,222.0686798095703,0.0,,1.0,1.0,0.0,1,3,2,1,3,-0.04434259998379275,0.11805340001592413,0.14312959997914732,0.2341325000161305,0.363396400003694,222.0686798095703,222.0686798095703,0.0,,2.0
4,['2'],2,Images/TMTstop-control_1_8linestimulus1.png,Images/TMTstop-control_1_8greenlinestimulus1.png,Images/TMTstop-control_1_8redlinestimulus1.png,TMT_Control,C8,179,None,3.0,179,1.0,222.48565673828125,222.48565673828125,0.0,,1.0,1.0,0.0,2,-0.02798299997812137,222.48565673828125,222.48565673828125,0.0,,3.0
5,['1'],1,Images/TMTstop-control_1_8linestimulus2.png,Images/TMTstop-control_1_8greenlinestimulus2.png,Images/TMTstop-control_1_8redlinestimulus2.png,TMT_Control,C8,180,None,3.0,180,1.0,222.53858947753906,222.53858947753906,0.0,,1.0,1.0,0.0,1,0.014200700039509684,222.53858947753906,222.53858947753906,0.0,,4.0
6,['2'],2,Images/TMTstop-control_1_8linestimulus3.png,Images/TMTstop-control_1_8greenlinestimulus3.png,Images/TMTstop-control_1_8redlinestimulus3.png,TMT_Control,C8,181,None,3.0,181,1.0,222.6220245361328,222.6220245361328,0.0,,1.0,1.0,0.0,3,2,0.06218920001992956,0.0797074000001885,222.6220245361328,222.6220245361328,0.0,,5.0
7,['1'],1,Images/TMTstop-control_1_8linestimulus4.png,Images/TMTstop-control_1_8greenlinestimulus4.png,Images/TMTstop-control_1_8redlinestimulus4.png,TMT_Control,C8,182,None,3.0,182,1.0,222.7945098876953,222.7945098876953,0.0,,1.0,1.0,0.0,1,0.004024799971375614,222.7945098876953,222.7945098876953,0.0,,6.0
8,['2'],2,Images/TMTstop-control_1_8linestimulus4.png,Images/TMTstop-control_1_8greenlinestimulus5.png,Images/TMTstop-control_1_8redlinestimulus5.png,TMT_Control,C8,183,None,3.0,183,1.0,222.8666534423828,222.8666534423828,0.0,,1.0,1.0,0.0,3,2,0.06364940002094954,0.1082155000185594,222.8666534423828,222.8666534423828,0.0,,7.0
9,['3'],3,Images/TMTstop-control_1_8linestimulus6.png,Images/TMTstop-control_1_8greenlinestimulus6.png,Images/TMTstop-control_1_8redlinestimulus6.png,TMT_Control,C8,184,None,3.0,184,1.0,223.0595703125,223.0595703125,0.0,,1.0,1.0,0.0,1,3,0.008258099958766252,0.15024449996417388,223.0595703125,223.0595703125,0.0,,8.0
10,['2'],2,Images/TMTstop-control_1_8linestimulus7.png,Images/TMTstop-control_1_8greenlinestimulus7.png,Images/TMTstop-control_1_8redlinestimulus7.png,TMT_Control,C8,185,None,3.0,185,1.0,223.2725067138672,223.2725067138672,0.0,,1.0,1.0,0.0,2,-0.03915590001270175,223.2725067138672,223.2725067138672,0.0,,9.0
11,['1'],1,Images/TMTstop-control_1_8linestimulus8.png,Images/TMTstop-control_1_8greenlinestimulus8.png,Images/TMTstop-control_1_8redlinestimulus8.png,TMT_Control,C8,186,None,3.0,186,1.0,223.3219757080078,223.3219757080078,0.0,,1.0,1.0,0.0,1,-0.0006570999976247549,223.3219757080078,223.3219757080078,0.0,,10.0
12,['3'],3,Images/TMTstop-control_1_8linestimulus9.png,Images/TMTstop-control_1_8greenlinestimulus9.png,Images/TMTstop-control_1_8redlinestimulus9.png,TMT_Control,C8,187,None,3.0,187,1.0,223.37255859375,223.37255859375,0.0,,1.0,1.0,0.0,3,0.10090210003545508,223.37255859375,223.37255859375,0.0,,11.0
13,['1'],1,Images/TMTstop-control_1_8linestimulus10.png,Images/TMTstop-control_1_8greenlinestimulus10.png,Images/TMTstop-control_1_8redlinestimulus10.png,TMT_Control,C8,188,None,3.0,188,1.0,223.52273559570312,223.52273559570312,0.0,,1.0,1.0,0.0,2,1,-0.017879399994853884,0.07107270002597943,223.52273559570312,223.52273559570312,0.0,,12.0
14,['3'],3,Images/TMTstop-control_1_8linestimulus11.png,Images/TMTstop-control_1_8greenlinestimulus11.png,Images/TMTstop-control_1_8redlinestimulus11.png,TMT_Control,C8,189,None,3.0,189,1.0,223.68594360351562,223.68594360351562,0.0,,1.0,1.0,0.0,3,0.05195960000855848,223.68594360351562,223.68594360351562,0.0,,13.0
15,['1'],1,Images/TMTstop-control_1_8linestimulus12.png,Images/TMTstop-control_1_8greenlinestimulus12.png,Images/TMTstop-control_1_8redlinestimulus12.png,TMT_Control,C8,190,None,3.0,190,1.0,223.80307006835938,223.80307006835938,0.0,,1.0,1.0,0.0,2,1,-0.04781630000798032,0.05573019996518269,223.80307006835938,223.80307006835938,0.0,,14.0
16,['3'],3,Images/TMTstop-control_1_8linestimulus13.png,Images/TMTstop-control_1_8greenlinestimulus13.png,Images/TMTstop-control_1_8redlinestimulus13.png,TMT_Control,C8,191,None,3.0,191,1.0,223.91282653808594,223.91282653808594,0.0,,1.0,1.0,0.0,3,0.07414039998548105,223.91282653808594,223.91282653808594,0.0,,15.0
17,['1'],1,Images/TMTstop-control_1_8linestimulus14.png,Images/TMTstop-control_1_8greenlinestimulus14.png,Images/TMTstop-control_1_8redlinestimulus14.png,TMT_Control,C8,192,None,3.0,192,1.0,224.0468292236328,224.0468292236328,0.0,,1.0,1.0,0.0,2,1,-0.02494740003021434,0.0894743999815546,224.0468292236328,224.0468292236328,0.0,,16.0
18,['2'],2,Images/TMTstop-control_1_8linestimulus15.png,Images/TMTstop-control_1_8greenlinestimulus15.png,Images/TMTstop-control_1_8redlinestimulus15.png,TMT_Control,C8,193,None,3.0,193,1.0,224.2078857421875,224.2078857421875,0.0,,1.0,1.0,0.0,3,2,0.06550500000594184,0.08363080001436174,224.2078857421875,224.2078857421875,0.0,,17.0
19,['1'],1,Images/TMTstop-control_1_8linestimulus16.png,Images/TMTstop-control_1_8greenlinestimulus16.png,Images/TMTstop-control_1_8redlinestimulus16.png,TMT_Control,C8,194,None,3.0,194,1.0,224.40159606933594,224.40159606933594,0.0,,1.0,1.0,0.0,1,0.004507600038778037,224.40159606933594,224.40159606933594,0.0,,18.0
20,['3'],3,Images/TMTstop-control_1_8linestimulus17.png,Images/TMTstop-control_1_8greenlinestimulus17.png,Images/TMTstop-control_1_8redlinestimulus17.png,TMT_Control,C8,195,None,3.0,195,1.0,224.4750518798828,224.4750518798828,0.0,,1.0,1.0,0.0,3,0.05775420001009479,224.4750518798828,224.4750518798828,0.0,,19.0
21,['2'],2,Images/TMTstop-control_1_8linestimulus18.png,Images/TMTstop-control_1_8greenlinestimulus18.png,Images/TMTstop-control_1_8redlinestimulus18.png,TMT_Control,C8,196,None,3.0,196,1.0,224.59201049804688,224.59201049804688,0.0,,1.0,1.0,0.0,2,-0.033108500007074326,224.59201049804688,224.59201049804688,0.0,,20.0
22,['3'],3,Images/TMTstop-control_1_8linestimulus19.png,Images/TMTstop-control_1_8greenlinestimulus19.png,Images/TMTstop-control_1_8redlinestimulus19.png,TMT_Control,C8,197,None,3.0,197,1.0,224.64877319335938,224.64877319335938,0.0,,1.0,1.0,0.0,1,3,2,1,3,0.01590200001373887,0.14174540003295988,0.17452110000886023,0.251782400009688,0.37604930001543835,224.64877319335938,224.64877319335938,0.0,,21.0
23,['1'],1,Images/TMTstop-control_1_8linestimulus20.png,Images/TMTstop-control_1_8greenlinestimulus20.png,Images/TMTstop-control_1_8redlinestimulus20.png,TMT_Control,C8,198,None,3.0,198,1.0,225.07989501953125,225.07989501953125,0.0,,1.0,1.0,0.0,2,1,0.0018613000283949077,0.061470900021959096,225.07989501953125,225.07989501953125,0.0,,22.0
24,['2'],2,Images/TMTstop-control_1_8linestimulus21.png,Images/TMTstop-control_1_8greenlinestimulus21.png,Images/TMTstop-control_1_8redlinestimulus21.png,TMT_Control,C8,199,None,3.0,199,1.0,225.21812438964844,225.21812438964844,0.0,,1.0,1.0,0.0,3,2,0.09173169999849051,0.14407270000083372,225.21812438964844,225.21812438964844,0.0,,23.0
25,['3'],3,Images/TMTstop-control_1_8linestimulus22.png,Images/TMTstop-control_1_8greenlinestimulus22.png,Images/TMTstop-control_1_8redlinestimulus22.png,TMT_Control,C8,200,None,3.0,200,1.0,225.42691040039062,225.42691040039062,0.0,,1.0,1.0,0.0,1,3,0.014584099990315735,0.22554969997145236,225.42691040039062,225.42691040039062,0.0,,24.0
None,None,None,Images/TMTstop-control_1_8linestimulus23.png,Images/TMTstop-control_1_8greenlinestimulus23.png,Images/TMTstop-control_1_8redlinestimulus23.png,TMT_Control,C8,Feedback_last,None,3.0,Feedback_last,1.0,225.70628356933594,225.70628356933594,0.0,,0.0,0.0,0.0,2,0.031573900021612644,225.70628356933594,225.70628356933594,0.0,,25.0

extraInfo
participant,
session,001
date,2022_Dec_20_1551
expName,TMT_fmri
psychopyVersion,2021.2.3
frameRate,59.8764031355123
