NumberLetter,corrAns,Correct,StimFile,Correct_StimFile,False_StimFile,Version,Paper,TrialNumber_Version,Round,Block,n,Stim.started_mean,Stim.started_raw,Stim.started_std,Stim.stopped_raw,key_resp_2.corr_mean,key_resp_2.corr_raw,key_resp_2.corr_std,key_resp_2.keys_raw,key_resp_2.rt_raw,key_resp_2.started_mean,key_resp_2.started_raw,key_resp_2.started_std,key_resp_2.stopped_raw,order
1,['1'],1,TMTstop-A_1_1.png,TMTstop-A_1_1.png,TMTstop-A_1_1.png,TMT_A,1,1,1,2,1.0,73.66162872314453,73.66162872314453,0.0,,1.0,1.0,0.0,1,0.9854221999994479,73.66162872314453,73.66162872314453,0.0,,0.0
2,['3'],3,TMTstop-A_1_1.png,TMTstop-A_1_1firstgreen.png,TMTstop-A_1_1firstred.png,TMT_A,1,2,None,2,1.0,74.7040023803711,74.7040023803711,0.0,,1.0,1.0,0.0,3,0.23708590000023833,74.7040023803711,74.7040023803711,0.0,,1.0
3,['1'],1,TMTstop-A_1_1linestimulus0.png,TMTstop-A_1_1greenlinestimulus0.png,TMTstop-A_1_1redlinestimulus0.png,TMT_A,1,3,None,2,1.0,75.0118408203125,75.0118408203125,0.0,,1.0,1.0,0.0,1,0.10843670000031125,75.0118408203125,75.0118408203125,0.0,,2.0
4,['3'],3,TMTstop-A_1_1linestimulus1.png,TMTstop-A_1_1greenlinestimulus1.png,TMTstop-A_1_1redlinestimulus1.png,TMT_A,1,4,None,2,1.0,75.1866683959961,75.1866683959961,0.0,,1.0,1.0,0.0,2,3,0.027294500003335997,0.18395260000397684,75.1866683959961,75.1866683959961,0.0,,3.0
5,['1'],1,TMTstop-A_1_1linestimulus2.png,TMTstop-A_1_1greenlinestimulus2.png,TMTstop-A_1_1redlinestimulus2.png,TMT_A,1,5,None,2,1.0,75.43338012695312,75.43338012695312,0.0,,1.0,1.0,0.0,1,0.9590967999974964,75.43338012695312,75.43338012695312,0.0,,4.0
6,['3'],3,TMTstop-A_1_1linestimulus3.png,TMTstop-A_1_1greenlinestimulus3.png,TMTstop-A_1_1redlinestimulus3.png,TMT_A,1,6,None,2,1.0,76.46073913574219,76.46073913574219,0.0,,1.0,1.0,0.0,2,3,0.031101200002012774,0.14557980000245152,76.46073913574219,76.46073913574219,0.0,,5.0
7,['1'],1,TMTstop-A_1_1linestimulus4.png,TMTstop-A_1_1greenlinestimulus4.png,TMTstop-A_1_1redlinestimulus4.png,TMT_A,1,7,None,2,1.0,76.70720672607422,76.70720672607422,0.0,,1.0,1.0,0.0,1,0.061765600003127474,76.70720672607422,76.70720672607422,0.0,,6.0
8,['2'],2,TMTstop-A_1_1linestimulus5.png,TMTstop-A_1_1greenlinestimulus5.png,TMTstop-A_1_1redlinestimulus5.png,TMT_A,1,8,None,2,1.0,76.824462890625,76.824462890625,0.0,,1.0,1.0,0.0,2,-0.014382800000021234,76.824462890625,76.824462890625,0.0,,7.0
9,['3'],3,TMTstop-A_1_1linestimulus6.png,TMTstop-A_1_1greenlinestimulus6.png,TMTstop-A_1_1redlinestimulus6.png,TMT_A,1,9,None,2,1.0,76.88142395019531,76.88142395019531,0.0,,1.0,1.0,0.0,3,0.06426530000317143,76.88142395019531,76.88142395019531,0.0,,8.0
10,['1'],1,TMTstop-A_1_1linestimulus7.png,TMTstop-A_1_1greenlinestimulus7.png,TMTstop-A_1_1redlinestimulus7.png,TMT_A,1,10,None,2,1.0,76.99817657470703,76.99817657470703,0.0,,1.0,1.0,0.0,1,0.09109059999900637,76.99817657470703,76.99817657470703,0.0,,9.0
11,['3'],3,TMTstop-A_1_1linestimulus8.png,TMTstop-A_1_1greenlinestimulus8.png,TMTstop-A_1_1redlinestimulus8.png,TMT_A,1,11,None,2,1.0,77.14781951904297,77.14781951904297,0.0,,1.0,1.0,0.0,2,3,-0.007675600005313754,0.11334669999632752,77.14781951904297,77.14781951904297,0.0,,10.0
12,['2'],2,TMTstop-A_1_1linestimulus9.png,TMTstop-A_1_1greenlinestimulus9.png,TMTstop-A_1_1redlinestimulus9.png,TMT_A,1,12,None,2,1.0,77.36066436767578,77.36066436767578,0.0,,1.0,1.0,0.0,1,2,0.04709200000070268,0.10625839999556774,77.36066436767578,77.36066436767578,0.0,,11.0
13,['1'],1,TMTstop-A_1_1linestimulus10.png,TMTstop-A_1_1greenlinestimulus10.png,TMTstop-A_1_1redlinestimulus10.png,TMT_A,1,13,None,2,1.0,77.56092071533203,77.56092071533203,0.0,,1.0,1.0,0.0,3,1,0.02666519999911543,0.1877424999984214,77.56092071533203,77.56092071533203,0.0,,12.0
14,['2'],2,TMTstop-A_1_1linestimulus11.png,TMTstop-A_1_1greenlinestimulus11.png,TMTstop-A_1_1redlinestimulus11.png,TMT_A,1,14,None,2,1.0,77.8110122680664,77.8110122680664,0.0,,1.0,1.0,0.0,2,-0.02227189999393886,77.8110122680664,77.8110122680664,0.0,,13.0
15,['1'],1,TMTstop-A_1_1linestimulus12.png,TMTstop-A_1_1greenlinestimulus12.png,TMTstop-A_1_1redlinestimulus12.png,TMT_A,1,15,None,2,1.0,77.86123657226562,77.86123657226562,0.0,,1.0,1.0,0.0,3,1,0.0697063999978127,0.2205277999964892,77.86123657226562,77.86123657226562,0.0,,14.0
16,['2'],2,TMTstop-A_1_1linestimulus13.png,TMTstop-A_1_1greenlinestimulus13.png,TMTstop-A_1_1redlinestimulus13.png,TMT_A,1,16,None,2,1.0,78.15573120117188,78.15573120117188,0.0,,1.0,1.0,0.0,2,-0.009190600001602434,78.15573120117188,78.15573120117188,0.0,,15.0
17,['1'],1,TMTstop-A_1_1linestimulus14.png,TMTstop-A_1_1greenlinestimulus14.png,TMTstop-A_1_1redlinestimulus14.png,TMT_A,1,17,None,2,1.0,78.20572662353516,78.20572662353516,0.0,,1.0,1.0,0.0,3,1,0.04518890000326792,0.19501570000284119,78.20572662353516,78.20572662353516,0.0,,16.0
18,['3'],3,TMTstop-A_1_1linestimulus15.png,TMTstop-A_1_1greenlinestimulus15.png,TMTstop-A_1_1redlinestimulus15.png,TMT_A,1,18,None,2,1.0,78.45613098144531,78.45613098144531,0.0,,1.0,1.0,0.0,2,3,0.01795480000146199,0.14616220000607427,78.45613098144531,78.45613098144531,0.0,,17.0
19,['2'],2,TMTstop-A_1_1linestimulus16.png,TMTstop-A_1_1greenlinestimulus16.png,TMTstop-A_1_1redlinestimulus16.png,TMT_A,1,19,None,2,1.0,78.67951202392578,78.67951202392578,0.0,,1.0,1.0,0.0,1,2,0.07083979999879375,0.12014620000263676,78.67951202392578,78.67951202392578,0.0,,18.0
20,['3'],3,TMTstop-A_1_1linestimulus17.png,TMTstop-A_1_1greenlinestimulus17.png,TMTstop-A_1_1redlinestimulus17.png,TMT_A,1,20,None,2,1.0,78.86308288574219,78.86308288574219,0.0,,1.0,1.0,0.0,3,0.0847769000029075,78.86308288574219,78.86308288574219,0.0,,19.0
21,['1'],1,TMTstop-A_1_1linestimulus18.png,TMTstop-A_1_1greenlinestimulus18.png,TMTstop-A_1_1redlinestimulus18.png,TMT_A,1,21,None,2,1.0,78.99655151367188,78.99655151367188,0.0,,1.0,1.0,0.0,1,0.0817691999982344,78.99655151367188,78.99655151367188,0.0,,20.0
22,['3'],3,TMTstop-A_1_1linestimulus19.png,TMTstop-A_1_1greenlinestimulus19.png,TMTstop-A_1_1redlinestimulus19.png,TMT_A,1,22,None,2,1.0,79.13790893554688,79.13790893554688,0.0,,1.0,1.0,0.0,2,3,-0.0004562999965855852,0.13442200000281446,79.13790893554688,79.13790893554688,0.0,,21.0
23,['1'],1,TMTstop-A_1_1linestimulus20.png,TMTstop-A_1_1greenlinestimulus20.png,TMTstop-A_1_1redlinestimulus20.png,TMT_A,1,23,None,2,1.0,79.35079193115234,79.35079193115234,0.0,,1.0,1.0,0.0,1,0.08123650000197813,79.35079193115234,79.35079193115234,0.0,,22.0
24,['3'],3,TMTstop-A_1_1linestimulus21.png,TMTstop-A_1_1greenlinestimulus21.png,TMTstop-A_1_1redlinestimulus21.png,TMT_A,1,24,None,2,1.0,79.48464965820312,79.48464965820312,0.0,,1.0,1.0,0.0,2,3,-0.009549499998684041,0.14056669999990845,79.48464965820312,79.48464965820312,0.0,,23.0
25,['1'],1,TMTstop-A_1_1linestimulus22.png,TMTstop-A_1_1greenlinestimulus22.png,TMTstop-A_1_1redlinestimulus22.png,TMT_A,1,25,None,2,1.0,79.69644165039062,79.69644165039062,0.0,,1.0,1.0,0.0,1,0.0689903000020422,79.69644165039062,79.69644165039062,0.0,,24.0
None,None,None,TMTstop-A_1_1linestimulus23.png,TMTstop-A_1_1greenlinestimulus23.png,TMTstop-A_1_1redlinestimulus23.png,TMT_A,1,Feedback_last,None,2,1.0,79.82951354980469,79.82951354980469,0.0,,0.0,0.0,0.0,2,3,1,2,3,1,2,-0.01801770000020042,0.12098369999876013,0.273878700005298,0.31540469999890774,0.4838302999996813,0.6385092999989865,0.6959770000030403,79.82951354980469,79.82951354980469,0.0,,25.0

extraInfo
participant,
session,001
date,2022_May_23_1222
expName,TMT_fmri
psychopyVersion,2021.2.3
frameRate,59.98821831237917
﻿NumberLetter,corrAns,Correct,StimFile,Correct_StimFile,False_StimFile,Version,Paper,TrialNumber_Version,Round,Block,n,Stim.started_mean,Stim.started_raw,Stim.started_std,Stim.stopped_raw,key_resp_2.corr_mean,key_resp_2.corr_raw,key_resp_2.corr_std,key_resp_2.keys_raw,key_resp_2.rt_raw,key_resp_2.started_mean,key_resp_2.started_raw,key_resp_2.started_std,key_resp_2.stopped_raw,order
1,['1'],1,TMTstop-A_1_2.png,TMTstop-A_1_2.png,TMTstop-A_1_2.png,TMT_A,2,26,None,2,1.0,83.9922103881836,83.9922103881836,0.0,,1.0,1.0,0.0,1,5.632891900000686,83.9922103881836,83.9922103881836,0.0,,0.0
2,['3'],3,TMTstop-A_1_2.png,TMTstop-A_1_2firstgreen.png,TMTstop-A_1_2firstred.png,TMT_A,2,27,None,2,1.0,89.68998718261719,89.68998718261719,0.0,,1.0,1.0,0.0,2,3,0.10122820000106003,0.1808493999997154,89.68998718261719,89.68998718261719,0.0,,1.0
3,['1'],1,TMTstop-A_1_2linestimulus0.png,TMTstop-A_1_2greenlinestimulus0.png,TMTstop-A_1_2redlinestimulus0.png,TMT_A,2,28,None,2,1.0,89.9298095703125,89.9298095703125,0.0,,1.0,1.0,0.0,1,0.17469019999407465,89.9298095703125,89.9298095703125,0.0,,2.0
4,['2'],2,TMTstop-A_1_2linestimulus1.png,TMTstop-A_1_2greenlinestimulus1.png,TMTstop-A_1_2redlinestimulus1.png,TMT_A,2,29,None,2,1.0,90.17121124267578,90.17121124267578,0.0,,1.0,1.0,0.0,2,0.006613500001549255,90.17121124267578,90.17121124267578,0.0,,3.0
5,['1'],1,TMTstop-A_1_2linestimulus2.png,TMTstop-A_1_2greenlinestimulus2.png,TMTstop-A_1_2redlinestimulus2.png,TMT_A,2,30,None,2,1.0,90.23786926269531,90.23786926269531,0.0,,1.0,1.0,0.0,3,1,2,3,1,0.07027519999974174,0.25255769999785116,0.28783760000078473,0.4265783000009833,0.5956701999966754,90.23786926269531,90.23786926269531,0.0,,4.0
6,['3'],3,TMTstop-A_1_2linestimulus3.png,TMTstop-A_1_2greenlinestimulus3.png,TMTstop-A_1_2redlinestimulus3.png,TMT_A,2,31,None,2,1.0,90.89119720458984,90.89119720458984,0.0,,1.0,1.0,0.0,2,3,-0.0301952000008896,0.1065290999977151,90.89119720458984,90.89119720458984,0.0,,5.0
7,['2'],2,TMTstop-A_1_2linestimulus4.png,TMTstop-A_1_2greenlinestimulus4.png,TMTstop-A_1_2redlinestimulus4.png,TMT_A,2,32,None,2,1.0,91.0934829711914,91.0934829711914,0.0,,1.0,1.0,0.0,1,2,0.0757242000036058,0.10768839999946067,91.0934829711914,91.0934829711914,0.0,,6.0
8,['1'],1,TMTstop-A_1_2linestimulus5.png,TMTstop-A_1_2greenlinestimulus5.png,TMTstop-A_1_2redlinestimulus5.png,TMT_A,2,33,None,2,1.0,91.27751159667969,91.27751159667969,0.0,,1.0,1.0,0.0,3,1,0.05442800000309944,0.2244420999995782,91.27751159667969,91.27751159667969,0.0,,7.0
9,['3'],3,TMTstop-A_1_2linestimulus6.png,TMTstop-A_1_2greenlinestimulus6.png,TMTstop-A_1_2redlinestimulus6.png,TMT_A,2,34,None,2,1.0,91.58955383300781,91.58955383300781,0.0,,1.0,1.0,0.0,2,3,-0.01797719999740366,0.12045840000064345,91.58955383300781,91.58955383300781,0.0,,8.0
10,['2'],2,TMTstop-A_1_2linestimulus7.png,TMTstop-A_1_2greenlinestimulus7.png,TMTstop-A_1_2redlinestimulus7.png,TMT_A,2,35,None,2,1.0,91.78995513916016,91.78995513916016,0.0,,1.0,1.0,0.0,1,2,0.09143210000183899,0.12911570000142092,91.78995513916016,91.78995513916016,0.0,,9.0
11,['1'],1,TMTstop-A_1_2linestimulus8.png,TMTstop-A_1_2greenlinestimulus8.png,TMTstop-A_1_2redlinestimulus8.png,TMT_A,2,36,None,2,1.0,91.99027252197266,91.99027252197266,0.0,,1.0,1.0,0.0,3,1,0.08540389999689069,0.24904989999777172,91.99027252197266,91.99027252197266,0.0,,10.0
12,['2'],2,TMTstop-A_1_2linestimulus9.png,TMTstop-A_1_2greenlinestimulus9.png,TMTstop-A_1_2redlinestimulus9.png,TMT_A,2,37,None,2,1.0,92.30296325683594,92.30296325683594,0.0,,1.0,1.0,0.0,2,-0.027151800000865478,92.30296325683594,92.30296325683594,0.0,,11.0
13,['1'],1,TMTstop-A_1_2linestimulus10.png,TMTstop-A_1_2greenlinestimulus10.png,TMTstop-A_1_2redlinestimulus10.png,TMT_A,2,38,None,2,1.0,92.35315704345703,92.35315704345703,0.0,,1.0,1.0,0.0,3,1,0.05126750000636093,3.5987700000041514,92.35315704345703,92.35315704345703,0.0,,12.0
14,['3'],3,TMTstop-A_1_2linestimulus11.png,TMTstop-A_1_2greenlinestimulus11.png,TMTstop-A_1_2redlinestimulus11.png,TMT_A,2,39,None,2,1.0,96.03302001953125,96.03302001953125,0.0,,1.0,1.0,0.0,2,3,-0.038724999998521525,0.10164020000229357,96.03302001953125,96.03302001953125,0.0,,13.0
15,['1'],1,TMTstop-A_1_2linestimulus12.png,TMTstop-A_1_2greenlinestimulus12.png,TMTstop-A_1_2redlinestimulus12.png,TMT_A,2,40,None,2,1.0,96.18682098388672,96.18682098388672,0.0,,1.0,1.0,0.0,1,0.07100160000118194,96.18682098388672,96.18682098388672,0.0,,14.0
16,['3'],3,TMTstop-A_1_2linestimulus13.png,TMTstop-A_1_2greenlinestimulus13.png,TMTstop-A_1_2redlinestimulus13.png,TMT_A,2,41,None,2,1.0,96.32559967041016,96.32559967041016,0.0,,1.0,1.0,0.0,2,3,-0.035149000003002584,0.1062579999997979,96.32559967041016,96.32559967041016,0.0,,15.0
17,['1'],1,TMTstop-A_1_2linestimulus14.png,TMTstop-A_1_2greenlinestimulus14.png,TMTstop-A_1_2redlinestimulus14.png,TMT_A,2,42,None,2,1.0,96.48260498046875,96.48260498046875,0.0,,1.0,1.0,0.0,1,0.0700416999970912,96.48260498046875,96.48260498046875,0.0,,16.0
18,['2'],2,TMTstop-A_1_2linestimulus15.png,TMTstop-A_1_2greenlinestimulus15.png,TMTstop-A_1_2redlinestimulus15.png,TMT_A,2,43,None,2,1.0,96.61624145507812,96.61624145507812,0.0,,1.0,1.0,0.0,2,-0.024174300000595395,96.61624145507812,96.61624145507812,0.0,,17.0
19,['1'],1,TMTstop-A_1_2linestimulus16.png,TMTstop-A_1_2greenlinestimulus16.png,TMTstop-A_1_2redlinestimulus16.png,TMT_A,2,44,None,2,1.0,96.67259979248047,96.67259979248047,0.0,,1.0,1.0,0.0,3,1,0.059505200006242376,0.17554540000128327,96.67259979248047,96.67259979248047,0.0,,18.0
20,['2'],2,TMTstop-A_1_2linestimulus17.png,TMTstop-A_1_2greenlinestimulus17.png,TMTstop-A_1_2redlinestimulus17.png,TMT_A,2,45,None,2,1.0,96.91238403320312,96.91238403320312,0.0,,1.0,1.0,0.0,2,-0.03547740000067279,96.91238403320312,96.91238403320312,0.0,,19.0
21,['3'],3,TMTstop-A_1_2linestimulus18.png,TMTstop-A_1_2greenlinestimulus18.png,TMTstop-A_1_2redlinestimulus18.png,TMT_A,2,46,None,2,1.0,96.96228790283203,96.96228790283203,0.0,,1.0,1.0,0.0,3,0.079334200003359,96.96228790283203,96.96228790283203,0.0,,20.0
22,['2'],2,TMTstop-A_1_2linestimulus19.png,TMTstop-A_1_2greenlinestimulus19.png,TMTstop-A_1_2redlinestimulus19.png,TMT_A,2,47,None,2,1.0,97.09596252441406,97.09596252441406,0.0,,1.0,1.0,0.0,1,2,0.07329129999561701,0.1295555999968201,97.09596252441406,97.09596252441406,0.0,,21.0
23,['3'],3,TMTstop-A_1_2linestimulus20.png,TMTstop-A_1_2greenlinestimulus20.png,TMTstop-A_1_2redlinestimulus20.png,TMT_A,2,48,None,2,1.0,97.27947235107422,97.27947235107422,0.0,,1.0,1.0,0.0,3,0.12901620000047842,97.27947235107422,97.27947235107422,0.0,,22.0
24,['2'],2,TMTstop-A_1_2linestimulus21.png,TMTstop-A_1_2greenlinestimulus21.png,TMTstop-A_1_2redlinestimulus21.png,TMT_A,2,49,None,2,1.0,97.47083282470703,97.47083282470703,0.0,,1.0,1.0,0.0,1,2,0.0715353999985382,0.10300629999983357,97.47083282470703,97.47083282470703,0.0,,23.0
25,['3'],3,TMTstop-A_1_2linestimulus22.png,TMTstop-A_1_2greenlinestimulus22.png,TMTstop-A_1_2redlinestimulus22.png,TMT_A,2,50,None,2,1.0,97.6622314453125,97.6622314453125,0.0,,1.0,1.0,0.0,3,0.14589840000553522,97.6622314453125,97.6622314453125,0.0,,24.0
None,None,None,TMTstop-A_1_2linestimulus23.png,TMTstop-A_1_2greenlinestimulus23.png,TMTstop-A_1_2redlinestimulus23.png,TMT_A,2,Feedback_last,None,2,1.0,97.87018585205078,97.87018585205078,0.0,,0.0,0.0,0.0,1,2,3,2,3,0.0710592999967048,0.10616440000012517,0.3343631000025198,0.5861729999960517,0.6233389999979408,97.87018585205078,97.87018585205078,0.0,,25.0

extraInfo
participant,
session,001
date,2022_May_23_1222
expName,TMT_fmri
psychopyVersion,2021.2.3
frameRate,59.98821831237917
﻿NumberLetter,corrAns,Correct,StimFile,Correct_StimFile,False_StimFile,Version,Paper,TrialNumber_Version,Round,Block,n,Stim.started_mean,Stim.started_raw,Stim.started_std,Stim.stopped_raw,key_resp_2.corr_mean,key_resp_2.corr_raw,key_resp_2.corr_std,key_resp_2.keys_raw,key_resp_2.rt_raw,key_resp_2.started_mean,key_resp_2.started_raw,key_resp_2.started_std,key_resp_2.stopped_raw,order
1,['1'],1,TMTstop-A_1_3.png,TMTstop-A_1_3.png,TMTstop-A_1_3.png,TMT_A,3,51,None,2,1.0,102.02825927734375,102.02825927734375,0.0,,1.0,1.0,0.0,1,0.4665912000054959,102.02825927734375,102.02825927734375,0.0,,0.0
2,['3'],3,TMTstop-A_1_3.png,TMTstop-A_1_3firstgreen.png,TMTstop-A_1_3firstred.png,TMT_A,3,52,None,2,1.0,102.55320739746094,102.55320739746094,0.0,,1.0,1.0,0.0,2,3,-0.016219299999647774,0.13010380000196164,102.55320739746094,102.55320739746094,0.0,,1.0
3,['2'],2,TMTstop-A_1_3linestimulus0.png,TMTstop-A_1_3greenlinestimulus0.png,TMTstop-A_1_3redlinestimulus0.png,TMT_A,3,53,None,2,1.0,102.7656478881836,102.7656478881836,0.0,,1.0,1.0,0.0,1,2,0.08820770000602352,0.09563540000090143,102.7656478881836,102.7656478881836,0.0,,2.0
4,['3'],3,TMTstop-A_1_3linestimulus1.png,TMTstop-A_1_3greenlinestimulus1.png,TMTstop-A_1_3redlinestimulus1.png,TMT_A,3,54,None,2,1.0,102.9157943725586,102.9157943725586,0.0,,1.0,1.0,0.0,3,0.09706809999624966,102.9157943725586,102.9157943725586,0.0,,3.0
5,['2'],2,TMTstop-A_1_3linestimulus2.png,TMTstop-A_1_3greenlinestimulus2.png,TMTstop-A_1_3redlinestimulus2.png,TMT_A,3,55,None,2,1.0,103.0737533569336,103.0737533569336,0.0,,1.0,1.0,0.0,1,2,0.15349129999958677,0.15730959999928018,103.0737533569336,103.0737533569336,0.0,,4.0
6,['1'],1,TMTstop-A_1_3linestimulus3.png,TMTstop-A_1_3greenlinestimulus3.png,TMTstop-A_1_3redlinestimulus3.png,TMT_A,3,56,None,2,1.0,103.29839324951172,103.29839324951172,0.0,,1.0,1.0,0.0,3,1,2,1,2,3,1,2,3,1,2,3,1,0.07622950000222772,0.26289050000195857,0.29555270000128075,0.6349856000015279,0.6380805000007967,0.8199228000012226,1.0120136000041384,1.04420029999892,1.1865055000016582,1.8642249000040465,1.8673254000023007,2.0464862000007997,2.3038248000011663,103.29839324951172,103.29839324951172,0.0,,5.0
7,['3'],3,TMTstop-A_1_3linestimulus4.png,TMTstop-A_1_3greenlinestimulus4.png,TMTstop-A_1_3redlinestimulus4.png,TMT_A,3,57,None,2,1.0,105.67201232910156,105.67201232910156,0.0,,1.0,1.0,0.0,2,3,-0.03847220000170637,0.11664849999942817,105.67201232910156,105.67201232910156,0.0,,6.0
8,['1'],1,TMTstop-A_1_3linestimulus5.png,TMTstop-A_1_3greenlinestimulus5.png,TMTstop-A_1_3redlinestimulus5.png,TMT_A,3,58,None,2,1.0,105.87423706054688,105.87423706054688,0.0,,1.0,1.0,0.0,1,0.12724969999544555,105.87423706054688,105.87423706054688,0.0,,7.0
9,['3'],3,TMTstop-A_1_3linestimulus6.png,TMTstop-A_1_3greenlinestimulus6.png,TMTstop-A_1_3redlinestimulus6.png,TMT_A,3,59,None,2,1.0,106.05824279785156,106.05824279785156,0.0,,1.0,1.0,0.0,2,3,-0.03529329999582842,0.11256710000452586,106.05824279785156,106.05824279785156,0.0,,8.0
10,['2'],2,TMTstop-A_1_3linestimulus7.png,TMTstop-A_1_3greenlinestimulus7.png,TMTstop-A_1_3redlinestimulus7.png,TMT_A,3,60,None,2,1.0,106.2549057006836,106.2549057006836,0.0,,1.0,1.0,0.0,1,2,0.09201889999530977,0.12747429999581072,106.2549057006836,106.2549057006836,0.0,,9.0
11,['3'],3,TMTstop-A_1_3linestimulus8.png,TMTstop-A_1_3greenlinestimulus8.png,TMTstop-A_1_3redlinestimulus8.png,TMT_A,3,61,None,2,1.0,106.4552230834961,106.4552230834961,0.0,,1.0,1.0,0.0,3,0.058225799999490846,106.4552230834961,106.4552230834961,0.0,,10.0
12,['2'],2,TMTstop-A_1_3linestimulus9.png,TMTstop-A_1_3greenlinestimulus9.png,TMTstop-A_1_3redlinestimulus9.png,TMT_A,3,62,None,2,1.0,106.57196044921875,106.57196044921875,0.0,,1.0,1.0,0.0,1,2,0.12304779999976745,0.12713739999890095,106.57196044921875,106.57196044921875,0.0,,11.0
13,['1'],1,TMTstop-A_1_3linestimulus10.png,TMTstop-A_1_3greenlinestimulus10.png,TMTstop-A_1_3redlinestimulus10.png,TMT_A,3,63,None,2,1.0,106.76311492919922,106.76311492919922,0.0,,1.0,1.0,0.0,3,1,2,3,1,2,3,1,0.08341010000003735,0.25905909999710275,0.280694000000949,0.4994670000014594,0.6423379999978351,0.6641588999991654,0.8113921999974991,2.0497040999980527,106.76311492919922,106.76311492919922,0.0,,12.0
14,['2'],2,TMTstop-A_1_3linestimulus11.png,TMTstop-A_1_3greenlinestimulus11.png,TMTstop-A_1_3redlinestimulus11.png,TMT_A,3,64,None,2,1.0,108.90706634521484,108.90706634521484,0.0,,1.0,1.0,0.0,3,1,2,0.4811028999974951,0.6325419999993755,0.7320513000013307,108.90706634521484,108.90706634521484,0.0,,13.0
15,['3'],3,TMTstop-A_1_3linestimulus12.png,TMTstop-A_1_3greenlinestimulus12.png,TMTstop-A_1_3redlinestimulus12.png,TMT_A,3,65,None,2,1.0,109.71112823486328,109.71112823486328,0.0,,1.0,1.0,0.0,3,0.06011420000140788,109.71112823486328,109.71112823486328,0.0,,14.0
16,['2'],2,TMTstop-A_1_3linestimulus13.png,TMTstop-A_1_3greenlinestimulus13.png,TMTstop-A_1_3redlinestimulus13.png,TMT_A,3,66,None,2,1.0,109.82794952392578,109.82794952392578,0.0,,1.0,1.0,0.0,1,2,0.09689710000384366,0.13651470000331756,109.82794952392578,109.82794952392578,0.0,,15.0
17,['3'],3,TMTstop-A_1_3linestimulus14.png,TMTstop-A_1_3greenlinestimulus14.png,TMTstop-A_1_3redlinestimulus14.png,TMT_A,3,67,None,2,1.0,110.02828216552734,110.02828216552734,0.0,,1.0,1.0,0.0,3,0.06469969999307068,110.02828216552734,110.02828216552734,0.0,,16.0
18,['2'],2,TMTstop-A_1_3linestimulus15.png,TMTstop-A_1_3greenlinestimulus15.png,TMTstop-A_1_3redlinestimulus15.png,TMT_A,3,68,None,2,1.0,110.1450424194336,110.1450424194336,0.0,,1.0,1.0,0.0,1,2,0.08504749999701744,0.13595809999969788,110.1450424194336,110.1450424194336,0.0,,17.0
19,['3'],3,TMTstop-A_1_3linestimulus16.png,TMTstop-A_1_3greenlinestimulus16.png,TMTstop-A_1_3redlinestimulus16.png,TMT_A,3,69,None,2,1.0,110.34529113769531,110.34529113769531,0.0,,1.0,1.0,0.0,3,0.04957219999778317,110.34529113769531,110.34529113769531,0.0,,18.0
20,['1'],1,TMTstop-A_1_3linestimulus17.png,TMTstop-A_1_3greenlinestimulus17.png,TMTstop-A_1_3redlinestimulus17.png,TMT_A,3,70,None,2,1.0,110.44535827636719,110.44535827636719,0.0,,1.0,1.0,0.0,1,0.09663629999704426,110.44535827636719,110.44535827636719,0.0,,19.0
21,['2'],2,TMTstop-A_1_3linestimulus18.png,TMTstop-A_1_3greenlinestimulus18.png,TMTstop-A_1_3redlinestimulus18.png,TMT_A,3,71,None,2,1.0,110.59503936767578,110.59503936767578,0.0,,1.0,1.0,0.0,2,-0.026177499996265396,110.59503936767578,110.59503936767578,0.0,,20.0
22,['3'],3,TMTstop-A_1_3linestimulus19.png,TMTstop-A_1_3greenlinestimulus19.png,TMTstop-A_1_3redlinestimulus19.png,TMT_A,3,72,None,2,1.0,110.64569091796875,110.64569091796875,0.0,,1.0,1.0,0.0,3,0.055046900000888854,110.64569091796875,110.64569091796875,0.0,,21.0
23,['2'],2,TMTstop-A_1_3linestimulus20.png,TMTstop-A_1_3greenlinestimulus20.png,TMTstop-A_1_3redlinestimulus20.png,TMT_A,3,73,None,2,1.0,110.7624282836914,110.7624282836914,0.0,,1.0,1.0,0.0,1,2,0.08575140000175452,0.13059439999778988,110.7624282836914,110.7624282836914,0.0,,22.0
24,['1'],1,TMTstop-A_1_3linestimulus21.png,TMTstop-A_1_3greenlinestimulus21.png,TMTstop-A_1_3redlinestimulus21.png,TMT_A,3,74,None,2,1.0,110.9536361694336,110.9536361694336,0.0,,1.0,1.0,0.0,3,1,0.06732180000108201,0.20957910000288393,110.9536361694336,110.9536361694336,0.0,,23.0
25,['2'],2,TMTstop-A_1_3linestimulus22.png,TMTstop-A_1_3greenlinestimulus22.png,TMTstop-A_1_3redlinestimulus22.png,TMT_A,3,75,None,2,1.0,111.23231506347656,111.23231506347656,0.0,,1.0,1.0,0.0,2,-0.03510759999335278,111.23231506347656,111.23231506347656,0.0,,24.0
None,None,None,TMTstop-A_1_3linestimulus23.png,TMTstop-A_1_3greenlinestimulus23.png,TMTstop-A_1_3redlinestimulus23.png,TMT_A,3,Feedback_last,None,2,1.0,111.28205108642578,111.28205108642578,0.0,,0.0,0.0,0.0,3,1,0.047870799993688706,0.20727529999567196,111.28205108642578,111.28205108642578,0.0,,25.0

extraInfo
participant,
session,001
date,2022_May_23_1222
expName,TMT_fmri
psychopyVersion,2021.2.3
frameRate,59.98821831237917
