NumberLetter,corrAns,StimFile,Correct_StimFile,False_StimFile,DurationTrial,trials.thisRepN,trials.thisTrialN,trials.thisN,trials.thisIndex,Instruct.started,Instruct.stopped,text_2.started,text_2.stopped,Stim.started,Stim.stopped,key_resp_2.keys,key_resp_2.corr,key_resp_2.rt,key_resp_2.started,key_resp_2.stopped,participant,session,date,expName,psychopyVersion,frameRate,
1,2,TMTstop-B_1_1.png,TMTstop-B_1_1.png,TMTstop-B_1_1.png,10,0,0,0,0,6.691987699945457,None,6.691987699945457,None,7.454362799995579,None,['1'],0,[0.5296339999185875],7.454362799995579,None,,001,2021_Nov_03_1227,TMTAB,2021.2.3,144.7242928661608,
A,1,TMTstop-B_1_1.png,TMTstop-B_1_1firstgreen.png,TMTstop-B_1_1firstred.png,10,0,1,1,1,,,,,8.071651699952781,None,['1'],0,[0.42708260007202625],8.071651699952781,None,,001,2021_Nov_03_1227,TMTAB,2021.2.3,144.7242928661608,
2,3,TMTstop-B_1_1linestimulus0.png,TMTstop-B_1_1greenlinestimulus0.png,TMTstop-B_1_1redlinestimulus0.png,10,0,2,2,2,,,,,8.586476999917068,None,['1'],0,[0.3189614999573678],8.586476999917068,None,,001,2021_Nov_03_1227,TMTAB,2021.2.3,144.7242928661608,
B,2,TMTstop-B_1_1linestimulus1.png,TMTstop-B_1_1greenlinestimulus1.png,TMTstop-B_1_1redlinestimulus1.png,10,0,3,3,3,,,,,8.975057399948128,None,['1'],0,[0.26039790001232177],8.975057399948128,None,,001,2021_Nov_03_1227,TMTAB,2021.2.3,144.7242928661608,
3,1,TMTstop-B_1_1linestimulus2.png,TMTstop-B_1_1greenlinestimulus2.png,TMTstop-B_1_1redlinestimulus2.png,10,0,4,4,4,,,,,9.307906199945137,None,['1'],0,[0.2508204000769183],9.307906199945137,None,,001,2021_Nov_03_1227,TMTAB,2021.2.3,144.7242928661608,
C,2,TMTstop-B_1_1linestimulus3.png,TMTstop-B_1_1greenlinestimulus3.png,TMTstop-B_1_1redlinestimulus3.png,10,0,5,5,5,,,,,9.641171399969608,None,['1'],0,[0.21021990000735968],9.641171399969608,None,,001,2021_Nov_03_1227,TMTAB,2021.2.3,144.7242928661608,
4,1,TMTstop-B_1_1linestimulus4.png,TMTstop-B_1_1greenlinestimulus4.png,TMTstop-B_1_1redlinestimulus4.png,10,0,6,6,6,,,,,9.939986199955456,None,['1'],0,[0.1868599000154063],9.939986199955456,None,,001,2021_Nov_03_1227,TMTAB,2021.2.3,144.7242928661608,
D,2,TMTstop-B_1_1linestimulus5.png,TMTstop-B_1_1greenlinestimulus5.png,TMTstop-B_1_1redlinestimulus5.png,10,0,7,7,7,,,,,10.211318099987693,None,['1'],0,[0.17319719993975013],10.211318099987693,None,,001,2021_Nov_03_1227,TMTAB,2021.2.3,144.7242928661608,
5,3,TMTstop-B_1_1linestimulus6.png,TMTstop-B_1_1greenlinestimulus6.png,TMTstop-B_1_1redlinestimulus6.png,10,0,8,8,8,,,,,10.468174299923703,None,['1'],0,[0.16475050000008196],10.468174299923703,None,,001,2021_Nov_03_1227,TMTAB,2021.2.3,144.7242928661608,
E,1,TMTstop-B_1_1linestimulus7.png,TMTstop-B_1_1greenlinestimulus7.png,TMTstop-B_1_1redlinestimulus7.png,10,0,9,9,9,,,,,10.710966199985705,None,['1'],0,[0.16319500003010035],10.710966199985705,None,,001,2021_Nov_03_1227,TMTAB,2021.2.3,144.7242928661608,
6,3,TMTstop-B_1_1linestimulus8.png,TMTstop-B_1_1greenlinestimulus8.png,TMTstop-B_1_1redlinestimulus8.png,10,0,10,10,10,,,,,10.953996800002642,None,['1'],0,[0.15875569998752326],10.953996800002642,None,,001,2021_Nov_03_1227,TMTAB,2021.2.3,144.7242928661608,
F,2,TMTstop-B_1_1linestimulus9.png,TMTstop-B_1_1greenlinestimulus9.png,TMTstop-B_1_1redlinestimulus9.png,10,0,11,11,11,,,,,11.197117000003345,None,['1'],0,[0.12299259996507317],11.197117000003345,None,,001,2021_Nov_03_1227,TMTAB,2021.2.3,144.7242928661608,
7,1,TMTstop-B_1_1linestimulus10.png,TMTstop-B_1_1greenlinestimulus10.png,TMTstop-B_1_1redlinestimulus10.png,1,0,12,12,12,,,,,11.398454300011508,None,['1'],0,[0.14165829995181412],11.398454300011508,None,,001,2021_Nov_03_1227,TMTAB,2021.2.3,144.7242928661608,
G,3,TMTstop-B_1_1linestimulus11.png,TMTstop-B_1_1greenlinestimulus11.png,TMTstop-B_1_1redlinestimulus11.png,None,0,13,13,13,,,,,11.627078199991956,None,['1'],0,[0.10711219999939203],11.627078199991956,None,,001,2021_Nov_03_1227,TMTAB,2021.2.3,144.7242928661608,
8,1,TMTstop-B_1_1linestimulus12.png,TMTstop-B_1_1greenlinestimulus12.png,TMTstop-B_1_1redlinestimulus12.png,None,0,14,14,14,,,,,11.822454000008292,None,['1'],0,[0.11905350000597537],11.822454000008292,None,,001,2021_Nov_03_1227,TMTAB,2021.2.3,144.7242928661608,
H,2,TMTstop-B_1_1linestimulus13.png,TMTstop-B_1_1greenlinestimulus13.png,TMTstop-B_1_1redlinestimulus13.png,None,0,15,15,15,,,,,12.03019449999556,None,['1'],0,[0.12935169995762408],12.03019449999556,None,,001,2021_Nov_03_1227,TMTAB,2021.2.3,144.7242928661608,
9,3,TMTstop-B_1_1linestimulus14.png,TMTstop-B_1_1greenlinestimulus14.png,TMTstop-B_1_1redlinestimulus14.png,None,0,16,16,16,,,,,12.24567550001666,None,['1'],0,[0.12735540000721812],12.24567550001666,None,,001,2021_Nov_03_1227,TMTAB,2021.2.3,144.7242928661608,
I,2,TMTstop-B_1_1linestimulus15.png,TMTstop-B_1_1greenlinestimulus15.png,TMTstop-B_1_1redlinestimulus15.png,None,0,17,17,17,,,,,12.460988399921916,None,['1'],0,[0.1328521000687033],12.460988399921916,None,,001,2021_Nov_03_1227,TMTAB,2021.2.3,144.7242928661608,
10,1,TMTstop-B_1_1linestimulus16.png,TMTstop-B_1_1greenlinestimulus16.png,TMTstop-B_1_1redlinestimulus16.png,None,0,18,18,18,,,,,12.68295439996291,None,['1'],0,[0.12377990002278239],12.68295439996291,None,,001,2021_Nov_03_1227,TMTAB,2021.2.3,144.7242928661608,
J,2,TMTstop-B_1_1linestimulus17.png,TMTstop-B_1_1greenlinestimulus17.png,TMTstop-B_1_1redlinestimulus17.png,None,0,19,19,19,,,,,12.891285299905576,None,['1'],0,[0.11964569997508079],12.891285299905576,None,,001,2021_Nov_03_1227,TMTAB,2021.2.3,144.7242928661608,
11,3,TMTstop-B_1_1linestimulus18.png,TMTstop-B_1_1greenlinestimulus18.png,TMTstop-B_1_1redlinestimulus18.png,None,0,20,20,20,,,,,13.099834799999371,None,['1'],0,[0.12020829995162785],13.099834799999371,None,,001,2021_Nov_03_1227,TMTAB,2021.2.3,144.7242928661608,
K,1,TMTstop-B_1_1linestimulus19.png,TMTstop-B_1_1greenlinestimulus19.png,TMTstop-B_1_1redlinestimulus19.png,None,0,21,21,21,,,,,13.315561899915338,None,['1'],0,[0.11546720005571842],13.315561899915338,None,,001,2021_Nov_03_1227,TMTAB,2021.2.3,144.7242928661608,
12,3,TMTstop-B_1_1linestimulus20.png,TMTstop-B_1_1greenlinestimulus20.png,TMTstop-B_1_1redlinestimulus20.png,None,0,22,22,22,,,,,13.523076599929482,None,['1'],0,[0.14438760001212358],13.523076599929482,None,,001,2021_Nov_03_1227,TMTAB,2021.2.3,144.7242928661608,
L,1,TMTstop-B_1_1linestimulus21.png,TMTstop-B_1_1greenlinestimulus21.png,TMTstop-B_1_1redlinestimulus21.png,None,0,23,23,23,,,,,13.759282000013627,None,['1'],0,[0.1341532999649644],13.759282000013627,None,,001,2021_Nov_03_1227,TMTAB,2021.2.3,144.7242928661608,
13,2,TMTstop-B_1_1linestimulus22.png,TMTstop-B_1_1greenlinestimulus22.png,TMTstop-B_1_1redlinestimulus22.png,None,0,24,24,24,,,,,13.982004199991934,None,['1'],0,[0.14291109994519502],13.982004199991934,None,,001,2021_Nov_03_1227,TMTAB,2021.2.3,144.7242928661608,
None,None,TMTstop-B_1_1linestimulus23.png,TMTstop-B_1_1greenlinestimulus23.png,TMTstop-B_1_1redlinestimulus23.png,None,0,25,25,25,,,,,14.210965599981137,None,['1'],0,[0.16881179995834827],14.210965599981137,None,,001,2021_Nov_03_1227,TMTAB,2021.2.3,144.7242928661608,
