Block_file,Condition_rows,NumberLetter,corrAns,Correct,StimFile,Correct_StimFile,False_StimFile,Version,Paper,TrialNumber_Version,Round,Block,Blocks_TMTControl.thisRepN,Blocks_TMTControl.thisTrialN,Blocks_TMTControl.thisN,Blocks_TMTControl.thisIndex,trials_baseline1.thisRepN,trials_baseline1.thisTrialN,trials_baseline1.thisN,trials_baseline1.thisIndex,Blocks_TMTA.thisRepN,Blocks_TMTA.thisTrialN,Blocks_TMTA.thisN,Blocks_TMTA.thisIndex,trials_TMTA.thisRepN,trials_TMTA.thisTrialN,trials_TMTA.thisN,trials_TMTA.thisIndex,Blocks_baseline2.thisRepN,Blocks_baseline2.thisTrialN,Blocks_baseline2.thisN,Blocks_baseline2.thisIndex,trials_baseline2.thisRepN,trials_baseline2.thisTrialN,trials_baseline2.thisN,trials_baseline2.thisIndex,Blocks_TMTB.thisRepN,Blocks_TMTB.thisTrialN,Blocks_TMTB.thisN,Blocks_TMTB.thisIndex,trials_TMTB.thisRepN,trials_TMTB.thisTrialN,trials_TMTB.thisN,trials_TMTB.thisIndex,Blocks_baseline3.thisRepN,Blocks_baseline3.thisTrialN,Blocks_baseline3.thisN,Blocks_baseline3.thisIndex,trials_baseline3.thisRepN,trials_baseline3.thisTrialN,trials_baseline3.thisN,trials_baseline3.thisIndex,Blocks_TMTA_2.thisRepN,Blocks_TMTA_2.thisTrialN,Blocks_TMTA_2.thisN,Blocks_TMTA_2.thisIndex,trials_TMTA_2.thisRepN,trials_TMTA_2.thisTrialN,trials_TMTA_2.thisN,trials_TMTA_2.thisIndex,trials_2.thisRepN,trials_2.thisTrialN,trials_2.thisN,trials_2.thisIndex,trials_baseline4.thisRepN,trials_baseline4.thisTrialN,trials_baseline4.thisN,trials_baseline4.thisIndex,Blocks_TMTB_2.thisRepN,Blocks_TMTB_2.thisTrialN,Blocks_TMTB_2.thisN,Blocks_TMTB_2.thisIndex,trials_TMTB_2.thisRepN,trials_TMTB_2.thisTrialN,trials_TMTB_2.thisN,trials_TMTB_2.thisIndex,key_resp_7.keys,key_resp_7.rt,key_resp_7.started,key_resp_7.stopped,polygon_2.started,polygon_2.stopped,Attempts,First_attempt,ResponseClock,Stim_2.started,Stim_2.stopped,key_resp_8.keys,key_resp_8.corr,key_resp_8.rt,key_resp_8.started,key_resp_8.stopped,Stim.started,Stim.stopped,key_resp_2.keys,key_resp_2.corr,key_resp_2.rt,key_resp_2.started,key_resp_2.stopped,participant,session,date,expName,psychopyVersion,frameRate,
,,,,,,,,,,,,,,,,,,,,,,,,,,,,,,,,,,,,,,,,,,,,,,,,,,,,,,,,,,,,,,,,,,,,,,,,,,,,,s,10.305934900003194,33.38386519999767,None,,,,,,,,,,,,,,,,,,,,,001,2022_Nov_17_1318,TMT_fmri,2021.2.3,143.71346982557696,
TMTstop-Control_1_1.xlsx,0:26,1,['2'],2,TMTstop-control_1_1.png,TMTstop-control_1_1.png,TMTstop-control_1_1.png,TMT_Control,1,1,1,1,0,0,0,0,0,0,0,0,,,,,,,,,,,,,,,,,,,,,,,,,,,,,,,,,,,,,,,,,,,,,,,,,,,,,,,,,,,,,33.38386519999767,None,1,1,2.899856299998646,57.335580899998604,None,['2'],1,[2.7589401000004727],57.335580899998604,None,,,,,,,,,001,2022_Nov_17_1318,TMT_fmri,2021.2.3,143.71346982557696,
TMTstop-Control_1_1.xlsx,0:26,2,['1'],1,TMTstop-control_1_1.png,TMTstop-control_1_1firstgreen.png,TMTstop-control_1_1firstred.png,TMT_Control,1,2,None,1,0,0,0,0,0,1,1,1,,,,,,,,,,,,,,,,,,,,,,,,,,,,,,,,,,,,,,,,,,,,,,,,,,,,,,,,,,,,,,,1,1,3.740659600000072,60.1332057000036,None,['1'],1,[0.7973052999950596],60.1332057000036,None,,,,,,,,,001,2022_Nov_17_1318,TMT_fmri,2021.2.3,143.71346982557696,
TMTstop-Control_1_1.xlsx,0:26,3,['3'],3,TMTstop-control_1_1linestimulus0.png,TMTstop-control_1_1greenlinestimulus0.png,TMTstop-control_1_1redlinestimulus0.png,TMT_Control,1,3,None,1,0,0,0,0,0,2,2,2,,,,,,,,,,,,,,,,,,,,,,,,,,,,,,,,,,,,,,,,,,,,,,,,,,,,,,,,,,,,,,,3,0,6.146324099994672,60.973005699997884,None,"['1', '2', '3']",1,"[1.0138822000008076, 1.781379800006107, 2.3651833000039915]",60.973005699997884,None,,,,,,,,,001,2022_Nov_17_1318,TMT_fmri,2021.2.3,143.71346982557696,
TMTstop-Control_1_1.xlsx,0:26,4,['1'],1,TMTstop-control_1_1linestimulus1.png,TMTstop-control_1_1greenlinestimulus1.png,TMTstop-control_1_1redlinestimulus1.png,TMT_Control,1,4,None,1,0,0,0,0,0,3,3,3,,,,,,,,,,,,,,,,,,,,,,,,,,,,,,,,,,,,,,,,,,,,,,,,,,,,,,,,,,,,,,,1,1,7.0183956999972,63.38045470000361,None,['1'],1,[0.8293663000004017],63.38045470000361,None,,,,,,,,,001,2022_Nov_17_1318,TMT_fmri,2021.2.3,143.71346982557696,
TMTstop-Control_1_1.xlsx,0:26,5,['3'],3,TMTstop-control_1_1linestimulus2.png,TMTstop-control_1_1greenlinestimulus2.png,TMTstop-control_1_1redlinestimulus2.png,TMT_Control,1,5,None,1,0,0,0,0,0,4,4,4,,,,,,,,,,,,,,,,,,,,,,,,,,,,,,,,,,,,,,,,,,,,,,,,,,,,,,,,,,,,,,,6,0,12.34644069999922,64.25068099999771,None,"['2', '2', '1', '2', '2', '3']",1,"[1.207274200001848, 1.8502836999978172, 3.093379999998433, 3.695785000003525, 4.29463570000371, 5.258714299998246]",64.25068099999771,None,,,,,,,,,001,2022_Nov_17_1318,TMT_fmri,2021.2.3,143.71346982557696,
TMTstop-Control_1_1.xlsx,0:26,6,['1'],1,TMTstop-control_1_1linestimulus3.png,TMTstop-control_1_1greenlinestimulus3.png,TMTstop-control_1_1redlinestimulus3.png,TMT_Control,1,6,None,1,0,0,0,0,0,5,5,5,,,,,,,,,,,,,,,,,,,,,,,,,,,,,,,,,,,,,,,,,,,,,,,,,,,,,,,,,,,,,,,3,0,13.424232599994866,69.57961010000145,None,"['2', '3', '1']",1,"[0.4331585999971139, 0.7965001999982633, 1.0167566999953124]",69.57961010000145,None,,,,,,,,,001,2022_Nov_17_1318,TMT_fmri,2021.2.3,143.71346982557696,
TMTstop-Control_1_1.xlsx,0:26,7,['2'],2,TMTstop-control_1_1linestimulus4.png,TMTstop-control_1_1greenlinestimulus4.png,TMTstop-control_1_1redlinestimulus4.png,TMT_Control,1,7,None,1,0,0,0,0,0,6,6,6,,,,,,,,,,,,,,,,,,,,,,,,,,,,,,,,,,,,,,,,,,,,,,,,,,,,,,,,,,,,,,,1,1,13.575163099994825,70.65767190000042,None,['2'],1,[0.10817410000163363],70.65767190000042,None,,,,,,,,,001,2022_Nov_17_1318,TMT_fmri,2021.2.3,143.71346982557696,
TMTstop-Control_1_1.xlsx,0:26,8,['1'],1,TMTstop-control_1_1linestimulus4.png,TMTstop-control_1_1greenlinestimulus5.png,TMTstop-control_1_1redlinestimulus5.png,TMT_Control,1,8,None,1,0,0,0,0,0,7,7,7,,,,,,,,,,,,,,,,,,,,,,,,,,,,,,,,,,,,,,,,,,,,,,,,,,,,,,,,,,,,,,,3,0,14.71949279999535,70.80719459999818,None,"['3', '3', '1']",1,"[0.10782230000040727, 0.8060575999988941, 1.1026265999971656]",70.80719459999818,None,,,,,,,,,001,2022_Nov_17_1318,TMT_fmri,2021.2.3,143.71346982557696,
TMTstop-Control_1_1.xlsx,0:26,9,['3'],3,TMTstop-control_1_1linestimulus6.png,TMTstop-control_1_1greenlinestimulus6.png,TMTstop-control_1_1redlinestimulus6.png,TMT_Control,1,9,None,1,0,0,0,0,0,8,8,8,,,,,,,,,,,,,,,,,,,,,,,,,,,,,,,,,,,,,,,,,,,,,,,,,,,,,,,,,,,,,,,2,0,15.335268499999074,71.95189750000281,None,"['2', '3']",1,"[0.22950719999789726, 0.5700662999952328]",71.95189750000281,None,,,,,,,,,001,2022_Nov_17_1318,TMT_fmri,2021.2.3,143.71346982557696,
TMTstop-Control_1_1.xlsx,0:26,10,['2'],2,TMTstop-control_1_1linestimulus7.png,TMTstop-control_1_1greenlinestimulus7.png,TMTstop-control_1_1redlinestimulus7.png,TMT_Control,1,10,None,1,0,0,0,0,0,9,9,9,,,,,,,,,,,,,,,,,,,,,,,,,,,,,,,,,,,,,,,,,,,,,,,,,,,,,,,,,,,,,,,2,0,15.861403599999903,72.56906800000434,None,"['1', '2']",1,"[0.30544889999873703, 0.4555670999980066]",72.56906800000434,None,,,,,,,,,001,2022_Nov_17_1318,TMT_fmri,2021.2.3,143.71346982557696,
TMTstop-Control_1_1.xlsx,0:26,11,['1'],1,TMTstop-control_1_1linestimulus8.png,TMTstop-control_1_1greenlinestimulus8.png,TMTstop-control_1_1redlinestimulus8.png,TMT_Control,1,11,None,1,0,0,0,0,0,10,10,10,,,,,,,,,,,,,,,,,,,,,,,,,,,,,,,,,,,,,,,,,,,,,,,,,,,,,,,,,,,,,,,2,0,16.22820309999952,73.093312099998,None,"['3', '1']",1,"[0.11000659999990603, 0.312476200000674]",73.093312099998,None,,,,,,,,,001,2022_Nov_17_1318,TMT_fmri,2021.2.3,143.71346982557696,
TMTstop-Control_1_1.xlsx,0:26,12,['2'],2,TMTstop-control_1_1linestimulus9.png,TMTstop-control_1_1greenlinestimulus9.png,TMTstop-control_1_1redlinestimulus9.png,TMT_Control,1,12,None,1,0,0,0,0,0,11,11,11,,,,,,,,,,,,,,,,,,,,,,,,,,,,,,,,,,,,,,,,,,,,,,,,,,,,,,,,,,,,,,,1,1,16.295105899996997,73.461341000002,None,['2'],1,[0.025199600000632927],73.461341000002,None,,,,,,,,,001,2022_Nov_17_1318,TMT_fmri,2021.2.3,143.71346982557696,
TMTstop-Control_1_1.xlsx,0:26,13,['3'],3,TMTstop-control_1_1linestimulus10.png,TMTstop-control_1_1greenlinestimulus10.png,TMTstop-control_1_1redlinestimulus10.png,TMT_Control,1,13,None,1,0,0,0,0,0,12,12,12,,,,,,,,,,,,,,,,,,,,,,,,,,,,,,,,,,,,,,,,,,,,,,,,,,,,,,,,,,,,,,,1,1,16.419043599998986,73.5283081000016,None,['3'],1,[0.0820263999994495],73.5283081000016,None,,,,,,,,,001,2022_Nov_17_1318,TMT_fmri,2021.2.3,143.71346982557696,
TMTstop-Control_1_1.xlsx,0:26,14,['2'],2,TMTstop-control_1_1linestimulus11.png,TMTstop-control_1_1greenlinestimulus11.png,TMTstop-control_1_1redlinestimulus11.png,TMT_Control,1,14,None,1,0,0,0,0,0,13,13,13,,,,,,,,,,,,,,,,,,,,,,,,,,,,,,,,,,,,,,,,,,,,,,,,,,,,,,,,,,,,,,,2,0,16.66201309999451,73.6520829000001,None,"['1', '2']",1,"[0.1297705000033602, 0.18823390000034124]",73.6520829000001,None,,,,,,,,,001,2022_Nov_17_1318,TMT_fmri,2021.2.3,143.71346982557696,
TMTstop-Control_1_1.xlsx,0:26,15,['3'],3,TMTstop-control_1_1linestimulus12.png,TMTstop-control_1_1greenlinestimulus12.png,TMTstop-control_1_1redlinestimulus12.png,TMT_Control,1,15,None,1,0,0,0,0,0,14,14,14,,,,,,,,,,,,,,,,,,,,,,,,,,,,,,,,,,,,,,,,,,,,,,,,,,,,,,,,,,,,,,,1,1,16.784242599998834,73.89689820000058,None,['3'],1,[0.07746020000195131],73.89689820000058,None,,,,,,,,,001,2022_Nov_17_1318,TMT_fmri,2021.2.3,143.71346982557696,
TMTstop-Control_1_1.xlsx,0:26,16,['2'],2,TMTstop-control_1_1linestimulus13.png,TMTstop-control_1_1greenlinestimulus13.png,TMTstop-control_1_1redlinestimulus13.png,TMT_Control,1,16,None,1,0,0,0,0,0,15,15,15,,,,,,,,,,,,,,,,,,,,,,,,,,,,,,,,,,,,,,,,,,,,,,,,,,,,,,,,,,,,,,,2,0,17.05317289999948,74.01849149999907,None,"['1', '2']",1,"[0.08974370000214549, 0.2025530000028084]",74.01849149999907,None,,,,,,,,,001,2022_Nov_17_1318,TMT_fmri,2021.2.3,143.71346982557696,
TMTstop-Control_1_1.xlsx,0:26,17,['3'],3,TMTstop-control_1_1linestimulus14.png,TMTstop-control_1_1greenlinestimulus14.png,TMTstop-control_1_1redlinestimulus14.png,TMT_Control,1,17,None,1,0,0,0,0,0,16,16,16,,,,,,,,,,,,,,,,,,,,,,,,,,,,,,,,,,,,,,,,,,,,,,,,,,,,,,,,,,,,,,,1,1,17.182892499993613,74.28427589999774,None,['3'],1,[0.08777610000106506],74.28427589999774,None,,,,,,,,,001,2022_Nov_17_1318,TMT_fmri,2021.2.3,143.71346982557696,
TMTstop-Control_1_1.xlsx,0:26,18,['2'],2,TMTstop-control_1_1linestimulus15.png,TMTstop-control_1_1greenlinestimulus15.png,TMTstop-control_1_1redlinestimulus15.png,TMT_Control,1,18,None,1,0,0,0,0,0,17,17,17,,,,,,,,,,,,,,,,,,,,,,,,,,,,,,,,,,,,,,,,,,,,,,,,,,,,,,,,,,,,,,,2,0,17.431912499996542,74.41541080000025,None,"['1', '2']",1,"[0.09876219999569003, 0.19472189999942202]",74.41541080000025,None,,,,,,,,,001,2022_Nov_17_1318,TMT_fmri,2021.2.3,143.71346982557696,
TMTstop-Control_1_1.xlsx,0:26,19,['1'],1,TMTstop-control_1_1linestimulus16.png,TMTstop-control_1_1greenlinestimulus16.png,TMTstop-control_1_1redlinestimulus16.png,TMT_Control,1,19,None,1,0,0,0,0,0,18,18,18,,,,,,,,,,,,,,,,,,,,,,,,,,,,,,,,,,,,,,,,,,,,,,,,,,,,,,,,,,,,,,,2,0,17.697781799994118,74.66410909999831,None,"['3', '1']",1,"[0.050738099998852704, 0.2047240000028978]",74.66410909999831,None,,,,,,,,,001,2022_Nov_17_1318,TMT_fmri,2021.2.3,143.71346982557696,
TMTstop-Control_1_1.xlsx,0:26,20,['3'],3,TMTstop-control_1_1linestimulus17.png,TMTstop-control_1_1greenlinestimulus17.png,TMTstop-control_1_1redlinestimulus17.png,TMT_Control,1,20,None,1,0,0,0,0,0,19,19,19,,,,,,,,,,,,,,,,,,,,,,,,,,,,,,,,,,,,,,,,,,,,,,,,,,,,,,,,,,,,,,,2,0,17.88034639999387,74.93194460000086,None,"['2', '3']",1,"[0.10051740000199061, 0.13284130000101868]",74.93194460000086,None,,,,,,,,,001,2022_Nov_17_1318,TMT_fmri,2021.2.3,143.71346982557696,
TMTstop-Control_1_1.xlsx,0:26,21,['1'],1,TMTstop-control_1_1linestimulus18.png,TMTstop-control_1_1greenlinestimulus18.png,TMTstop-control_1_1redlinestimulus18.png,TMT_Control,1,21,None,1,0,0,0,0,0,20,20,20,,,,,,,,,,,,,,,,,,,,,,,,,,,,,,,,,,,,,,,,,,,,,,,,,,,,,,,,,,,,,,,1,1,18.075447499999427,75.11554040000192,None,['1'],1,[0.1527806999947643],75.11554040000192,None,,,,,,,,,001,2022_Nov_17_1318,TMT_fmri,2021.2.3,143.71346982557696,
TMTstop-Control_1_1.xlsx,0:26,22,['2'],2,TMTstop-control_1_1linestimulus19.png,TMTstop-control_1_1greenlinestimulus19.png,TMTstop-control_1_1redlinestimulus19.png,TMT_Control,1,22,None,1,0,0,0,0,0,21,21,21,,,,,,,,,,,,,,,,,,,,,,,,,,,,,,,,,,,,,,,,,,,,,,,,,,,,,,,,,,,,,,,1,1,18.176847899994755,75.30648910000309,None,['2'],1,[0.06182479999552015],75.30648910000309,None,,,,,,,,,001,2022_Nov_17_1318,TMT_fmri,2021.2.3,143.71346982557696,
TMTstop-Control_1_1.xlsx,0:26,23,['3'],3,TMTstop-control_1_1linestimulus20.png,TMTstop-control_1_1greenlinestimulus20.png,TMTstop-control_1_1redlinestimulus20.png,TMT_Control,1,23,None,1,0,0,0,0,0,22,22,22,,,,,,,,,,,,,,,,,,,,,,,,,,,,,,,,,,,,,,,,,,,,,,,,,,,,,,,,,,,,,,,1,1,18.24181999999564,75.40804709999793,None,['3'],1,[0.023092800001904834],75.40804709999793,None,,,,,,,,,001,2022_Nov_17_1318,TMT_fmri,2021.2.3,143.71346982557696,
TMTstop-Control_1_1.xlsx,0:26,24,['2'],2,TMTstop-control_1_1linestimulus21.png,TMTstop-control_1_1greenlinestimulus21.png,TMTstop-control_1_1redlinestimulus21.png,TMT_Control,1,24,None,1,0,0,0,0,0,23,23,23,,,,,,,,,,,,,,,,,,,,,,,,,,,,,,,,,,,,,,,,,,,,,,,,,,,,,,,,,,,,,,,2,0,18.561043799993058,75.47419629999786,None,"['1', '2']",1,"[0.13760329999786336, 0.2501179999962915]",75.47419629999786,None,,,,,,,,,001,2022_Nov_17_1318,TMT_fmri,2021.2.3,143.71346982557696,
TMTstop-Control_1_1.xlsx,0:26,25,['1'],1,TMTstop-control_1_1linestimulus22.png,TMTstop-control_1_1greenlinestimulus22.png,TMTstop-control_1_1redlinestimulus22.png,TMT_Control,1,25,None,1,0,0,0,0,0,24,24,24,,,,,,,,,,,,,,,,,,,,,,,,,,,,,,,,,,,,,,,,,,,,,,,,,,,,,,,,,,,,,,,2,0,18.80344459999469,75.79418889999943,None,"['3', '1']",1,"[0.022476699996332172, 0.1910901000010199]",75.79418889999943,None,,,,,,,,,001,2022_Nov_17_1318,TMT_fmri,2021.2.3,143.71346982557696,
TMTstop-Control_1_1.xlsx,0:26,None,None,None,TMTstop-control_1_1linestimulus23.png,TMTstop-control_1_1greenlinestimulus23.png,TMTstop-control_1_1redlinestimulus23.png,TMT_Control,1,Feedback_last,None,1,0,0,0,0,0,25,25,25,,,,,,,,,,,,,,,,,,,,,,,,,,,,,,,,,,,,,,,,,,,,,,,,,,,,,,,,,,,,,,,3,0,,76.03766519999772,None,"['2', '3', '1']",0,"[0.03702520000661025, 0.10995190000539878, 0.2899942000003648]",76.03766519999772,None,,,,,,,,,001,2022_Nov_17_1318,TMT_fmri,2021.2.3,143.71346982557696,
TMTstop-Control_1_2.xlsx,26:52,1,['2'],2,TMTstop-control_1_2.png,TMTstop-control_1_2.png,TMTstop-control_1_2.png,TMT_Control,2,26,None,1,0,1,1,1,0,0,0,0,,,,,,,,,,,,,,,,,,,,,,,,,,,,,,,,,,,,,,,,,,,,,,,,,,,,,,,,,,,,,,,1,1,23.97306209999806,80.19935310000437,None,['2'],1,[0.9682389999943553],80.19935310000437,None,,,,,,,,,001,2022_Nov_17_1318,TMT_fmri,2021.2.3,143.71346982557696,
TMTstop-Control_1_2.xlsx,26:52,2,['3'],3,TMTstop-control_1_2.png,TMTstop-control_1_2firstgreen.png,TMTstop-control_1_2firstred.png,TMT_Control,2,27,None,1,0,1,1,1,0,1,1,1,,,,,,,,,,,,,,,,,,,,,,,,,,,,,,,,,,,,,,,,,,,,,,,,,,,,,,,,,,,,,,,4,0,26.193377599993255,81.20635649999895,None,"['2', '2', '1', '3']",1,"[0.7878367999946931, 1.2529035999978078, 1.719440199995006, 2.1651694999964093]",81.20635649999895,None,,,,,,,,,001,2022_Nov_17_1318,TMT_fmri,2021.2.3,143.71346982557696,
TMTstop-Control_1_2.xlsx,26:52,3,['2'],2,TMTstop-control_1_2linestimulus0.png,TMTstop-control_1_2greenlinestimulus0.png,TMTstop-control_1_2redlinestimulus0.png,TMT_Control,2,28,None,1,0,1,1,1,0,2,2,2,,,,,,,,,,,,,,,,,,,,,,,,,,,,,,,,,,,,,,,,,,,,,,,,,,,,,,,,,,,,,,,3,0,27.10891149999952,83.42844709999918,None,"['3', '1', '2']",1,"[0.46060099999886006, 0.6886750000048778, 0.8717489000046044]",83.42844709999918,None,,,,,,,,,001,2022_Nov_17_1318,TMT_fmri,2021.2.3,143.71346982557696,
TMTstop-Control_1_2.xlsx,26:52,4,['3'],3,TMTstop-control_1_2linestimulus1.png,TMTstop-control_1_2greenlinestimulus1.png,TMTstop-control_1_2redlinestimulus1.png,TMT_Control,2,29,None,1,0,1,1,1,0,3,3,3,,,,,,,,,,,,,,,,,,,,,,,,,,,,,,,,,,,,,,,,,,,,,,,,,,,,,,,,,,,,,,,2,0,29.051376299998083,84.34499949999736,None,"['1', '3']",1,"[1.3112479999981588, 1.8864082000000053]",84.34499949999736,None,,,,,,,,,001,2022_Nov_17_1318,TMT_fmri,2021.2.3,143.71346982557696,
TMTstop-Control_1_2.xlsx,26:52,5,['2'],2,TMTstop-control_1_2linestimulus2.png,TMTstop-control_1_2greenlinestimulus2.png,TMTstop-control_1_2redlinestimulus2.png,TMT_Control,2,30,None,1,0,1,1,1,0,4,4,4,,,,,,,,,,,,,,,,,,,,,,,,,,,,,,,,,,,,,,,,,,,,,,,,,,,,,,,,,,,,,,,2,0,29.530592099996284,86.28581400000257,None,"['1', '2']",1,"[0.2356249999938882, 0.4390668999985792]",86.28581400000257,None,,,,,,,,,001,2022_Nov_17_1318,TMT_fmri,2021.2.3,143.71346982557696,
TMTstop-Control_1_2.xlsx,26:52,6,['3'],3,TMTstop-control_1_2linestimulus3.png,TMTstop-control_1_2greenlinestimulus3.png,TMTstop-control_1_2redlinestimulus3.png,TMT_Control,2,31,None,1,0,1,1,1,0,5,5,5,,,,,,,,,,,,,,,,,,,,,,,,,,,,,,,,,,,,,,,,,,,,,,,,,,,,,,,,,,,,,,,1,1,29.5687678999966,86.76324929999828,None,['3'],1,[-0.03142210000078194],86.76324929999828,None,,,,,,,,,001,2022_Nov_17_1318,TMT_fmri,2021.2.3,143.71346982557696,
TMTstop-Control_1_2.xlsx,26:52,7,['2'],2,TMTstop-control_1_2linestimulus4.png,TMTstop-control_1_2greenlinestimulus4.png,TMTstop-control_1_2redlinestimulus4.png,TMT_Control,2,32,None,1,0,1,1,1,0,6,6,6,,,,,,,,,,,,,,,,,,,,,,,,,,,,,,,,,,,,,,,,,,,,,,,,,,,,,,,,,,,,,,,2,0,29.836333399995056,86.80282740000257,None,"['1', '2']",1,"[0.15080499999749009, 0.20867700000235345]",86.80282740000257,None,,,,,,,,,001,2022_Nov_17_1318,TMT_fmri,2021.2.3,143.71346982557696,
TMTstop-Control_1_2.xlsx,26:52,8,['1'],1,TMTstop-control_1_2linestimulus4.png,TMTstop-control_1_2greenlinestimulus5.png,TMTstop-control_1_2redlinestimulus5.png,TMT_Control,2,33,None,1,0,1,1,1,0,7,7,7,,,,,,,,,,,,,,,,,,,,,,,,,,,,,,,,,,,,,,,,,,,,,,,,,,,,,,,,,,,,,,,2,0,30.30904119999468,87.06930100000318,None,"['3', '1']",1,"[0.057993999995233025, 0.41784929999994347]",87.06930100000318,None,,,,,,,,,001,2022_Nov_17_1318,TMT_fmri,2021.2.3,143.71346982557696,
TMTstop-Control_1_2.xlsx,26:52,9,['3'],3,TMTstop-control_1_2linestimulus6.png,TMTstop-control_1_2greenlinestimulus6.png,TMTstop-control_1_2redlinestimulus6.png,TMT_Control,2,34,None,1,0,1,1,1,0,8,8,8,,,,,,,,,,,,,,,,,,,,,,,,,,,,,,,,,,,,,,,,,,,,,,,,,,,,,,,,,,,,,,,4,0,31.053209299992886,87.5399225000001,None,"['2', '1', '2', '3']",1,"[0.02896150000015041, 0.5288154000008944, 0.5424581999977818, 0.6838677999985521]",87.5399225000001,None,,,,,,,,,001,2022_Nov_17_1318,TMT_fmri,2021.2.3,143.71346982557696,
TMTstop-Control_1_2.xlsx,26:52,10,['2'],2,TMTstop-control_1_2linestimulus7.png,TMTstop-control_1_2greenlinestimulus7.png,TMTstop-control_1_2redlinestimulus7.png,TMT_Control,2,35,None,1,0,1,1,1,0,9,9,9,,,,,,,,,,,,,,,,,,,,,,,,,,,,,,,,,,,,,,,,,,,,,,,,,,,,,,,,,,,,,,,2,0,31.26525959999708,88.28618590000406,None,"['1', '2']",1,"[0.09687589999521151, 0.1651969000013196]",88.28618590000406,None,,,,,,,,,001,2022_Nov_17_1318,TMT_fmri,2021.2.3,143.71346982557696,
TMTstop-Control_1_2.xlsx,26:52,11,['3'],3,TMTstop-control_1_2linestimulus8.png,TMTstop-control_1_2greenlinestimulus8.png,TMTstop-control_1_2redlinestimulus8.png,TMT_Control,2,36,None,1,0,1,1,1,0,10,10,10,,,,,,,,,,,,,,,,,,,,,,,,,,,,,,,,,,,,,,,,,,,,,,,,,,,,,,,,,,,,,,,1,1,31.3453692999974,88.50206330000219,None,['3'],1,[0.032768500001111533],88.50206330000219,None,,,,,,,,,001,2022_Nov_17_1318,TMT_fmri,2021.2.3,143.71346982557696,
TMTstop-Control_1_2.xlsx,26:52,12,['2'],2,TMTstop-control_1_2linestimulus9.png,TMTstop-control_1_2greenlinestimulus9.png,TMTstop-control_1_2redlinestimulus9.png,TMT_Control,2,37,None,1,0,1,1,1,0,11,11,11,,,,,,,,,,,,,,,,,,,,,,,,,,,,,,,,,,,,,,,,,,,,,,,,,,,,,,,,,,,,,,,2,0,31.55124639999849,88.57759459999943,None,"['1', '2']",1,"[0.09452279999823077, 0.1574209000027622]",88.57759459999943,None,,,,,,,,,001,2022_Nov_17_1318,TMT_fmri,2021.2.3,143.71346982557696,
TMTstop-Control_1_2.xlsx,26:52,13,['3'],3,TMTstop-control_1_2linestimulus10.png,TMTstop-control_1_2greenlinestimulus10.png,TMTstop-control_1_2redlinestimulus10.png,TMT_Control,2,38,None,1,0,1,1,1,0,12,12,12,,,,,,,,,,,,,,,,,,,,,,,,,,,,,,,,,,,,,,,,,,,,,,,,,,,,,,,,,,,,,,,1,1,31.637215599999763,88.78283370000281,None,['3'],1,[0.04600810000556521],88.78283370000281,None,,,,,,,,,001,2022_Nov_17_1318,TMT_fmri,2021.2.3,143.71346982557696,
TMTstop-Control_1_2.xlsx,26:52,14,['2'],2,TMTstop-control_1_2linestimulus11.png,TMTstop-control_1_2greenlinestimulus11.png,TMTstop-control_1_2redlinestimulus11.png,TMT_Control,2,39,None,1,0,1,1,1,0,13,13,13,,,,,,,,,,,,,,,,,,,,,,,,,,,,,,,,,,,,,,,,,,,,,,,,,,,,,,,,,,,,,,,2,0,31.837172399995325,88.8690704000037,None,"['1', '2']",1,"[0.09165930000017397, 0.15029549999599112]",88.8690704000037,None,,,,,,,,,001,2022_Nov_17_1318,TMT_fmri,2021.2.3,143.71346982557696,
TMTstop-Control_1_2.xlsx,26:52,15,['3'],3,TMTstop-control_1_2linestimulus12.png,TMTstop-control_1_2greenlinestimulus12.png,TMTstop-control_1_2redlinestimulus12.png,TMT_Control,2,40,None,1,0,1,1,1,0,14,14,14,,,,,,,,,,,,,,,,,,,,,,,,,,,,,,,,,,,,,,,,,,,,,,,,,,,,,,,,,,,,,,,1,1,31.911932199996954,89.0701498999988,None,['3'],1,[0.03709019999951124],89.0701498999988,None,,,,,,,,,001,2022_Nov_17_1318,TMT_fmri,2021.2.3,143.71346982557696,
TMTstop-Control_1_2.xlsx,26:52,16,['1'],1,TMTstop-control_1_2linestimulus13.png,TMTstop-control_1_2greenlinestimulus13.png,TMTstop-control_1_2redlinestimulus13.png,TMT_Control,2,41,None,1,0,1,1,1,0,15,15,15,,,,,,,,,,,,,,,,,,,,,,,,,,,,,,,,,,,,,,,,,,,,,,,,,,,,,,,,,,,,,,,1,1,32.04876019999938,89.14626169999974,None,['1'],1,[0.09821280000323895],89.14626169999974,None,,,,,,,,,001,2022_Nov_17_1318,TMT_fmri,2021.2.3,143.71346982557696,
TMTstop-Control_1_2.xlsx,26:52,17,['2'],2,TMTstop-control_1_2linestimulus14.png,TMTstop-control_1_2greenlinestimulus14.png,TMTstop-control_1_2redlinestimulus14.png,TMT_Control,2,42,None,1,0,1,1,1,0,16,16,16,,,,,,,,,,,,,,,,,,,,,,,,,,,,,,,,,,,,,,,,,,,,,,,,,,,,,,,,,,,,,,,1,1,32.11365249999653,89.28116520000185,None,['2'],1,[0.022993999999016523],89.28116520000185,None,,,,,,,,,001,2022_Nov_17_1318,TMT_fmri,2021.2.3,143.71346982557696,
TMTstop-Control_1_2.xlsx,26:52,18,['1'],1,TMTstop-control_1_2linestimulus15.png,TMTstop-control_1_2greenlinestimulus15.png,TMTstop-control_1_2redlinestimulus15.png,TMT_Control,2,43,None,1,0,1,1,1,0,17,17,17,,,,,,,,,,,,,,,,,,,,,,,,,,,,,,,,,,,,,,,,,,,,,,,,,,,,,,,,,,,,,,,2,0,32.38919289999467,89.34551620000275,None,"['3', '1']",1,"[0.051248100004158914, 0.21168480000051204]",89.34551620000275,None,,,,,,,,,001,2022_Nov_17_1318,TMT_fmri,2021.2.3,143.71346982557696,
TMTstop-Control_1_2.xlsx,26:52,19,['2'],2,TMTstop-control_1_2linestimulus16.png,TMTstop-control_1_2greenlinestimulus16.png,TMTstop-control_1_2redlinestimulus16.png,TMT_Control,2,44,None,1,0,1,1,1,0,18,18,18,,,,,,,,,,,,,,,,,,,,,,,,,,,,,,,,,,,,,,,,,,,,,,,,,,,,,,,,,,,,,,,1,1,32.44971419999638,89.62222340000153,None,['2'],1,[0.023182199998700526],89.62222340000153,None,,,,,,,,,001,2022_Nov_17_1318,TMT_fmri,2021.2.3,143.71346982557696,
TMTstop-Control_1_2.xlsx,26:52,20,['3'],3,TMTstop-control_1_2linestimulus17.png,TMTstop-control_1_2greenlinestimulus17.png,TMTstop-control_1_2redlinestimulus17.png,TMT_Control,2,45,None,1,0,1,1,1,0,19,19,19,,,,,,,,,,,,,,,,,,,,,,,,,,,,,,,,,,,,,,,,,,,,,,,,,,,,,,,,,,,,,,,1,1,32.55546599999798,89.67987900000298,None,['3'],1,[0.06641569999919739],89.67987900000298,None,,,,,,,,,001,2022_Nov_17_1318,TMT_fmri,2021.2.3,143.71346982557696,
TMTstop-Control_1_2.xlsx,26:52,21,['1'],1,TMTstop-control_1_2linestimulus18.png,TMTstop-control_1_2greenlinestimulus18.png,TMTstop-control_1_2redlinestimulus18.png,TMT_Control,2,46,None,1,0,1,1,1,0,20,20,20,,,,,,,,,,,,,,,,,,,,,,,,,,,,,,,,,,,,,,,,,,,,,,,,,,,,,,,,,,,,,,,1,1,33.24311939999461,89.78678200000286,None,['1'],1,[0.6518026999983704],89.78678200000286,None,,,,,,,,,001,2022_Nov_17_1318,TMT_fmri,2021.2.3,143.71346982557696,
TMTstop-Control_1_2.xlsx,26:52,22,['3'],3,TMTstop-control_1_2linestimulus19.png,TMTstop-control_1_2greenlinestimulus19.png,TMTstop-control_1_2redlinestimulus19.png,TMT_Control,2,47,None,1,0,1,1,1,0,21,21,21,,,,,,,,,,,,,,,,,,,,,,,,,,,,,,,,,,,,,,,,,,,,,,,,,,,,,,,,,,,,,,,2,0,33.38576949999697,90.4744933999973,None,"['2', '3']",1,"[-0.02215050000086194, 0.10593749999679858]",90.4744933999973,None,,,,,,,,,001,2022_Nov_17_1318,TMT_fmri,2021.2.3,143.71346982557696,
TMTstop-Control_1_2.xlsx,26:52,23,['2'],2,TMTstop-control_1_2linestimulus20.png,TMTstop-control_1_2greenlinestimulus20.png,TMTstop-control_1_2redlinestimulus20.png,TMT_Control,2,48,None,1,0,1,1,1,0,22,22,22,,,,,,,,,,,,,,,,,,,,,,,,,,,,,,,,,,,,,,,,,,,,,,,,,,,,,,,,,,,,,,,2,0,33.659327499997744,90.61783640000067,None,"['1', '2']",1,"[0.1358743000018876, 0.20906059999833815]",90.61783640000067,None,,,,,,,,,001,2022_Nov_17_1318,TMT_fmri,2021.2.3,143.71346982557696,
TMTstop-Control_1_2.xlsx,26:52,24,['3'],3,TMTstop-control_1_2linestimulus21.png,TMTstop-control_1_2greenlinestimulus21.png,TMTstop-control_1_2redlinestimulus21.png,TMT_Control,2,49,None,1,0,1,1,1,0,23,23,23,,,,,,,,,,,,,,,,,,,,,,,,,,,,,,,,,,,,,,,,,,,,,,,,,,,,,,,,,,,,,,,1,1,33.73236499999621,90.89052549999906,None,['3'],1,[0.03193889999965904],90.89052549999906,None,,,,,,,,,001,2022_Nov_17_1318,TMT_fmri,2021.2.3,143.71346982557696,
TMTstop-Control_1_2.xlsx,26:52,25,['1'],1,TMTstop-control_1_2linestimulus22.png,TMTstop-control_1_2greenlinestimulus22.png,TMTstop-control_1_2redlinestimulus22.png,TMT_Control,2,50,None,1,0,1,1,1,0,24,24,24,,,,,,,,,,,,,,,,,,,,,,,,,,,,,,,,,,,,,,,,,,,,,,,,,,,,,,,,,,,,,,,1,1,33.883274599997094,90.96465349999926,None,['1'],1,[0.10981089999404503],90.96465349999926,None,,,,,,,,,001,2022_Nov_17_1318,TMT_fmri,2021.2.3,143.71346982557696,
TMTstop-Control_1_2.xlsx,26:52,None,None,None,TMTstop-control_1_2linestimulus23.png,TMTstop-control_1_2greenlinestimulus23.png,TMTstop-control_1_2redlinestimulus23.png,TMT_Control,2,Feedback_last,None,1,0,1,1,1,0,25,25,25,,,,,,,,,,,,,,,,,,,,,,,,,,,,,,,,,,,,,,,,,,,,,,,,,,,,,,,,,,,,,,,8,0,,91.11770539999998,None,"['2', '3', '1', '2', '3', '1', '2', '3']",0,"[-0.005607199993391987, 0.11242690000653965, 0.2511415000044508, 0.3012257000009413, 0.40662060000613565, 0.535467100002279, 0.5966362000035588, 0.7099496000009822]",91.11770539999998,None,,,,,,,,,001,2022_Nov_17_1318,TMT_fmri,2021.2.3,143.71346982557696,
TMTstop-A_1_1.xlsx,0:26,1,['1'],1,TMTstop-A_1_1.png,TMTstop-A_1_1.png,TMTstop-A_1_1.png,TMT_A,1,1,1,2,,,,,,,,,0,0,0,0,0,0,0,0,,,,,,,,,,,,,,,,,,,,,,,,,,,,,,,,,,,,,,,,,,,,,,,,,,,,,,,1,1,49.81079139999929,,,,,,,,105.2614195999995,None,['1'],1,[1.7440348000018275],105.2614195999995,None,,001,2022_Nov_17_1318,TMT_fmri,2021.2.3,143.71346982557696,
TMTstop-A_1_1.xlsx,0:26,2,['3'],3,TMTstop-A_1_1.png,TMTstop-A_1_1firstgreen.png,TMTstop-A_1_1firstred.png,TMT_A,1,2,None,2,,,,,,,,,0,0,0,0,0,1,1,1,,,,,,,,,,,,,,,,,,,,,,,,,,,,,,,,,,,,,,,,,,,,,,,,,,,,,,,3,0,52.15598069999396,,,,,,,,107.04492629999731,None,"['1', '2', '3']",1,"[0.670547899993835, 1.5036619999955292, 2.2722254999971483]",107.04492629999731,None,,001,2022_Nov_17_1318,TMT_fmri,2021.2.3,143.71346982557696,
TMTstop-A_1_1.xlsx,0:26,3,['1'],1,TMTstop-A_1_1linestimulus0.png,TMTstop-A_1_1greenlinestimulus0.png,TMTstop-A_1_1redlinestimulus0.png,TMT_A,1,3,None,2,,,,,,,,,0,0,0,0,0,2,2,2,,,,,,,,,,,,,,,,,,,,,,,,,,,,,,,,,,,,,,,,,,,,,,,,,,,,,,,1,1,53.094367399993644,,,,,,,,109.39030420000199,None,['1'],1,[0.8963746000008541],109.39030420000199,None,,001,2022_Nov_17_1318,TMT_fmri,2021.2.3,143.71346982557696,
TMTstop-A_1_1.xlsx,0:26,4,['3'],3,TMTstop-A_1_1linestimulus1.png,TMTstop-A_1_1greenlinestimulus1.png,TMTstop-A_1_1redlinestimulus1.png,TMT_A,1,4,None,2,,,,,,,,,0,0,0,0,0,3,3,3,,,,,,,,,,,,,,,,,,,,,,,,,,,,,,,,,,,,,,,,,,,,,,,,,,,,,,,5,0,58.00361369999882,,,,,,,,110.3312023000035,None,"['2', '2', '1', '2', '3']",1,"[2.207167499997013, 3.1785480999969877, 3.7049348000000464, 4.270239699995727, 4.861053599997831]",110.3312023000035,None,,001,2022_Nov_17_1318,TMT_fmri,2021.2.3,143.71346982557696,
TMTstop-A_1_1.xlsx,0:26,5,['1'],1,TMTstop-A_1_1linestimulus2.png,TMTstop-A_1_1greenlinestimulus2.png,TMTstop-A_1_1redlinestimulus2.png,TMT_A,1,5,None,2,,,,,,,,,0,0,0,0,0,4,4,4,,,,,,,,,,,,,,,,,,,,,,,,,,,,,,,,,,,,,,,,,,,,,,,,,,,,,,,1,1,59.12628429999313,,,,,,,,115.24079190000339,None,['1'],1,[1.0761392999993404],115.24079190000339,None,,001,2022_Nov_17_1318,TMT_fmri,2021.2.3,143.71346982557696,
TMTstop-A_1_1.xlsx,0:26,6,['3'],3,TMTstop-A_1_1linestimulus3.png,TMTstop-A_1_1greenlinestimulus3.png,TMTstop-A_1_1redlinestimulus3.png,TMT_A,1,6,None,2,,,,,,,,,0,0,0,0,0,5,5,5,,,,,,,,,,,,,,,,,,,,,,,,,,,,,,,,,,,,,,,,,,,,,,,,,,,,,,,4,0,62.23246549999749,,,,,,,,116.3594271999973,None,"['1', '1', '2', '3']",1,"[1.7050092999998014, 2.4000184000033187, 2.6837059000026784, 3.037318000002415]",116.3594271999973,None,,001,2022_Nov_17_1318,TMT_fmri,2021.2.3,143.71346982557696,
TMTstop-A_1_1.xlsx,0:26,7,['1'],1,TMTstop-A_1_1linestimulus4.png,TMTstop-A_1_1greenlinestimulus4.png,TMTstop-A_1_1redlinestimulus4.png,TMT_A,1,7,None,2,,,,,,,,,0,0,0,0,0,6,6,6,,,,,,,,,,,,,,,,,,,,,,,,,,,,,,,,,,,,,,,,,,,,,,,,,,,,,,,1,1,62.67616769999586,,,,,,,,119.46874699999898,None,['1'],1,[0.3983107000021846],119.46874699999898,None,,001,2022_Nov_17_1318,TMT_fmri,2021.2.3,143.71346982557696,
TMTstop-A_1_1.xlsx,0:26,8,['2'],2,TMTstop-A_1_1linestimulus5.png,TMTstop-A_1_1greenlinestimulus5.png,TMTstop-A_1_1redlinestimulus5.png,TMT_A,1,8,None,2,,,,,,,,,0,0,0,0,0,7,7,7,,,,,,,,,,,,,,,,,,,,,,,,,,,,,,,,,,,,,,,,,,,,,,,,,,,,,,,1,1,62.9362467999963,,,,,,,,119.9128520000013,None,['2'],1,[0.21472799999901326],119.9128520000013,None,,001,2022_Nov_17_1318,TMT_fmri,2021.2.3,143.71346982557696,
TMTstop-A_1_1.xlsx,0:26,9,['3'],3,TMTstop-A_1_1linestimulus6.png,TMTstop-A_1_1greenlinestimulus6.png,TMTstop-A_1_1redlinestimulus6.png,TMT_A,1,9,None,2,,,,,,,,,0,0,0,0,0,8,8,8,,,,,,,,,,,,,,,,,,,,,,,,,,,,,,,,,,,,,,,,,,,,,,,,,,,,,,,4,0,64.40400229999796,,,,,,,,120.16913899999781,None,"['1', '1', '2', '3']",1,"[0.7220413999966695, 1.0497719999984838, 1.2524632999993628, 1.4080648999952246]",120.16913899999781,None,,001,2022_Nov_17_1318,TMT_fmri,2021.2.3,143.71346982557696,
TMTstop-A_1_1.xlsx,0:26,10,['1'],1,TMTstop-A_1_1linestimulus7.png,TMTstop-A_1_1greenlinestimulus7.png,TMTstop-A_1_1redlinestimulus7.png,TMT_A,1,10,None,2,,,,,,,,,0,0,0,0,0,9,9,9,,,,,,,,,,,,,,,,,,,,,,,,,,,,,,,,,,,,,,,,,,,,,,,,,,,,,,,1,1,64.56325899999501,,,,,,,,121.63844280000194,None,['1'],1,[0.11707659999956377],121.63844280000194,None,,001,2022_Nov_17_1318,TMT_fmri,2021.2.3,143.71346982557696,
TMTstop-A_1_1.xlsx,0:26,11,['3'],3,TMTstop-A_1_1linestimulus8.png,TMTstop-A_1_1greenlinestimulus8.png,TMTstop-A_1_1redlinestimulus8.png,TMT_A,1,11,None,2,,,,,,,,,0,0,0,0,0,10,10,10,,,,,,,,,,,,,,,,,,,,,,,,,,,,,,,,,,,,,,,,,,,,,,,,,,,,,,,2,0,64.82182639999519,,,,,,,,121.79706250000163,None,"['2', '3']",1,"[0.06587839999701828, 0.19179269999585813]",121.79706250000163,None,,001,2022_Nov_17_1318,TMT_fmri,2021.2.3,143.71346982557696,
TMTstop-A_1_1.xlsx,0:26,12,['2'],2,TMTstop-A_1_1linestimulus9.png,TMTstop-A_1_1greenlinestimulus9.png,TMTstop-A_1_1redlinestimulus9.png,TMT_A,1,12,None,2,,,,,,,,,0,0,0,0,0,11,11,11,,,,,,,,,,,,,,,,,,,,,,,,,,,,,,,,,,,,,,,,,,,,,,,,,,,,,,,2,0,65.05586809999659,,,,,,,,122.05585350000183,None,"['1', '2']",1,"[0.08983360000274843, 0.18166249999922002]",122.05585350000183,None,,001,2022_Nov_17_1318,TMT_fmri,2021.2.3,143.71346982557696,
TMTstop-A_1_1.xlsx,0:26,13,['1'],1,TMTstop-A_1_1linestimulus10.png,TMTstop-A_1_1greenlinestimulus10.png,TMTstop-A_1_1redlinestimulus10.png,TMT_A,1,13,None,2,,,,,,,,,0,0,0,0,0,12,12,12,,,,,,,,,,,,,,,,,,,,,,,,,,,,,,,,,,,,,,,,,,,,,,,,,,,,,,,2,0,65.2853013999993,,,,,,,,122.28852600000391,None,"['3', '1']",1,"[0.0372886000041035, 0.17026780000014696]",122.28852600000391,None,,001,2022_Nov_17_1318,TMT_fmri,2021.2.3,143.71346982557696,
TMTstop-A_1_1.xlsx,0:26,14,['2'],2,TMTstop-A_1_1linestimulus11.png,TMTstop-A_1_1greenlinestimulus11.png,TMTstop-A_1_1redlinestimulus11.png,TMT_A,1,14,None,2,,,,,,,,,0,0,0,0,0,13,13,13,,,,,,,,,,,,,,,,,,,,,,,,,,,,,,,,,,,,,,,,,,,,,,,,,,,,,,,1,1,65.36318019999453,,,,,,,,122.52183720000176,None,['2'],1,[0.03052699999534525],122.52183720000176,None,,001,2022_Nov_17_1318,TMT_fmri,2021.2.3,143.71346982557696,
TMTstop-A_1_1.xlsx,0:26,15,['1'],1,TMTstop-A_1_1linestimulus12.png,TMTstop-A_1_1greenlinestimulus12.png,TMTstop-A_1_1redlinestimulus12.png,TMT_A,1,15,None,2,,,,,,,,,0,0,0,0,0,14,14,14,,,,,,,,,,,,,,,,,,,,,,,,,,,,,,,,,,,,,,,,,,,,,,,,,,,,,,,2,0,65.61544159999903,,,,,,,,122.5975602000035,None,"['3', '1']",1,"[0.05810110000311397, 0.19962010000017472]",122.5975602000035,None,,001,2022_Nov_17_1318,TMT_fmri,2021.2.3,143.71346982557696,
TMTstop-A_1_1.xlsx,0:26,16,['2'],2,TMTstop-A_1_1linestimulus13.png,TMTstop-A_1_1greenlinestimulus13.png,TMTstop-A_1_1redlinestimulus13.png,TMT_A,1,16,None,2,,,,,,,,,0,0,0,0,0,15,15,15,,,,,,,,,,,,,,,,,,,,,,,,,,,,,,,,,,,,,,,,,,,,,,,,,,,,,,,1,1,65.670435299995,,,,,,,,122.8506802999982,None,['2'],1,[0.010006600001361221],122.8506802999982,None,,001,2022_Nov_17_1318,TMT_fmri,2021.2.3,143.71346982557696,
TMTstop-A_1_1.xlsx,0:26,17,['1'],1,TMTstop-A_1_1linestimulus14.png,TMTstop-A_1_1greenlinestimulus14.png,TMTstop-A_1_1redlinestimulus14.png,TMT_A,1,17,None,2,,,,,,,,,0,0,0,0,0,16,16,16,,,,,,,,,,,,,,,,,,,,,,,,,,,,,,,,,,,,,,,,,,,,,,,,,,,,,,,2,0,65.97734549999586,,,,,,,,122.90633840000373,None,"['3', '1']",1,"[0.08359689999633702, 0.24919019999651937]",122.90633840000373,None,,001,2022_Nov_17_1318,TMT_fmri,2021.2.3,143.71346982557696,
TMTstop-A_1_1.xlsx,0:26,18,['3'],3,TMTstop-A_1_1linestimulus15.png,TMTstop-A_1_1greenlinestimulus15.png,TMTstop-A_1_1redlinestimulus15.png,TMT_A,1,18,None,2,,,,,,,,,0,0,0,0,0,17,17,17,,,,,,,,,,,,,,,,,,,,,,,,,,,,,,,,,,,,,,,,,,,,,,,,,,,,,,,2,0,66.17438189999666,,,,,,,,123.21274450000055,None,"['2', '3']",1,"[0.03989259999798378, 0.1495033000028343]",123.21274450000055,None,,001,2022_Nov_17_1318,TMT_fmri,2021.2.3,143.71346982557696,
TMTstop-A_1_1.xlsx,0:26,19,['2'],2,TMTstop-A_1_1linestimulus16.png,TMTstop-A_1_1greenlinestimulus16.png,TMTstop-A_1_1redlinestimulus16.png,TMT_A,1,19,None,2,,,,,,,,,0,0,0,0,0,18,18,18,,,,,,,,,,,,,,,,,,,,,,,,,,,,,,,,,,,,,,,,,,,,,,,,,,,,,,,2,0,66.62761829999363,,,,,,,,123.40953560000344,None,"['1', '2']",1,"[0.33584339999652, 0.41364749999775086]",123.40953560000344,None,,001,2022_Nov_17_1318,TMT_fmri,2021.2.3,143.71346982557696,
TMTstop-A_1_1.xlsx,0:26,20,['3'],3,TMTstop-A_1_1linestimulus17.png,TMTstop-A_1_1greenlinestimulus17.png,TMTstop-A_1_1redlinestimulus17.png,TMT_A,1,20,None,2,,,,,,,,,0,0,0,0,0,19,19,19,,,,,,,,,,,,,,,,,,,,,,,,,,,,,,,,,,,,,,,,,,,,,,,,,,,,,,,1,1,66.73964449999767,,,,,,,,123.86168449999968,None,['3'],1,[0.06857290000334615],123.86168449999968,None,,001,2022_Nov_17_1318,TMT_fmri,2021.2.3,143.71346982557696,
TMTstop-A_1_1.xlsx,0:26,21,['1'],1,TMTstop-A_1_1linestimulus18.png,TMTstop-A_1_1greenlinestimulus18.png,TMTstop-A_1_1redlinestimulus18.png,TMT_A,1,21,None,2,,,,,,,,,0,0,0,0,0,20,20,20,,,,,,,,,,,,,,,,,,,,,,,,,,,,,,,,,,,,,,,,,,,,,,,,,,,,,,,1,1,66.88872809999884,,,,,,,,123.9750023000015,None,['1'],1,[0.10800710000330582],123.9750023000015,None,,001,2022_Nov_17_1318,TMT_fmri,2021.2.3,143.71346982557696,
TMTstop-A_1_1.xlsx,0:26,22,['3'],3,TMTstop-A_1_1linestimulus19.png,TMTstop-A_1_1greenlinestimulus19.png,TMTstop-A_1_1redlinestimulus19.png,TMT_A,1,22,None,2,,,,,,,,,0,0,0,0,0,21,21,21,,,,,,,,,,,,,,,,,,,,,,,,,,,,,,,,,,,,,,,,,,,,,,,,,,,,,,,2,0,67.08889849999832,,,,,,,,124.12283220000245,None,"['2', '3']",1,"[0.045603799997479655, 0.14672949999658158]",124.12283220000245,None,,001,2022_Nov_17_1318,TMT_fmri,2021.2.3,143.71346982557696,
TMTstop-A_1_1.xlsx,0:26,23,['1'],1,TMTstop-A_1_1linestimulus20.png,TMTstop-A_1_1greenlinestimulus20.png,TMTstop-A_1_1redlinestimulus20.png,TMT_A,1,23,None,2,,,,,,,,,0,0,0,0,0,22,22,22,,,,,,,,,,,,,,,,,,,,,,,,,,,,,,,,,,,,,,,,,,,,,,,,,,,,,,,1,1,67.25363999999536,,,,,,,,124.32413000000088,None,['1'],1,[0.11879259999841452],124.32413000000088,None,,001,2022_Nov_17_1318,TMT_fmri,2021.2.3,143.71346982557696,
TMTstop-A_1_1.xlsx,0:26,24,['3'],3,TMTstop-A_1_1linestimulus21.png,TMTstop-A_1_1greenlinestimulus21.png,TMTstop-A_1_1redlinestimulus21.png,TMT_A,1,24,None,2,,,,,,,,,0,0,0,0,0,23,23,23,,,,,,,,,,,,,,,,,,,,,,,,,,,,,,,,,,,,,,,,,,,,,,,,,,,,,,,2,0,67.45528449999983,,,,,,,,124.4868404000008,None,"['2', '3']",1,"[0.014535000002069864, 0.12637800000084098]",124.4868404000008,None,,001,2022_Nov_17_1318,TMT_fmri,2021.2.3,143.71346982557696,
TMTstop-A_1_1.xlsx,0:26,25,['1'],1,TMTstop-A_1_1linestimulus22.png,TMTstop-A_1_1greenlinestimulus22.png,TMTstop-A_1_1redlinestimulus22.png,TMT_A,1,25,None,2,,,,,,,,,0,0,0,0,0,24,24,24,,,,,,,,,,,,,,,,,,,,,,,,,,,,,,,,,,,,,,,,,,,,,,,,,,,,,,,1,1,67.56887819999974,,,,,,,,124.69346729999961,None,['1'],1,[0.07012620000023162],124.69346729999961,None,,001,2022_Nov_17_1318,TMT_fmri,2021.2.3,143.71346982557696,
TMTstop-A_1_1.xlsx,0:26,None,None,None,TMTstop-A_1_1linestimulus23.png,TMTstop-A_1_1greenlinestimulus23.png,TMTstop-A_1_1redlinestimulus23.png,TMT_A,1,Feedback_last,None,2,,,,,,,,,0,0,0,0,0,25,25,25,,,,,,,,,,,,,,,,,,,,,,,,,,,,,,,,,,,,,,,,,,,,,,,,,,,,,,,5,0,,,,,,,,,124.80543380000017,None,"['2', '3', '1', '2', '3']",0,"[0.0373909999980242, 0.13709579999704147, 0.2756976000018767, 0.32588530000066385, 0.44555579999723705]",124.80543380000017,None,,001,2022_Nov_17_1318,TMT_fmri,2021.2.3,143.71346982557696,
TMTstop-A_1_2.xlsx,26:52,1,['1'],1,TMTstop-A_1_2.png,TMTstop-A_1_2.png,TMTstop-A_1_2.png,TMT_A,2,26,None,2,,,,,,,,,0,1,1,1,0,0,0,0,,,,,,,,,,,,,,,,,,,,,,,,,,,,,,,,,,,,,,,,,,,,,,,,,,,,,,,1,1,72.46945139999298,,,,,,,,128.9213619000002,None,['1'],1,[0.743889899997157],128.9213619000002,None,,001,2022_Nov_17_1318,TMT_fmri,2021.2.3,143.71346982557696,
TMTstop-A_1_2.xlsx,26:52,2,['3'],3,TMTstop-A_1_2.png,TMTstop-A_1_2firstgreen.png,TMTstop-A_1_2firstred.png,TMT_A,2,27,None,2,,,,,,,,,0,1,1,1,0,1,1,1,,,,,,,,,,,,,,,,,,,,,,,,,,,,,,,,,,,,,,,,,,,,,,,,,,,,,,,2,0,72.70103509999899,,,,,,,,129.70323510000162,None,"['2', '3']",1,"[0.04852689999825088, 0.17951349999930244]",129.70323510000162,None,,001,2022_Nov_17_1318,TMT_fmri,2021.2.3,143.71346982557696,
TMTstop-A_1_2.xlsx,26:52,3,['1'],1,TMTstop-A_1_2linestimulus0.png,TMTstop-A_1_2greenlinestimulus0.png,TMTstop-A_1_2redlinestimulus0.png,TMT_A,2,28,None,2,,,,,,,,,0,1,1,1,0,2,2,2,,,,,,,,,,,,,,,,,,,,,,,,,,,,,,,,,,,,,,,,,,,,,,,,,,,,,,,1,1,72.85959979999461,,,,,,,,129.9323390999998,None,['1'],1,[0.12001749999762978],129.9323390999998,None,,001,2022_Nov_17_1318,TMT_fmri,2021.2.3,143.71346982557696,
TMTstop-A_1_2.xlsx,26:52,4,['2'],2,TMTstop-A_1_2linestimulus1.png,TMTstop-A_1_2greenlinestimulus1.png,TMTstop-A_1_2redlinestimulus1.png,TMT_A,2,29,None,2,,,,,,,,,0,1,1,1,0,3,3,3,,,,,,,,,,,,,,,,,,,,,,,,,,,,,,,,,,,,,,,,,,,,,,,,,,,,,,,6,0,75.17043129999365,,,,,,,,130.09084869999788,None,"['1', '1', '1', '3', '1', '2']",1,"[0.2398745999962557, 0.5709887999983039, 1.878978399996413, 2.0603340000016033, 2.180979999997362, 2.266235700000834]",130.09084869999788,None,,001,2022_Nov_17_1318,TMT_fmri,2021.2.3,143.71346982557696,
TMTstop-A_1_2.xlsx,26:52,5,['1'],1,TMTstop-A_1_2linestimulus2.png,TMTstop-A_1_2greenlinestimulus2.png,TMTstop-A_1_2redlinestimulus2.png,TMT_A,2,30,None,2,,,,,,,,,0,1,1,1,0,4,4,4,,,,,,,,,,,,,,,,,,,,,,,,,,,,,,,,,,,,,,,,,,,,,,,,,,,,,,,2,0,75.40776649999316,,,,,,,,132.40431109999918,None,"['3', '1']",1,"[0.05005220000020927, 0.19776999999885447]",132.40431109999918,None,,001,2022_Nov_17_1318,TMT_fmri,2021.2.3,143.71346982557696,
TMTstop-A_1_2.xlsx,26:52,6,['3'],3,TMTstop-A_1_2linestimulus3.png,TMTstop-A_1_2greenlinestimulus3.png,TMTstop-A_1_2redlinestimulus3.png,TMT_A,2,31,None,2,,,,,,,,,0,1,1,1,0,5,5,5,,,,,,,,,,,,,,,,,,,,,,,,,,,,,,,,,,,,,,,,,,,,,,,,,,,,,,,4,0,75.93970249999984,,,,,,,,132.64358779999748,None,"['2', '1', '2', '3']",1,"[0.04278309999790508, 0.3021909999952186, 0.3198100999943563, 0.46423899999354035]",132.64358779999748,None,,001,2022_Nov_17_1318,TMT_fmri,2021.2.3,143.71346982557696,
TMTstop-A_1_2.xlsx,26:52,7,['2'],2,TMTstop-A_1_2linestimulus4.png,TMTstop-A_1_2greenlinestimulus4.png,TMTstop-A_1_2redlinestimulus4.png,TMT_A,2,32,None,2,,,,,,,,,0,1,1,1,0,6,6,6,,,,,,,,,,,,,,,,,,,,,,,,,,,,,,,,,,,,,,,,,,,,,,,,,,,,,,,3,0,76.91949769999337,,,,,,,,133.1772404000003,None,"['1', '1', '2']",1,"[0.09121299999969779, 0.8665523000017856, 0.9264636000007158]",133.1772404000003,None,,001,2022_Nov_17_1318,TMT_fmri,2021.2.3,143.71346982557696,
TMTstop-A_1_2.xlsx,26:52,8,['1'],1,TMTstop-A_1_2linestimulus5.png,TMTstop-A_1_2greenlinestimulus5.png,TMTstop-A_1_2redlinestimulus5.png,TMT_A,2,33,None,2,,,,,,,,,0,1,1,1,0,7,7,7,,,,,,,,,,,,,,,,,,,,,,,,,,,,,,,,,,,,,,,,,,,,,,,,,,,,,,,2,0,77.18971839999722,,,,,,,,134.15494910000416,None,"['3', '1']",1,"[0.05880510000133654, 0.20161920000100508]",134.15494910000416,None,,001,2022_Nov_17_1318,TMT_fmri,2021.2.3,143.71346982557696,
TMTstop-A_1_2.xlsx,26:52,9,['3'],3,TMTstop-A_1_2linestimulus6.png,TMTstop-A_1_2greenlinestimulus6.png,TMTstop-A_1_2redlinestimulus6.png,TMT_A,2,34,None,2,,,,,,,,,0,1,1,1,0,8,8,8,,,,,,,,,,,,,,,,,,,,,,,,,,,,,,,,,,,,,,,,,,,,,,,,,,,,,,,2,0,77.38348889999907,,,,,,,,134.4211598000038,None,"['2', '3']",1,"[0.0032224999958998524, 0.14664790000097128]",134.4211598000038,None,,001,2022_Nov_17_1318,TMT_fmri,2021.2.3,143.71346982557696,
TMTstop-A_1_2.xlsx,26:52,10,['2'],2,TMTstop-A_1_2linestimulus7.png,TMTstop-A_1_2greenlinestimulus7.png,TMTstop-A_1_2redlinestimulus7.png,TMT_A,2,35,None,2,,,,,,,,,0,1,1,1,0,9,9,9,,,,,,,,,,,,,,,,,,,,,,,,,,,,,,,,,,,,,,,,,,,,,,,,,,,,,,,2,0,77.548229299995,,,,,,,,134.61891189999733,None,"['1', '2']",1,"[0.08179060000111349, 0.11906019999878481]",134.61891189999733,None,,001,2022_Nov_17_1318,TMT_fmri,2021.2.3,143.71346982557696,
TMTstop-A_1_2.xlsx,26:52,11,['1'],1,TMTstop-A_1_2linestimulus8.png,TMTstop-A_1_2greenlinestimulus8.png,TMTstop-A_1_2redlinestimulus8.png,TMT_A,2,36,None,2,,,,,,,,,0,1,1,1,0,10,10,10,,,,,,,,,,,,,,,,,,,,,,,,,,,,,,,,,,,,,,,,,,,,,,,,,,,,,,,2,0,77.82746059999772,,,,,,,,134.78260900000168,None,"['3', '1']",1,"[0.08837779999885242, 0.23084180000296328]",134.78260900000168,None,,001,2022_Nov_17_1318,TMT_fmri,2021.2.3,143.71346982557696,
TMTstop-A_1_2.xlsx,26:52,12,['2'],2,TMTstop-A_1_2linestimulus9.png,TMTstop-A_1_2greenlinestimulus9.png,TMTstop-A_1_2redlinestimulus9.png,TMT_A,2,37,None,2,,,,,,,,,0,1,1,1,0,11,11,11,,,,,,,,,,,,,,,,,,,,,,,,,,,,,,,,,,,,,,,,,,,,,,,,,,,,,,,1,1,77.86957769999572,,,,,,,,135.06399129999772,None,['2'],1,[-0.0006931000025360845],135.06399129999772,None,,001,2022_Nov_17_1318,TMT_fmri,2021.2.3,143.71346982557696,
TMTstop-A_1_2.xlsx,26:52,13,['1'],1,TMTstop-A_1_2linestimulus10.png,TMTstop-A_1_2greenlinestimulus10.png,TMTstop-A_1_2redlinestimulus10.png,TMT_A,2,38,None,2,,,,,,,,,0,1,1,1,0,12,12,12,,,,,,,,,,,,,,,,,,,,,,,,,,,,,,,,,,,,,,,,,,,,,,,,,,,,,,,2,0,78.13733809999394,,,,,,,,135.10503569999855,None,"['3', '1']",1,"[0.07620160000078613, 0.21370060000481317]",135.10503569999855,None,,001,2022_Nov_17_1318,TMT_fmri,2021.2.3,143.71346982557696,
TMTstop-A_1_2.xlsx,26:52,14,['3'],3,TMTstop-A_1_2linestimulus11.png,TMTstop-A_1_2greenlinestimulus11.png,TMTstop-A_1_2redlinestimulus11.png,TMT_A,2,39,None,2,,,,,,,,,0,1,1,1,0,13,13,13,,,,,,,,,,,,,,,,,,,,,,,,,,,,,,,,,,,,,,,,,,,,,,,,,,,,,,,2,0,78.32207219999691,,,,,,,,135.37057679999998,None,"['2', '3']",1,"[-0.008515100002114195, 0.11775669999769889]",135.37057679999998,None,,001,2022_Nov_17_1318,TMT_fmri,2021.2.3,143.71346982557696,
TMTstop-A_1_2.xlsx,26:52,15,['1'],1,TMTstop-A_1_2linestimulus12.png,TMTstop-A_1_2greenlinestimulus12.png,TMTstop-A_1_2redlinestimulus12.png,TMT_A,2,40,None,2,,,,,,,,,0,1,1,1,0,14,14,14,,,,,,,,,,,,,,,,,,,,,,,,,,,,,,,,,,,,,,,,,,,,,,,,,,,,,,,1,1,78.75751820000005,,,,,,,,135.55823570000211,None,['1'],1,[0.39009330000408227],135.55823570000211,None,,001,2022_Nov_17_1318,TMT_fmri,2021.2.3,143.71346982557696,
TMTstop-A_1_2.xlsx,26:52,16,['3'],3,TMTstop-A_1_2linestimulus13.png,TMTstop-A_1_2greenlinestimulus13.png,TMTstop-A_1_2redlinestimulus13.png,TMT_A,2,41,None,2,,,,,,,,,0,1,1,1,0,15,15,15,,,,,,,,,,,,,,,,,,,,,,,,,,,,,,,,,,,,,,,,,,,,,,,,,,,,,,,2,0,78.98626749999676,,,,,,,,135.9933572000009,None,"['2', '3']",1,"[-0.0254209000049741, 0.15380690000165487]",135.9933572000009,None,,001,2022_Nov_17_1318,TMT_fmri,2021.2.3,143.71346982557696,
TMTstop-A_1_2.xlsx,26:52,17,['1'],1,TMTstop-A_1_2linestimulus14.png,TMTstop-A_1_2greenlinestimulus14.png,TMTstop-A_1_2redlinestimulus14.png,TMT_A,2,42,None,2,,,,,,,,,0,1,1,1,0,16,16,16,,,,,,,,,,,,,,,,,,,,,,,,,,,,,,,,,,,,,,,,,,,,,,,,,,,,,,,1,1,79.15644449999672,,,,,,,,136.2226559999981,None,['1'],1,[0.12478859999828273],136.2226559999981,None,,001,2022_Nov_17_1318,TMT_fmri,2021.2.3,143.71346982557696,
TMTstop-A_1_2.xlsx,26:52,18,['2'],2,TMTstop-A_1_2linestimulus15.png,TMTstop-A_1_2greenlinestimulus15.png,TMTstop-A_1_2redlinestimulus15.png,TMT_A,2,43,None,2,,,,,,,,,0,1,1,1,0,17,17,17,,,,,,,,,,,,,,,,,,,,,,,,,,,,,,,,,,,,,,,,,,,,,,,,,,,,,,,1,1,79.23210859999381,,,,,,,,136.39013680000062,None,['2'],1,[0.036644299994804896],136.39013680000062,None,,001,2022_Nov_17_1318,TMT_fmri,2021.2.3,143.71346982557696,
TMTstop-A_1_2.xlsx,26:52,19,['1'],1,TMTstop-A_1_2linestimulus16.png,TMTstop-A_1_2greenlinestimulus16.png,TMTstop-A_1_2redlinestimulus16.png,TMT_A,2,44,None,2,,,,,,,,,0,1,1,1,0,18,18,18,,,,,,,,,,,,,,,,,,,,,,,,,,,,,,,,,,,,,,,,,,,,,,,,,,,,,,,2,0,79.7169941999964,,,,,,,,136.46672799999942,None,"['3', '1']",1,"[0.10263200000190409, 0.44200160000036703]",136.46672799999942,None,,001,2022_Nov_17_1318,TMT_fmri,2021.2.3,143.71346982557696,
TMTstop-A_1_2.xlsx,26:52,20,['2'],2,TMTstop-A_1_2linestimulus17.png,TMTstop-A_1_2greenlinestimulus17.png,TMTstop-A_1_2redlinestimulus17.png,TMT_A,2,45,None,2,,,,,,,,,0,1,1,1,0,19,19,19,,,,,,,,,,,,,,,,,,,,,,,,,,,,,,,,,,,,,,,,,,,,,,,,,,,,,,,1,1,79.75896009999997,,,,,,,,136.9532904000007,None,['2'],1,[-0.027738299999327864],136.9532904000007,None,,001,2022_Nov_17_1318,TMT_fmri,2021.2.3,143.71346982557696,
TMTstop-A_1_2.xlsx,26:52,21,['3'],3,TMTstop-A_1_2linestimulus18.png,TMTstop-A_1_2greenlinestimulus18.png,TMTstop-A_1_2redlinestimulus18.png,TMT_A,2,46,None,2,,,,,,,,,0,1,1,1,0,20,20,20,,,,,,,,,,,,,,,,,,,,,,,,,,,,,,,,,,,,,,,,,,,,,,,,,,,,,,,1,1,79.85988129999896,,,,,,,,136.9961645000003,None,['3'],1,[0.059339399995224085],136.9961645000003,None,,001,2022_Nov_17_1318,TMT_fmri,2021.2.3,143.71346982557696,
TMTstop-A_1_2.xlsx,26:52,22,['2'],2,TMTstop-A_1_2linestimulus19.png,TMTstop-A_1_2greenlinestimulus19.png,TMTstop-A_1_2redlinestimulus19.png,TMT_A,2,47,None,2,,,,,,,,,0,1,1,1,0,21,21,21,,,,,,,,,,,,,,,,,,,,,,,,,,,,,,,,,,,,,,,,,,,,,,,,,,,,,,,2,0,80.10967229999369,,,,,,,,137.09752049999952,None,"['1', '2']",1,"[0.12720830000034766, 0.16895539999677567]",137.09752049999952,None,,001,2022_Nov_17_1318,TMT_fmri,2021.2.3,143.71346982557696,
TMTstop-A_1_2.xlsx,26:52,23,['3'],3,TMTstop-A_1_2linestimulus20.png,TMTstop-A_1_2greenlinestimulus20.png,TMTstop-A_1_2redlinestimulus20.png,TMT_A,2,48,None,2,,,,,,,,,0,1,1,1,0,22,22,22,,,,,,,,,,,,,,,,,,,,,,,,,,,,,,,,,,,,,,,,,,,,,,,,,,,,,,,1,1,80.23402399999759,,,,,,,,137.34394440000324,None,['3'],1,[0.0785909000042011],137.34394440000324,None,,001,2022_Nov_17_1318,TMT_fmri,2021.2.3,143.71346982557696,
TMTstop-A_1_2.xlsx,26:52,24,['2'],2,TMTstop-A_1_2linestimulus21.png,TMTstop-A_1_2greenlinestimulus21.png,TMTstop-A_1_2redlinestimulus21.png,TMT_A,2,49,None,2,,,,,,,,,0,1,1,1,0,23,23,23,,,,,,,,,,,,,,,,,,,,,,,,,,,,,,,,,,,,,,,,,,,,,,,,,,,,,,,2,0,80.47624679999717,,,,,,,,137.46851620000234,None,"['1', '2']",1,"[0.12970359999599168, 0.17464099999779137]",137.46851620000234,None,,001,2022_Nov_17_1318,TMT_fmri,2021.2.3,143.71346982557696,
TMTstop-A_1_2.xlsx,26:52,25,['3'],3,TMTstop-A_1_2linestimulus22.png,TMTstop-A_1_2greenlinestimulus22.png,TMTstop-A_1_2redlinestimulus22.png,TMT_A,2,50,None,2,,,,,,,,,0,1,1,1,0,24,24,24,,,,,,,,,,,,,,,,,,,,,,,,,,,,,,,,,,,,,,,,,,,,,,,,,,,,,,,1,1,80.58895529999427,,,,,,,,137.7123008999988,None,['3'],1,[0.06924740000249585],137.7123008999988,None,,001,2022_Nov_17_1318,TMT_fmri,2021.2.3,143.71346982557696,
TMTstop-A_1_2.xlsx,26:52,None,None,None,TMTstop-A_1_2linestimulus23.png,TMTstop-A_1_2greenlinestimulus23.png,TMTstop-A_1_2redlinestimulus23.png,TMT_A,2,Feedback_last,None,2,,,,,,,,,0,1,1,1,0,25,25,25,,,,,,,,,,,,,,,,,,,,,,,,,,,,,,,,,,,,,,,,,,,,,,,,,,,,,,,6,0,,,,,,,,,137.82533620000322,None,"['1', '2', '3', '1', '2', '3']",0,"[0.10195870000461582, 0.16224630000215257, 0.267035400000168, 0.41130340000381693, 0.4740170000004582, 0.5981023000058485]",137.82533620000322,None,,001,2022_Nov_17_1318,TMT_fmri,2021.2.3,143.71346982557696,
TMTstop-A_1_3.xlsx,52:78,1,['1'],1,TMTstop-A_1_3.png,TMTstop-A_1_3.png,TMTstop-A_1_3.png,TMT_A,3,51,None,2,,,,,,,,,0,2,2,2,0,0,0,0,,,,,,,,,,,,,,,,,,,,,,,,,,,,,,,,,,,,,,,,,,,,,,,,,,,,,,,1,1,85.65909419999662,,,,,,,,141.96974539999792,None,['1'],1,[0.879065900000569],141.96974539999792,None,,001,2022_Nov_17_1318,TMT_fmri,2021.2.3,143.71346982557696,
TMTstop-A_1_3.xlsx,52:78,2,['3'],3,TMTstop-A_1_3.png,TMTstop-A_1_3firstgreen.png,TMTstop-A_1_3firstred.png,TMT_A,3,52,None,2,,,,,,,,,0,2,2,2,0,1,1,1,,,,,,,,,,,,,,,,,,,,,,,,,,,,,,,,,,,,,,,,,,,,,,,,,,,,,,,2,0,85.85709409999981,,,,,,,,142.89522109999962,None,"['2', '3']",1,"[0.045368899998720735, 0.1368612000005669]",142.89522109999962,None,,001,2022_Nov_17_1318,TMT_fmri,2021.2.3,143.71346982557696,
TMTstop-A_1_3.xlsx,52:78,3,['2'],2,TMTstop-A_1_3linestimulus0.png,TMTstop-A_1_3greenlinestimulus0.png,TMTstop-A_1_3redlinestimulus0.png,TMT_A,3,53,None,2,,,,,,,,,0,2,2,2,0,2,2,2,,,,,,,,,,,,,,,,,,,,,,,,,,,,,,,,,,,,,,,,,,,,,,,,,,,,,,,2,0,86.05994849999843,,,,,,,,143.08949669999856,None,"['1', '2']",1,"[0.09287369999947259, 0.15013940000062576]",143.08949669999856,None,,001,2022_Nov_17_1318,TMT_fmri,2021.2.3,143.71346982557696,
TMTstop-A_1_3.xlsx,52:78,4,['3'],3,TMTstop-A_1_3linestimulus1.png,TMTstop-A_1_3greenlinestimulus1.png,TMTstop-A_1_3redlinestimulus1.png,TMT_A,3,54,None,2,,,,,,,,,0,2,2,2,0,3,3,3,,,,,,,,,,,,,,,,,,,,,,,,,,,,,,,,,,,,,,,,,,,,,,,,,,,,,,,1,1,86.14908449999348,,,,,,,,143.29534489999787,None,['3'],1,[0.04897309999796562],143.29534489999787,None,,001,2022_Nov_17_1318,TMT_fmri,2021.2.3,143.71346982557696,
TMTstop-A_1_3.xlsx,52:78,5,['2'],2,TMTstop-A_1_3linestimulus2.png,TMTstop-A_1_3greenlinestimulus2.png,TMTstop-A_1_3redlinestimulus2.png,TMT_A,3,55,None,2,,,,,,,,,0,2,2,2,0,4,4,4,,,,,,,,,,,,,,,,,,,,,,,,,,,,,,,,,,,,,,,,,,,,,,,,,,,,,,,2,0,86.3431025999962,,,,,,,,143.38619800000015,None,"['1', '2']",1,"[0.10042329999851063, 0.1399569999994128]",143.38619800000015,None,,001,2022_Nov_17_1318,TMT_fmri,2021.2.3,143.71346982557696,
TMTstop-A_1_3.xlsx,52:78,6,['1'],1,TMTstop-A_1_3linestimulus3.png,TMTstop-A_1_3greenlinestimulus3.png,TMTstop-A_1_3redlinestimulus3.png,TMT_A,3,56,None,2,,,,,,,,,0,2,2,2,0,5,5,5,,,,,,,,,,,,,,,,,,,,,,,,,,,,,,,,,,,,,,,,,,,,,,,,,,,,,,,5,0,86.91571529999783,,,,,,,,143.5858051000032,None,"['3', '1', '2', '3', '1']",1,"[0.06508210000174586, 0.18838859999959823, 0.22136860000318848, 0.3547084000019822, 0.4958403000055114]",143.5858051000032,None,,001,2022_Nov_17_1318,TMT_fmri,2021.2.3,143.71346982557696,
TMTstop-A_1_3.xlsx,52:78,7,['3'],3,TMTstop-A_1_3linestimulus4.png,TMTstop-A_1_3greenlinestimulus4.png,TMTstop-A_1_3redlinestimulus4.png,TMT_A,3,57,None,2,,,,,,,,,0,2,2,2,0,6,6,6,,,,,,,,,,,,,,,,,,,,,,,,,,,,,,,,,,,,,,,,,,,,,,,,,,,,,,,2,0,87.085699999996,,,,,,,,144.154944599999,None,"['2', '3']",1,"[-0.037827200001629535, 0.11576010000135284]",144.154944599999,None,,001,2022_Nov_17_1318,TMT_fmri,2021.2.3,143.71346982557696,
TMTstop-A_1_3.xlsx,52:78,8,['1'],1,TMTstop-A_1_3linestimulus5.png,TMTstop-A_1_3greenlinestimulus5.png,TMTstop-A_1_3redlinestimulus5.png,TMT_A,3,58,None,2,,,,,,,,,0,2,2,2,0,7,7,7,,,,,,,,,,,,,,,,,,,,,,,,,,,,,,,,,,,,,,,,,,,,,,,,,,,,,,,1,1,87.2966826999982,,,,,,,,144.32510270000057,None,['1'],1,[0.16260609999881126],144.32510270000057,None,,001,2022_Nov_17_1318,TMT_fmri,2021.2.3,143.71346982557696,
TMTstop-A_1_3.xlsx,52:78,9,['3'],3,TMTstop-A_1_3linestimulus6.png,TMTstop-A_1_3greenlinestimulus6.png,TMTstop-A_1_3redlinestimulus6.png,TMT_A,3,59,None,2,,,,,,,,,0,2,2,2,0,8,8,8,,,,,,,,,,,,,,,,,,,,,,,,,,,,,,,,,,,,,,,,,,,,,,,,,,,,,,,2,0,87.57264369999757,,,,,,,,144.54890700000396,None,"['2', '3']",1,"[0.005058999995526392, 0.1669370000017807]",144.54890700000396,None,,001,2022_Nov_17_1318,TMT_fmri,2021.2.3,143.71346982557696,
TMTstop-A_1_3.xlsx,52:78,10,['2'],2,TMTstop-A_1_3linestimulus7.png,TMTstop-A_1_3greenlinestimulus7.png,TMTstop-A_1_3redlinestimulus7.png,TMT_A,3,60,None,2,,,,,,,,,0,2,2,2,0,9,9,9,,,,,,,,,,,,,,,,,,,,,,,,,,,,,,,,,,,,,,,,,,,,,,,,,,,,,,,2,0,87.78463649999321,,,,,,,,144.8204160000023,None,"['1', '2']",1,"[0.0596813000011025, 0.11894509999547154]",144.8204160000023,None,,001,2022_Nov_17_1318,TMT_fmri,2021.2.3,143.71346982557696,
TMTstop-A_1_3.xlsx,52:78,11,['3'],3,TMTstop-A_1_3linestimulus8.png,TMTstop-A_1_3greenlinestimulus8.png,TMTstop-A_1_3redlinestimulus8.png,TMT_A,3,61,None,2,,,,,,,,,0,2,2,2,0,10,10,10,,,,,,,,,,,,,,,,,,,,,,,,,,,,,,,,,,,,,,,,,,,,,,,,,,,,,,,1,1,87.88666209999792,,,,,,,,145.03034270000353,None,['3'],1,[0.05178430000523804],145.03034270000353,None,,001,2022_Nov_17_1318,TMT_fmri,2021.2.3,143.71346982557696,
TMTstop-A_1_3.xlsx,52:78,12,['2'],2,TMTstop-A_1_3linestimulus9.png,TMTstop-A_1_3greenlinestimulus9.png,TMTstop-A_1_3redlinestimulus9.png,TMT_A,3,62,None,2,,,,,,,,,0,2,2,2,0,11,11,11,,,,,,,,,,,,,,,,,,,,,,,,,,,,,,,,,,,,,,,,,,,,,,,,,,,,,,,2,0,88.11668169999757,,,,,,,,145.1242646000028,None,"['1', '2']",1,"[0.10138369999913266, 0.15553530000033788]",145.1242646000028,None,,001,2022_Nov_17_1318,TMT_fmri,2021.2.3,143.71346982557696,
TMTstop-A_1_3.xlsx,52:78,13,['1'],1,TMTstop-A_1_3linestimulus10.png,TMTstop-A_1_3greenlinestimulus10.png,TMTstop-A_1_3redlinestimulus10.png,TMT_A,3,63,None,2,,,,,,,,,0,2,2,2,0,12,12,12,,,,,,,,,,,,,,,,,,,,,,,,,,,,,,,,,,,,,,,,,,,,,,,,,,,,,,,2,0,88.39065769999434,,,,,,,,145.3571140999993,None,"['3', '1']",1,"[0.06484469999850262, 0.19523559999652207]",145.3571140999993,None,,001,2022_Nov_17_1318,TMT_fmri,2021.2.3,143.71346982557696,
TMTstop-A_1_3.xlsx,52:78,14,['2'],2,TMTstop-A_1_3linestimulus11.png,TMTstop-A_1_3greenlinestimulus11.png,TMTstop-A_1_3redlinestimulus11.png,TMT_A,3,64,None,2,,,,,,,,,0,2,2,2,0,13,13,13,,,,,,,,,,,,,,,,,,,,,,,,,,,,,,,,,,,,,,,,,,,,,,,,,,,,,,,1,1,88.43170679999457,,,,,,,,145.62600969999767,None,['2'],1,[-0.020376100001158193],145.62600969999767,None,,001,2022_Nov_17_1318,TMT_fmri,2021.2.3,143.71346982557696,
TMTstop-A_1_3.xlsx,52:78,15,['3'],3,TMTstop-A_1_3linestimulus12.png,TMTstop-A_1_3greenlinestimulus12.png,TMTstop-A_1_3redlinestimulus12.png,TMT_A,3,65,None,2,,,,,,,,,0,2,2,2,0,14,14,14,,,,,,,,,,,,,,,,,,,,,,,,,,,,,,,,,,,,,,,,,,,,,,,,,,,,,,,1,1,88.55069349999394,,,,,,,,145.6675361000016,None,['3'],1,[0.07788749999599531],145.6675361000016,None,,001,2022_Nov_17_1318,TMT_fmri,2021.2.3,143.71346982557696,
TMTstop-A_1_3.xlsx,52:78,16,['2'],2,TMTstop-A_1_3linestimulus13.png,TMTstop-A_1_3greenlinestimulus13.png,TMTstop-A_1_3redlinestimulus13.png,TMT_A,3,66,None,2,,,,,,,,,0,2,2,2,0,15,15,15,,,,,,,,,,,,,,,,,,,,,,,,,,,,,,,,,,,,,,,,,,,,,,,,,,,,,,,2,0,88.75969649999752,,,,,,,,145.7838774999982,None,"['1', '2']",1,"[0.08889999999519205, 0.14784700000018347]",145.7838774999982,None,,001,2022_Nov_17_1318,TMT_fmri,2021.2.3,143.71346982557696,
TMTstop-A_1_3.xlsx,52:78,17,['3'],3,TMTstop-A_1_3linestimulus14.png,TMTstop-A_1_3greenlinestimulus14.png,TMTstop-A_1_3redlinestimulus14.png,TMT_A,3,67,None,2,,,,,,,,,0,2,2,2,0,16,16,16,,,,,,,,,,,,,,,,,,,,,,,,,,,,,,,,,,,,,,,,,,,,,,,,,,,,,,,1,1,88.88467399999354,,,,,,,,146.0001706999974,None,['3'],1,[0.07531230000313371],146.0001706999974,None,,001,2022_Nov_17_1318,TMT_fmri,2021.2.3,143.71346982557696,
TMTstop-A_1_3.xlsx,52:78,18,['2'],2,TMTstop-A_1_3linestimulus15.png,TMTstop-A_1_3greenlinestimulus15.png,TMTstop-A_1_3redlinestimulus15.png,TMT_A,3,68,None,2,,,,,,,,,0,2,2,2,0,17,17,17,,,,,,,,,,,,,,,,,,,,,,,,,,,,,,,,,,,,,,,,,,,,,,,,,,,,,,,2,0,89.10667299999477,,,,,,,,146.12188040000183,None,"['1', '2']",1,"[0.09502950000023702, 0.1441467000040575]",146.12188040000183,None,,001,2022_Nov_17_1318,TMT_fmri,2021.2.3,143.71346982557696,
TMTstop-A_1_3.xlsx,52:78,19,['3'],3,TMTstop-A_1_3linestimulus16.png,TMTstop-A_1_3greenlinestimulus16.png,TMTstop-A_1_3redlinestimulus16.png,TMT_A,3,69,None,2,,,,,,,,,0,2,2,2,0,18,18,18,,,,,,,,,,,,,,,,,,,,,,,,,,,,,,,,,,,,,,,,,,,,,,,,,,,,,,,1,1,89.22870709999552,,,,,,,,146.34397510000417,None,['3'],1,[0.07495609999750741],146.34397510000417,None,,001,2022_Nov_17_1318,TMT_fmri,2021.2.3,143.71346982557696,
TMTstop-A_1_3.xlsx,52:78,20,['1'],1,TMTstop-A_1_3linestimulus17.png,TMTstop-A_1_3greenlinestimulus17.png,TMTstop-A_1_3redlinestimulus17.png,TMT_A,3,70,None,2,,,,,,,,,0,2,2,2,0,19,19,19,,,,,,,,,,,,,,,,,,,,,,,,,,,,,,,,,,,,,,,,,,,,,,,,,,,,,,,4,0,89.88463809999666,,,,,,,,146.46836389999953,None,"['2', '3', '2', '1']",1,"[0.18842149999545654, 0.43759489999501966, 0.5943840999971144, 0.5985222999952384]",146.46836389999953,None,,001,2022_Nov_17_1318,TMT_fmri,2021.2.3,143.71346982557696,
TMTstop-A_1_3.xlsx,52:78,21,['2'],2,TMTstop-A_1_3linestimulus18.png,TMTstop-A_1_3greenlinestimulus18.png,TMTstop-A_1_3redlinestimulus18.png,TMT_A,3,71,None,2,,,,,,,,,0,2,2,2,0,20,20,20,,,,,,,,,,,,,,,,,,,,,,,,,,,,,,,,,,,,,,,,,,,,,,,,,,,,,,,3,0,90.24863139999798,,,,,,,,147.12395539999852,None,"['3', '1', '2']",1,"[0.05776280000281986, 0.23535679999622516, 0.31051229999866337]",147.12395539999852,None,,001,2022_Nov_17_1318,TMT_fmri,2021.2.3,143.71346982557696,
TMTstop-A_1_3.xlsx,52:78,22,['3'],3,TMTstop-A_1_3linestimulus19.png,TMTstop-A_1_3greenlinestimulus19.png,TMTstop-A_1_3redlinestimulus19.png,TMT_A,3,72,None,2,,,,,,,,,0,2,2,2,0,21,21,21,,,,,,,,,,,,,,,,,,,,,,,,,,,,,,,,,,,,,,,,,,,,,,,,,,,,,,,3,0,91.02161769999657,,,,,,,,147.4881342000008,None,"['2', '1', '3']",1,"[0.530297099998279, 0.5349934000041685, 0.7138287999987369]",147.4881342000008,None,,001,2022_Nov_17_1318,TMT_fmri,2021.2.3,143.71346982557696,
TMTstop-A_1_3.xlsx,52:78,23,['2'],2,TMTstop-A_1_3linestimulus20.png,TMTstop-A_1_3greenlinestimulus20.png,TMTstop-A_1_3redlinestimulus20.png,TMT_A,3,73,None,2,,,,,,,,,0,2,2,2,0,22,22,22,,,,,,,,,,,,,,,,,,,,,,,,,,,,,,,,,,,,,,,,,,,,,,,,,,,,,,,2,0,91.2566383999947,,,,,,,,148.25589780000155,None,"['1', '2']",1,"[0.11202520000369987, 0.17948489999980666]",148.25589780000155,None,,001,2022_Nov_17_1318,TMT_fmri,2021.2.3,143.71346982557696,
TMTstop-A_1_3.xlsx,52:78,24,['1'],1,TMTstop-A_1_3linestimulus21.png,TMTstop-A_1_3greenlinestimulus21.png,TMTstop-A_1_3redlinestimulus21.png,TMT_A,3,74,None,2,,,,,,,,,0,2,2,2,0,23,23,23,,,,,,,,,,,,,,,,,,,,,,,,,,,,,,,,,,,,,,,,,,,,,,,,,,,,,,,7,0,92.22100419999333,,,,,,,,148.49177339999733,None,"['1', '3', '2', '1', '2', '3', '1']",1,"[0.24326770000334363, 0.24774800000159303, 0.34594640000432264, 0.5666158000021824, 0.6026922000019113, 0.7715996000042651, 0.9164375000036671]",148.49177339999733,None,,001,2022_Nov_17_1318,TMT_fmri,2021.2.3,143.71346982557696,
TMTstop-A_1_3.xlsx,52:78,25,['2'],2,TMTstop-A_1_3linestimulus22.png,TMTstop-A_1_3greenlinestimulus22.png,TMTstop-A_1_3redlinestimulus22.png,TMT_A,3,75,None,2,,,,,,,,,0,2,2,2,0,24,24,24,,,,,,,,,,,,,,,,,,,,,,,,,,,,,,,,,,,,,,,,,,,,,,,,,,,,,,,1,1,92.2890305999972,,,,,,,,149.46980030000122,None,['2'],1,[0.008341799999470823],149.46980030000122,None,,001,2022_Nov_17_1318,TMT_fmri,2021.2.3,143.71346982557696,
TMTstop-A_1_3.xlsx,52:78,None,None,None,TMTstop-A_1_3linestimulus23.png,TMTstop-A_1_3greenlinestimulus23.png,TMTstop-A_1_3redlinestimulus23.png,TMT_A,3,Feedback_last,None,2,,,,,,,,,0,2,2,2,0,25,25,25,,,,,,,,,,,,,,,,,,,,,,,,,,,,,,,,,,,,,,,,,,,,,,,,,,,,,,,7,0,,,,,,,,,149.52312130000064,None,"['3', '1', '2', '3', '1', '2', '3']",0,"[0.08962869999959366, 0.2345872999940184, 0.3005473999946844, 0.43189889999484876, 0.5890279999948689, 0.6335343999962788, 0.7850479999979143]",149.52312130000064,None,,001,2022_Nov_17_1318,TMT_fmri,2021.2.3,143.71346982557696,
TMTstop-Control_1_3.xlsx,52:78,1,['2'],2,TMTstop-control_1_3.png,TMTstop-control_1_3.png,TMTstop-control_1_3.png,TMT_Control,3,51,None,1,,,,,,,,,,,,,,,,,0,0,0,0,0,0,0,0,,,,,,,,,,,,,,,,,,,,,,,,,,,,,,,,,,,,,,,,,,,,,,,2,0,108.13232009999774,163.72565259999828,None,"['1', '2']",1,"[1.4142686999985017, 1.5766435999976238]",163.72565259999828,None,,,,,,,,,001,2022_Nov_17_1318,TMT_fmri,2021.2.3,143.71346982557696,
TMTstop-Control_1_3.xlsx,52:78,2,['1'],1,TMTstop-control_1_3.png,TMTstop-control_1_3firstgreen.png,TMTstop-control_1_3firstred.png,TMT_Control,3,52,None,1,,,,,,,,,,,,,,,,,0,0,0,0,0,1,1,1,,,,,,,,,,,,,,,,,,,,,,,,,,,,,,,,,,,,,,,,,,,,,,,2,0,108.58791519999795,165.3763323000021,None,"['3', '1']",1,"[0.12789530000009108, 0.40608269999938784]",165.3763323000021,None,,,,,,,,,001,2022_Nov_17_1318,TMT_fmri,2021.2.3,143.71346982557696,
TMTstop-Control_1_3.xlsx,52:78,3,['2'],2,TMTstop-control_1_3linestimulus0.png,TMTstop-control_1_3greenlinestimulus0.png,TMTstop-control_1_3redlinestimulus0.png,TMT_Control,3,53,None,1,,,,,,,,,,,,,,,,,0,0,0,0,0,2,2,2,,,,,,,,,,,,,,,,,,,,,,,,,,,,,,,,,,,,,,,,,,,,,,,1,1,108.63104349999776,165.82515660000354,None,['2'],1,[-0.012683000000834],165.82515660000354,None,,,,,,,,,001,2022_Nov_17_1318,TMT_fmri,2021.2.3,143.71346982557696,
TMTstop-Control_1_3.xlsx,52:78,4,['1'],1,TMTstop-control_1_3linestimulus1.png,TMTstop-control_1_3greenlinestimulus1.png,TMTstop-control_1_3redlinestimulus1.png,TMT_Control,3,54,None,1,,,,,,,,,,,,,,,,,0,0,0,0,0,3,3,3,,,,,,,,,,,,,,,,,,,,,,,,,,,,,,,,,,,,,,,,,,,,,,,1,1,109.52967509999871,165.8674022999985,None,['1'],1,[0.8517347000015434],165.8674022999985,None,,,,,,,,,001,2022_Nov_17_1318,TMT_fmri,2021.2.3,143.71346982557696,
TMTstop-Control_1_3.xlsx,52:78,5,['3'],3,TMTstop-control_1_3linestimulus2.png,TMTstop-control_1_3greenlinestimulus2.png,TMTstop-control_1_3redlinestimulus2.png,TMT_Control,3,55,None,1,,,,,,,,,,,,,,,,,0,0,0,0,0,4,4,4,,,,,,,,,,,,,,,,,,,,,,,,,,,,,,,,,,,,,,,,,,,,,,,4,0,111.4020743000001,166.76807330000156,None,"['1', '1', '2', '3']",1,"[0.7167717999982415, 1.3268032999985735, 1.605994700003066, 1.804067999997642]",166.76807330000156,None,,,,,,,,,001,2022_Nov_17_1318,TMT_fmri,2021.2.3,143.71346982557696,
TMTstop-Control_1_3.xlsx,52:78,6,['1'],1,TMTstop-control_1_3linestimulus3.png,TMTstop-control_1_3greenlinestimulus3.png,TMTstop-control_1_3redlinestimulus3.png,TMT_Control,3,56,None,1,,,,,,,,,,,,,,,,,0,0,0,0,0,5,5,5,,,,,,,,,,,,,,,,,,,,,,,,,,,,,,,,,,,,,,,,,,,,,,,1,1,111.62015249999968,168.63658900000155,None,['1'],1,[0.17710770000121556],168.63658900000155,None,,,,,,,,,001,2022_Nov_17_1318,TMT_fmri,2021.2.3,143.71346982557696,
TMTstop-Control_1_3.xlsx,52:78,7,['2'],2,TMTstop-control_1_3linestimulus4.png,TMTstop-control_1_3greenlinestimulus4.png,TMTstop-control_1_3redlinestimulus4.png,TMT_Control,3,57,None,1,,,,,,,,,,,,,,,,,0,0,0,0,0,6,6,6,,,,,,,,,,,,,,,,,,,,,,,,,,,,,,,,,,,,,,,,,,,,,,,1,1,111.68618469999637,168.8721069000021,None,['2'],1,[0.008282800001325086],168.8721069000021,None,,,,,,,,,001,2022_Nov_17_1318,TMT_fmri,2021.2.3,143.71346982557696,
TMTstop-Control_1_3.xlsx,52:78,8,['3'],3,TMTstop-control_1_3linestimulus4.png,TMTstop-control_1_3greenlinestimulus5.png,TMTstop-control_1_3redlinestimulus5.png,TMT_Control,3,58,None,1,,,,,,,,,,,,,,,,,0,0,0,0,0,7,7,7,,,,,,,,,,,,,,,,,,,,,,,,,,,,,,,,,,,,,,,,,,,,,,,1,1,111.81311239999923,168.93461950000346,None,['3'],1,[0.07115000000339933],168.93461950000346,None,,,,,,,,,001,2022_Nov_17_1318,TMT_fmri,2021.2.3,143.71346982557696,
TMTstop-Control_1_3.xlsx,52:78,9,['1'],1,TMTstop-control_1_3linestimulus6.png,TMTstop-control_1_3greenlinestimulus6.png,TMTstop-control_1_3redlinestimulus6.png,TMT_Control,3,59,None,1,,,,,,,,,,,,,,,,,0,0,0,0,0,8,8,8,,,,,,,,,,,,,,,,,,,,,,,,,,,,,,,,,,,,,,,,,,,,,,,1,1,111.97274689999904,169.0576374000011,None,['1'],1,[0.10945340000034776],169.0576374000011,None,,,,,,,,,001,2022_Nov_17_1318,TMT_fmri,2021.2.3,143.71346982557696,
TMTstop-Control_1_3.xlsx,52:78,10,['2'],2,TMTstop-control_1_3linestimulus7.png,TMTstop-control_1_3greenlinestimulus7.png,TMTstop-control_1_3redlinestimulus7.png,TMT_Control,3,60,None,1,,,,,,,,,,,,,,,,,0,0,0,0,0,9,9,9,,,,,,,,,,,,,,,,,,,,,,,,,,,,,,,,,,,,,,,,,,,,,,,1,1,112.02470439999888,169.218386200002,None,['2'],1,[0.0007160000022849999],169.218386200002,None,,,,,,,,,001,2022_Nov_17_1318,TMT_fmri,2021.2.3,143.71346982557696,
TMTstop-Control_1_3.xlsx,52:78,11,['1'],1,TMTstop-control_1_3linestimulus8.png,TMTstop-control_1_3greenlinestimulus8.png,TMTstop-control_1_3redlinestimulus8.png,TMT_Control,3,61,None,1,,,,,,,,,,,,,,,,,0,0,0,0,0,10,10,10,,,,,,,,,,,,,,,,,,,,,,,,,,,,,,,,,,,,,,,,,,,,,,,5,0,112.70325499999308,169.26578660000087,None,"['3', '1', '2', '3', '1']",1,"[0.08816820000356529, 0.24187040000106208, 0.2795265000022482, 0.45238180000160355, 0.6093088000052376]",169.26578660000087,None,,,,,,,,,001,2022_Nov_17_1318,TMT_fmri,2021.2.3,143.71346982557696,
TMTstop-Control_1_3.xlsx,52:78,12,['2'],2,TMTstop-control_1_3linestimulus9.png,TMTstop-control_1_3greenlinestimulus9.png,TMTstop-control_1_3redlinestimulus9.png,TMT_Control,3,62,None,1,,,,,,,,,,,,,,,,,0,0,0,0,0,11,11,11,,,,,,,,,,,,,,,,,,,,,,,,,,,,,,,,,,,,,,,,,,,,,,,1,1,112.7808642999953,169.9404316,None,['2'],1,[0.03163289999793051],169.9404316,None,,,,,,,,,001,2022_Nov_17_1318,TMT_fmri,2021.2.3,143.71346982557696,
TMTstop-Control_1_3.xlsx,52:78,13,['3'],3,TMTstop-control_1_3linestimulus10.png,TMTstop-control_1_3greenlinestimulus10.png,TMTstop-control_1_3redlinestimulus10.png,TMT_Control,3,63,None,1,,,,,,,,,,,,,,,,,0,0,0,0,0,12,12,12,,,,,,,,,,,,,,,,,,,,,,,,,,,,,,,,,,,,,,,,,,,,,,,1,1,112.91380979999667,170.01430580000306,None,['3'],1,[0.0948629999984405],170.01430580000306,None,,,,,,,,,001,2022_Nov_17_1318,TMT_fmri,2021.2.3,143.71346982557696,
TMTstop-Control_1_3.xlsx,52:78,14,['2'],2,TMTstop-control_1_3linestimulus11.png,TMTstop-control_1_3greenlinestimulus11.png,TMTstop-control_1_3redlinestimulus11.png,TMT_Control,3,64,None,1,,,,,,,,,,,,,,,,,0,0,0,0,0,13,13,13,,,,,,,,,,,,,,,,,,,,,,,,,,,,,,,,,,,,,,,,,,,,,,,2,0,113.20475309999892,170.1474436999997,None,"['1', '2']",1,"[0.16924910000670934, 0.2144551000019419]",170.1474436999997,None,,,,,,,,,001,2022_Nov_17_1318,TMT_fmri,2021.2.3,143.71346982557696,
TMTstop-Control_1_3.xlsx,52:78,15,['1'],1,TMTstop-control_1_3linestimulus12.png,TMTstop-control_1_3greenlinestimulus12.png,TMTstop-control_1_3redlinestimulus12.png,TMT_Control,3,65,None,1,,,,,,,,,,,,,,,,,0,0,0,0,0,14,14,14,,,,,,,,,,,,,,,,,,,,,,,,,,,,,,,,,,,,,,,,,,,,,,,2,0,113.61179449999327,170.4455758999975,None,"['3', '1']",1,"[0.08560569999826839, 0.3456183000016608]",170.4455758999975,None,,,,,,,,,001,2022_Nov_17_1318,TMT_fmri,2021.2.3,143.71346982557696,
TMTstop-Control_1_3.xlsx,52:78,16,['3'],3,TMTstop-control_1_3linestimulus13.png,TMTstop-control_1_3greenlinestimulus13.png,TMTstop-control_1_3redlinestimulus13.png,TMT_Control,3,66,None,1,,,,,,,,,,,,,,,,,0,0,0,0,0,15,15,15,,,,,,,,,,,,,,,,,,,,,,,,,,,,,,,,,,,,,,,,,,,,,,,2,0,113.80687279999984,170.84609199999977,None,"['2', '3']",1,"[-0.030300899998110253, 0.12505239999882178]",170.84609199999977,None,,,,,,,,,001,2022_Nov_17_1318,TMT_fmri,2021.2.3,143.71346982557696,
TMTstop-Control_1_3.xlsx,52:78,17,['1'],1,TMTstop-control_1_3linestimulus14.png,TMTstop-control_1_3greenlinestimulus14.png,TMTstop-control_1_3redlinestimulus14.png,TMT_Control,3,67,None,1,,,,,,,,,,,,,,,,,0,0,0,0,0,16,16,16,,,,,,,,,,,,,,,,,,,,,,,,,,,,,,,,,,,,,,,,,,,,,,,1,1,113.9567895999935,171.0499966999996,None,['1'],1,[0.1013262999986182],171.0499966999996,None,,,,,,,,,001,2022_Nov_17_1318,TMT_fmri,2021.2.3,143.71346982557696,
TMTstop-Control_1_3.xlsx,52:78,18,['3'],3,TMTstop-control_1_3linestimulus15.png,TMTstop-control_1_3greenlinestimulus15.png,TMTstop-control_1_3redlinestimulus15.png,TMT_Control,3,68,None,1,,,,,,,,,,,,,,,,,0,0,0,0,0,17,17,17,,,,,,,,,,,,,,,,,,,,,,,,,,,,,,,,,,,,,,,,,,,,,,,2,0,114.17872629999329,171.19074170000385,None,"['2', '3']",1,"[0.03200240000296617, 0.16165140000521205]",171.19074170000385,None,,,,,,,,,001,2022_Nov_17_1318,TMT_fmri,2021.2.3,143.71346982557696,
TMTstop-Control_1_3.xlsx,52:78,19,['2'],2,TMTstop-control_1_3linestimulus16.png,TMTstop-control_1_3greenlinestimulus16.png,TMTstop-control_1_3redlinestimulus16.png,TMT_Control,3,69,None,1,,,,,,,,,,,,,,,,,0,0,0,0,0,18,18,18,,,,,,,,,,,,,,,,,,,,,,,,,,,,,,,,,,,,,,,,,,,,,,,2,0,114.57871469999372,171.41866080000182,None,"['1', '2']",1,"[0.24868950000382029, 0.3447870000018156]",171.41866080000182,None,,,,,,,,,001,2022_Nov_17_1318,TMT_fmri,2021.2.3,143.71346982557696,
TMTstop-Control_1_3.xlsx,52:78,20,['1'],1,TMTstop-control_1_3linestimulus17.png,TMTstop-control_1_3greenlinestimulus17.png,TMTstop-control_1_3redlinestimulus17.png,TMT_Control,3,70,None,1,,,,,,,,,,,,,,,,,0,0,0,0,0,19,19,19,,,,,,,,,,,,,,,,,,,,,,,,,,,,,,,,,,,,,,,,,,,,,,,2,0,114.95481079999445,171.81494979999843,None,"['3', '1']",1,"[0.05678849999821978, 0.29773820000264095]",171.81494979999843,None,,,,,,,,,001,2022_Nov_17_1318,TMT_fmri,2021.2.3,143.71346982557696,
TMTstop-Control_1_3.xlsx,52:78,21,['3'],3,TMTstop-control_1_3linestimulus18.png,TMTstop-control_1_3greenlinestimulus18.png,TMTstop-control_1_3redlinestimulus18.png,TMT_Control,3,71,None,1,,,,,,,,,,,,,,,,,0,0,0,0,0,20,20,20,,,,,,,,,,,,,,,,,,,,,,,,,,,,,,,,,,,,,,,,,,,,,,,1,1,115.10985969999456,172.1919596000007,None,['3'],1,[0.11299739999958547],172.1919596000007,None,,,,,,,,,001,2022_Nov_17_1318,TMT_fmri,2021.2.3,143.71346982557696,
TMTstop-Control_1_3.xlsx,52:78,22,['2'],2,TMTstop-control_1_3linestimulus19.png,TMTstop-control_1_3greenlinestimulus19.png,TMTstop-control_1_3redlinestimulus19.png,TMT_Control,3,72,None,1,,,,,,,,,,,,,,,,,0,0,0,0,0,21,21,21,,,,,,,,,,,,,,,,,,,,,,,,,,,,,,,,,,,,,,,,,,,,,,,2,0,115.39983079999365,172.34669849999773,None,"['1', '2']",1,"[0.20637739999801852, 0.2186333999998169]",172.34669849999773,None,,,,,,,,,001,2022_Nov_17_1318,TMT_fmri,2021.2.3,143.71346982557696,
TMTstop-Control_1_3.xlsx,52:78,23,['3'],3,TMTstop-control_1_3linestimulus20.png,TMTstop-control_1_3greenlinestimulus20.png,TMTstop-control_1_3redlinestimulus20.png,TMT_Control,3,73,None,1,,,,,,,,,,,,,,,,,0,0,0,0,0,22,22,22,,,,,,,,,,,,,,,,,,,,,,,,,,,,,,,,,,,,,,,,,,,,,,,1,1,115.50251339999522,172.63756979999744,None,['3'],1,[0.054605299999821],172.63756979999744,None,,,,,,,,,001,2022_Nov_17_1318,TMT_fmri,2021.2.3,143.71346982557696,
TMTstop-Control_1_3.xlsx,52:78,24,['1'],1,TMTstop-control_1_3linestimulus21.png,TMTstop-control_1_3greenlinestimulus21.png,TMTstop-control_1_3redlinestimulus21.png,TMT_Control,3,74,None,1,,,,,,,,,,,,,,,,,0,0,0,0,0,23,23,23,,,,,,,,,,,,,,,,,,,,,,,,,,,,,,,,,,,,,,,,,,,,,,,1,1,115.65341949999856,172.73813979999977,None,['1'],1,[0.10721470000135014],172.73813979999977,None,,,,,,,,,001,2022_Nov_17_1318,TMT_fmri,2021.2.3,143.71346982557696,
TMTstop-Control_1_3.xlsx,52:78,25,['2'],2,TMTstop-control_1_3linestimulus22.png,TMTstop-control_1_3greenlinestimulus22.png,TMTstop-control_1_3redlinestimulus22.png,TMT_Control,3,75,None,1,,,,,,,,,,,,,,,,,0,0,0,0,0,24,24,24,,,,,,,,,,,,,,,,,,,,,,,,,,,,,,,,,,,,,,,,,,,,,,,1,1,115.71737539999594,172.8897752999983,None,['2'],1,[0.017906000000948552],172.8897752999983,None,,,,,,,,,001,2022_Nov_17_1318,TMT_fmri,2021.2.3,143.71346982557696,
TMTstop-Control_1_3.xlsx,52:78,None,None,None,TMTstop-control_1_3linestimulus23.png,TMTstop-control_1_3greenlinestimulus23.png,TMTstop-control_1_3redlinestimulus23.png,TMT_Control,3,Feedback_last,None,1,,,,,,,,,,,,,,,,,0,0,0,0,0,25,25,25,,,,,,,,,,,,,,,,,,,,,,,,,,,,,,,,,,,,,,,,,,,,,,,2,0,,172.95278150000377,None,"['3', '1']",0,"[0.07373760000336915, 0.2412874000001466]",172.95278150000377,None,,,,,,,,,001,2022_Nov_17_1318,TMT_fmri,2021.2.3,143.71346982557696,
TMTstop-Control_1_4.xlsx,78:104,1,['2'],2,TMTstop-control_1_4.png,TMTstop-control_1_4.png,TMTstop-control_1_4.png,TMT_Control,4,76,None,1,,,,,,,,,,,,,,,,,0,1,1,1,0,0,0,0,,,,,,,,,,,,,,,,,,,,,,,,,,,,,,,,,,,,,,,,,,,,,,,2,0,120.62871279999672,177.08558749999793,None,"['1', '2']",1,"[0.6256806000019424, 0.7153035000010277]",177.08558749999793,None,,,,,,,,,001,2022_Nov_17_1318,TMT_fmri,2021.2.3,143.71346982557696,
TMTstop-Control_1_4.xlsx,78:104,2,['1'],1,TMTstop-control_1_4.png,TMTstop-control_1_4firstgreen.png,TMTstop-control_1_4firstred.png,TMT_Control,4,77,None,1,,,,,,,,,,,,,,,,,0,1,1,1,0,1,1,1,,,,,,,,,,,,,,,,,,,,,,,,,,,,,,,,,,,,,,,,,,,,,,,2,0,120.84664749999502,177.86338100000285,None,"['3', '1']",1,"[0.020647099998313934, 0.14171979999809992]",177.86338100000285,None,,,,,,,,,001,2022_Nov_17_1318,TMT_fmri,2021.2.3,143.71346982557696,
TMTstop-Control_1_4.xlsx,78:104,3,['3'],3,TMTstop-control_1_4linestimulus0.png,TMTstop-control_1_4greenlinestimulus0.png,TMTstop-control_1_4redlinestimulus0.png,TMT_Control,4,78,None,1,,,,,,,,,,,,,,,,,0,1,1,1,0,2,2,2,,,,,,,,,,,,,,,,,,,,,,,,,,,,,,,,,,,,,,,,,,,,,,,2,0,121.02067749999696,178.08815300000424,None,"['2', '3']",1,"[-0.013773699996818323, 0.08772380000300473]",178.08815300000424,None,,,,,,,,,001,2022_Nov_17_1318,TMT_fmri,2021.2.3,143.71346982557696,
TMTstop-Control_1_4.xlsx,78:104,4,['1'],1,TMTstop-control_1_4linestimulus1.png,TMTstop-control_1_4greenlinestimulus1.png,TMTstop-control_1_4redlinestimulus1.png,TMT_Control,4,79,None,1,,,,,,,,,,,,,,,,,0,1,1,1,0,3,3,3,,,,,,,,,,,,,,,,,,,,,,,,,,,,,,,,,,,,,,,,,,,,,,,1,1,121.13567759999569,178.26254840000183,None,['1'],1,[0.06737900000007357],178.26254840000183,None,,,,,,,,,001,2022_Nov_17_1318,TMT_fmri,2021.2.3,143.71346982557696,
TMTstop-Control_1_4.xlsx,78:104,5,['3'],3,TMTstop-control_1_4linestimulus2.png,TMTstop-control_1_4greenlinestimulus2.png,TMTstop-control_1_4redlinestimulus2.png,TMT_Control,4,80,None,1,,,,,,,,,,,,,,,,,0,1,1,1,0,4,4,4,,,,,,,,,,,,,,,,,,,,,,,,,,,,,,,,,,,,,,,,,,,,,,,2,0,121.29780129999563,178.37969229999726,None,"['2', '3']",1,"[-0.030549499999324325, 0.0997570999970776]",178.37969229999726,None,,,,,,,,,001,2022_Nov_17_1318,TMT_fmri,2021.2.3,143.71346982557696,
TMTstop-Control_1_4.xlsx,78:104,6,['1'],1,TMTstop-control_1_4linestimulus3.png,TMTstop-control_1_4greenlinestimulus3.png,TMTstop-control_1_4redlinestimulus3.png,TMT_Control,4,81,None,1,,,,,,,,,,,,,,,,,0,1,1,1,0,5,5,5,,,,,,,,,,,,,,,,,,,,,,,,,,,,,,,,,,,,,,,,,,,,,,,1,1,121.43072609999945,178.55188949999865,None,['1'],1,[0.07440160000260221],178.55188949999865,None,,,,,,,,,001,2022_Nov_17_1318,TMT_fmri,2021.2.3,143.71346982557696,
TMTstop-Control_1_4.xlsx,78:104,7,['3'],3,TMTstop-control_1_4linestimulus4.png,TMTstop-control_1_4greenlinestimulus4.png,TMTstop-control_1_4redlinestimulus4.png,TMT_Control,4,82,None,1,,,,,,,,,,,,,,,,,0,1,1,1,0,6,6,6,,,,,,,,,,,,,,,,,,,,,,,,,,,,,,,,,,,,,,,,,,,,,,,2,0,121.64195829999517,178.68448360000184,None,"['2', '3']",1,"[-0.0250679000018863, 0.10687730000063311]",178.68448360000184,None,,,,,,,,,001,2022_Nov_17_1318,TMT_fmri,2021.2.3,143.71346982557696,
TMTstop-Control_1_4.xlsx,78:104,8,['1'],1,TMTstop-control_1_4linestimulus4.png,TMTstop-control_1_4greenlinestimulus5.png,TMTstop-control_1_4redlinestimulus5.png,TMT_Control,4,83,None,1,,,,,,,,,,,,,,,,,0,1,1,1,0,7,7,7,,,,,,,,,,,,,,,,,,,,,,,,,,,,,,,,,,,,,,,,,,,,,,,1,1,121.7309374999968,178.88502990000416,None,['1'],1,[0.04126959999848623],178.88502990000416,None,,,,,,,,,001,2022_Nov_17_1318,TMT_fmri,2021.2.3,143.71346982557696,
TMTstop-Control_1_4.xlsx,78:104,9,['3'],3,TMTstop-control_1_4linestimulus6.png,TMTstop-control_1_4greenlinestimulus6.png,TMTstop-control_1_4redlinestimulus6.png,TMT_Control,4,84,None,1,,,,,,,,,,,,,,,,,0,1,1,1,0,8,8,8,,,,,,,,,,,,,,,,,,,,,,,,,,,,,,,,,,,,,,,,,,,,,,,2,0,121.95158249999804,178.97423010000057,None,"['2', '3']",1,"[0.11482209999667248, 0.14319289999548346]",178.97423010000057,None,,,,,,,,,001,2022_Nov_17_1318,TMT_fmri,2021.2.3,143.71346982557696,
TMTstop-Control_1_4.xlsx,78:104,10,['2'],2,TMTstop-control_1_4linestimulus7.png,TMTstop-control_1_4greenlinestimulus7.png,TMTstop-control_1_4redlinestimulus7.png,TMT_Control,4,85,None,1,,,,,,,,,,,,,,,,,0,1,1,1,0,9,9,9,,,,,,,,,,,,,,,,,,,,,,,,,,,,,,,,,,,,,,,,,,,,,,,2,0,122.19208319999598,179.19520329999796,None,"['1', '2']",1,"[0.10701439999684226, 0.16483400000288384]",179.19520329999796,None,,,,,,,,,001,2022_Nov_17_1318,TMT_fmri,2021.2.3,143.71346982557696,
TMTstop-Control_1_4.xlsx,78:104,11,['1'],1,TMTstop-control_1_4linestimulus8.png,TMTstop-control_1_4greenlinestimulus8.png,TMTstop-control_1_4redlinestimulus8.png,TMT_Control,4,86,None,1,,,,,,,,,,,,,,,,,0,1,1,1,0,10,10,10,,,,,,,,,,,,,,,,,,,,,,,,,,,,,,,,,,,,,,,,,,,,,,,2,0,122.42911879999883,179.43571969999903,None,"['3', '1']",1,"[0.035352699997019954, 0.17724399999860907]",179.43571969999903,None,,,,,,,,,001,2022_Nov_17_1318,TMT_fmri,2021.2.3,143.71346982557696,
TMTstop-Control_1_4.xlsx,78:104,12,['3'],3,TMTstop-control_1_4linestimulus9.png,TMTstop-control_1_4greenlinestimulus9.png,TMTstop-control_1_4redlinestimulus9.png,TMT_Control,4,87,None,1,,,,,,,,,,,,,,,,,0,1,1,1,0,11,11,11,,,,,,,,,,,,,,,,,,,,,,,,,,,,,,,,,,,,,,,,,,,,,,,2,0,122.66116739999416,179.6708335000003,None,"['2', '3']",1,"[-0.029434199997922406, 0.14778820000356063]",179.6708335000003,None,,,,,,,,,001,2022_Nov_17_1318,TMT_fmri,2021.2.3,143.71346982557696,
TMTstop-Control_1_4.xlsx,78:104,13,['2'],2,TMTstop-control_1_4linestimulus10.png,TMTstop-control_1_4greenlinestimulus10.png,TMTstop-control_1_4redlinestimulus10.png,TMT_Control,4,88,None,1,,,,,,,,,,,,,,,,,0,1,1,1,0,12,12,12,,,,,,,,,,,,,,,,,,,,,,,,,,,,,,,,,,,,,,,,,,,,,,,2,0,123.51213589999679,179.9034593000033,None,"['1', '2']",1,"[0.7296138999954564, 0.7747805999970296]",179.9034593000033,None,,,,,,,,,001,2022_Nov_17_1318,TMT_fmri,2021.2.3,143.71346982557696,
TMTstop-Control_1_4.xlsx,78:104,14,['3'],3,TMTstop-control_1_4linestimulus11.png,TMTstop-control_1_4greenlinestimulus11.png,TMTstop-control_1_4redlinestimulus11.png,TMT_Control,4,89,None,1,,,,,,,,,,,,,,,,,0,1,1,1,0,13,13,13,,,,,,,,,,,,,,,,,,,,,,,,,,,,,,,,,,,,,,,,,,,,,,,1,1,123.59715049999795,180.74954309999885,None,['3'],1,[0.03719469999487046],180.74954309999885,None,,,,,,,,,001,2022_Nov_17_1318,TMT_fmri,2021.2.3,143.71346982557696,
TMTstop-Control_1_4.xlsx,78:104,15,['2'],2,TMTstop-control_1_4linestimulus12.png,TMTstop-control_1_4greenlinestimulus12.png,TMTstop-control_1_4redlinestimulus12.png,TMT_Control,4,90,None,1,,,,,,,,,,,,,,,,,0,1,1,1,0,14,14,14,,,,,,,,,,,,,,,,,,,,,,,,,,,,,,,,,,,,,,,,,,,,,,,2,0,123.7962286999973,180.82945530000143,None,"['1', '2']",1,"[0.11503380000067409, 0.14445519999571843]",180.82945530000143,None,,,,,,,,,001,2022_Nov_17_1318,TMT_fmri,2021.2.3,143.71346982557696,
TMTstop-Control_1_4.xlsx,78:104,16,['1'],1,TMTstop-control_1_4linestimulus13.png,TMTstop-control_1_4greenlinestimulus13.png,TMTstop-control_1_4redlinestimulus13.png,TMT_Control,4,91,None,1,,,,,,,,,,,,,,,,,0,1,1,1,0,15,15,15,,,,,,,,,,,,,,,,,,,,,,,,,,,,,,,,,,,,,,,,,,,,,,,2,0,124.1241732999988,181.03577159999986,None,"['3', '1']",1,"[0.10055629999988014, 0.26944829999411013]",181.03577159999986,None,,,,,,,,,001,2022_Nov_17_1318,TMT_fmri,2021.2.3,143.71346982557696,
TMTstop-Control_1_4.xlsx,78:104,17,['3'],3,TMTstop-control_1_4linestimulus14.png,TMTstop-control_1_4greenlinestimulus14.png,TMTstop-control_1_4redlinestimulus14.png,TMT_Control,4,92,None,1,,,,,,,,,,,,,,,,,0,1,1,1,0,16,16,16,,,,,,,,,,,,,,,,,,,,,,,,,,,,,,,,,,,,,,,,,,,,,,,2,0,124.33622829999513,181.36551809999946,None,"['2', '3']",1,"[0.0008307000025524758, 0.13804220000019995]",181.36551809999946,None,,,,,,,,,001,2022_Nov_17_1318,TMT_fmri,2021.2.3,143.71346982557696,
TMTstop-Control_1_4.xlsx,78:104,18,['1'],1,TMTstop-control_1_4linestimulus15.png,TMTstop-control_1_4greenlinestimulus15.png,TMTstop-control_1_4redlinestimulus15.png,TMT_Control,4,93,None,1,,,,,,,,,,,,,,,,,0,1,1,1,0,17,17,17,,,,,,,,,,,,,,,,,,,,,,,,,,,,,,,,,,,,,,,,,,,,,,,1,1,124.45416519999708,181.57078609999735,None,['1'],1,[0.07929150000563823],181.57078609999735,None,,,,,,,,,001,2022_Nov_17_1318,TMT_fmri,2021.2.3,143.71346982557696,
TMTstop-Control_1_4.xlsx,78:104,19,['2'],2,TMTstop-control_1_4linestimulus16.png,TMTstop-control_1_4greenlinestimulus16.png,TMTstop-control_1_4redlinestimulus16.png,TMT_Control,4,94,None,1,,,,,,,,,,,,,,,,,0,1,1,1,0,18,18,18,,,,,,,,,,,,,,,,,,,,,,,,,,,,,,,,,,,,,,,,,,,,,,,1,1,124.52922839999519,181.6874267000021,None,['2'],1,[0.03156279999529943],181.6874267000021,None,,,,,,,,,001,2022_Nov_17_1318,TMT_fmri,2021.2.3,143.71346982557696,
TMTstop-Control_1_4.xlsx,78:104,20,['1'],1,TMTstop-control_1_4linestimulus17.png,TMTstop-control_1_4greenlinestimulus17.png,TMTstop-control_1_4redlinestimulus17.png,TMT_Control,4,95,None,1,,,,,,,,,,,,,,,,,0,1,1,1,0,19,19,19,,,,,,,,,,,,,,,,,,,,,,,,,,,,,,,,,,,,,,,,,,,,,,,2,0,124.83040019999316,181.76746730000013,None,"['3', '1']",1,"[0.06821889999991981, 0.21917860000394285]",181.76746730000013,None,,,,,,,,,001,2022_Nov_17_1318,TMT_fmri,2021.2.3,143.71346982557696,
TMTstop-Control_1_4.xlsx,78:104,21,['2'],2,TMTstop-control_1_4linestimulus18.png,TMTstop-control_1_4greenlinestimulus18.png,TMTstop-control_1_4redlinestimulus18.png,TMT_Control,4,96,None,1,,,,,,,,,,,,,,,,,0,1,1,1,0,20,20,20,,,,,,,,,,,,,,,,,,,,,,,,,,,,,,,,,,,,,,,,,,,,,,,1,1,124.87839579999854,182.07323429999815,None,['2'],1,[-0.034667200001422316],182.07323429999815,None,,,,,,,,,001,2022_Nov_17_1318,TMT_fmri,2021.2.3,143.71346982557696,
TMTstop-Control_1_4.xlsx,78:104,22,['1'],1,TMTstop-control_1_4linestimulus19.png,TMTstop-control_1_4greenlinestimulus19.png,TMTstop-control_1_4redlinestimulus19.png,TMT_Control,4,97,None,1,,,,,,,,,,,,,,,,,0,1,1,1,0,21,21,21,,,,,,,,,,,,,,,,,,,,,,,,,,,,,,,,,,,,,,,,,,,,,,,2,0,125.13947549999284,182.1210745999997,None,"['3', '1']",1,"[0.04367359999741893, 0.18410579999908805]",182.1210745999997,None,,,,,,,,,001,2022_Nov_17_1318,TMT_fmri,2021.2.3,143.71346982557696,
TMTstop-Control_1_4.xlsx,78:104,23,['2'],2,TMTstop-control_1_4linestimulus20.png,TMTstop-control_1_4greenlinestimulus20.png,TMTstop-control_1_4redlinestimulus20.png,TMT_Control,4,98,None,1,,,,,,,,,,,,,,,,,0,1,1,1,0,22,22,22,,,,,,,,,,,,,,,,,,,,,,,,,,,,,,,,,,,,,,,,,,,,,,,1,1,125.18344939999952,182.37777590000042,None,['2'],1,[-0.01178280000021914],182.37777590000042,None,,,,,,,,,001,2022_Nov_17_1318,TMT_fmri,2021.2.3,143.71346982557696,
TMTstop-Control_1_4.xlsx,78:104,24,['1'],1,TMTstop-control_1_4linestimulus21.png,TMTstop-control_1_4greenlinestimulus21.png,TMTstop-control_1_4redlinestimulus21.png,TMT_Control,4,99,None,1,,,,,,,,,,,,,,,,,0,1,1,1,0,23,23,23,,,,,,,,,,,,,,,,,,,,,,,,,,,,,,,,,,,,,,,,,,,,,,,2,0,125.46812739999586,182.42211320000206,None,"['3', '1']",1,"[0.0895204000044032, 0.22482520000630757]",182.42211320000206,None,,,,,,,,,001,2022_Nov_17_1318,TMT_fmri,2021.2.3,143.71346982557696,
TMTstop-Control_1_4.xlsx,78:104,25,['2'],2,TMTstop-control_1_4linestimulus22.png,TMTstop-control_1_4greenlinestimulus22.png,TMTstop-control_1_4redlinestimulus22.png,TMT_Control,4,100,None,1,,,,,,,,,,,,,,,,,0,1,1,1,0,24,24,24,,,,,,,,,,,,,,,,,,,,,,,,,,,,,,,,,,,,,,,,,,,,,,,1,1,125.51268539999728,182.70669620000263,None,['2'],1,[-0.02712939999764785],182.70669620000263,None,,,,,,,,,001,2022_Nov_17_1318,TMT_fmri,2021.2.3,143.71346982557696,
TMTstop-Control_1_4.xlsx,78:104,None,None,None,TMTstop-control_1_4linestimulus23.png,TMTstop-control_1_4greenlinestimulus23.png,TMTstop-control_1_4redlinestimulus23.png,TMT_Control,4,Feedback_last,None,1,,,,,,,,,,,,,,,,,0,1,1,1,0,25,25,25,,,,,,,,,,,,,,,,,,,,,,,,,,,,,,,,,,,,,,,,,,,,,,,1,1,,182.74873579999985,None,['3'],0,[0.07557519999681972],182.74873579999985,None,,,,,,,,,001,2022_Nov_17_1318,TMT_fmri,2021.2.3,143.71346982557696,
TMTstop-B_1_1.xlsx,0:26,1,['3'],3,TMTstop-B_1_1.png,TMTstop-B_1_1.png,TMTstop-B_1_1.png,TMT_B,1,1,1,3,,,,,,,,,,,,,,,,,,,,,,,,,0,0,0,0,0,0,0,0,,,,,,,,,,,,,,,,,,,,,,,,,,,,,,,,,,,,,,,3,0,139.73981599999388,,,,,,,,196.93430430000444,None,"['1', '2', '3']",1,"[-8.607831299996178, -8.569311400002334, -8.379461199998332]",196.93430430000444,None,,001,2022_Nov_17_1318,TMT_fmri,2021.2.3,143.71346982557696,
TMTstop-B_1_1.xlsx,0:26,A,['1'],1,TMTstop-B_1_1.png,TMTstop-B_1_1firstgreen.png,TMTstop-B_1_1firstred.png,TMT_B,1,2,None,3,,,,,,,,,,,,,,,,,,,,,,,,,0,0,0,0,0,1,1,1,,,,,,,,,,,,,,,,,,,,,,,,,,,,,,,,,,,,,,,3,0,143.6471378999995,,,,,,,,196.9983041000014,None,"['2', '3', '1']",1,"[1.6148387000066577, 2.9411993000030634, 3.817900700007158]",196.9983041000014,None,,001,2022_Nov_17_1318,TMT_fmri,2021.2.3,143.71346982557696,
TMTstop-B_1_1.xlsx,0:26,2,['3'],3,TMTstop-B_1_1linestimulus0.png,TMTstop-B_1_1greenlinestimulus0.png,TMTstop-B_1_1redlinestimulus0.png,TMT_B,1,3,None,3,,,,,,,,,,,,,,,,,,,,,,,,,0,0,0,0,0,2,2,2,,,,,,,,,,,,,,,,,,,,,,,,,,,,,,,,,,,,,,,2,0,145.13606539999455,,,,,,,,200.88184100000217,None,"['2', '3']",1,"[0.7961628999983077, 1.4176052999973763]",200.88184100000217,None,,001,2022_Nov_17_1318,TMT_fmri,2021.2.3,143.71346982557696,
TMTstop-B_1_1.xlsx,0:26,B,['2'],2,TMTstop-B_1_1linestimulus1.png,TMTstop-B_1_1greenlinestimulus1.png,TMTstop-B_1_1redlinestimulus1.png,TMT_B,1,4,None,3,,,,,,,,,,,,,,,,,,,,,,,,,0,0,0,0,0,3,3,3,,,,,,,,,,,,,,,,,,,,,,,,,,,,,,,,,,,,,,,2,0,145.5020332999993,,,,,,,,202.37583240000095,None,"['1', '2']",1,"[0.19627949999994598, 0.2900193999957992]",202.37583240000095,None,,001,2022_Nov_17_1318,TMT_fmri,2021.2.3,143.71346982557696,
TMTstop-B_1_1.xlsx,0:26,3,['1'],1,TMTstop-B_1_1linestimulus2.png,TMTstop-B_1_1greenlinestimulus2.png,TMTstop-B_1_1redlinestimulus2.png,TMT_B,1,5,None,3,,,,,,,,,,,,,,,,,,,,,,,,,0,0,0,0,0,4,4,4,,,,,,,,,,,,,,,,,,,,,,,,,,,,,,,,,,,,,,,2,0,145.97608369999944,,,,,,,,202.74078870000085,None,"['3', '1']",1,"[0.11468600000080187, 0.40212070000416134]",202.74078870000085,None,,001,2022_Nov_17_1318,TMT_fmri,2021.2.3,143.71346982557696,
TMTstop-B_1_1.xlsx,0:26,C,['3'],3,TMTstop-B_1_1linestimulus3.png,TMTstop-B_1_1greenlinestimulus3.png,TMTstop-B_1_1redlinestimulus3.png,TMT_B,1,6,None,3,,,,,,,,,,,,,,,,,,,,,,,,,0,0,0,0,0,5,5,5,,,,,,,,,,,,,,,,,,,,,,,,,,,,,,,,,,,,,,,4,0,147.2159177999929,,,,,,,,203.22648669999762,None,"['2', '1', '2', '3']",1,"[-0.04779009999765549, 0.9357308999969973, 0.9640251000018907, 1.1555731999978889]",203.22648669999762,None,,001,2022_Nov_17_1318,TMT_fmri,2021.2.3,143.71346982557696,
TMTstop-B_1_1.xlsx,0:26,4,['2'],2,TMTstop-B_1_1linestimulus4.png,TMTstop-B_1_1greenlinestimulus4.png,TMTstop-B_1_1redlinestimulus4.png,TMT_B,1,7,None,3,,,,,,,,,,,,,,,,,,,,,,,,,0,0,0,0,0,6,6,6,,,,,,,,,,,,,,,,,,,,,,,,,,,,,,,,,,,,,,,2,0,147.53288629999588,,,,,,,,204.45520000000397,None,"['1', '2']",1,"[0.23032080000120914, 0.272651200000837]",204.45520000000397,None,,001,2022_Nov_17_1318,TMT_fmri,2021.2.3,143.71346982557696,
TMTstop-B_1_1.xlsx,0:26,D,['1'],1,TMTstop-B_1_1linestimulus5.png,TMTstop-B_1_1greenlinestimulus5.png,TMTstop-B_1_1redlinestimulus5.png,TMT_B,1,8,None,3,,,,,,,,,,,,,,,,,,,,,,,,,0,0,0,0,0,7,7,7,,,,,,,,,,,,,,,,,,,,,,,,,,,,,,,,,,,,,,,2,0,147.93189329999586,,,,,,,,204.76921980000043,None,"['3', '1']",1,"[0.19131129999732366, 0.3196384999973816]",204.76921980000043,None,,001,2022_Nov_17_1318,TMT_fmri,2021.2.3,143.71346982557696,
TMTstop-B_1_1.xlsx,0:26,5,['3'],3,TMTstop-B_1_1linestimulus6.png,TMTstop-B_1_1greenlinestimulus6.png,TMTstop-B_1_1redlinestimulus6.png,TMT_B,1,9,None,3,,,,,,,,,,,,,,,,,,,,,,,,,0,0,0,0,0,8,8,8,,,,,,,,,,,,,,,,,,,,,,,,,,,,,,,,,,,,,,,2,0,148.12194079999608,,,,,,,,205.19267650000256,None,"['2', '3']",1,"[-0.027574100000492763, 0.0901369999992312]",205.19267650000256,None,,001,2022_Nov_17_1318,TMT_fmri,2021.2.3,143.71346982557696,
TMTstop-B_1_1.xlsx,0:26,E,['1'],1,TMTstop-B_1_1linestimulus7.png,TMTstop-B_1_1greenlinestimulus7.png,TMTstop-B_1_1redlinestimulus7.png,TMT_B,1,10,None,3,,,,,,,,,,,,,,,,,,,,,,,,,0,0,0,0,0,9,9,9,,,,,,,,,,,,,,,,,,,,,,,,,,,,,,,,,,,,,,,1,1,148.761860599996,,,,,,,,205.3818100999997,None,['1'],1,[0.574768699996639],205.3818100999997,None,,001,2022_Nov_17_1318,TMT_fmri,2021.2.3,143.71346982557696,
TMTstop-B_1_1.xlsx,0:26,6,['3'],3,TMTstop-B_1_1linestimulus8.png,TMTstop-B_1_1greenlinestimulus8.png,TMTstop-B_1_1redlinestimulus8.png,TMT_B,1,11,None,3,,,,,,,,,,,,,,,,,,,,,,,,,0,0,0,0,0,10,10,10,,,,,,,,,,,,,,,,,,,,,,,,,,,,,,,,,,,,,,,2,0,148.95086229999288,,,,,,,,205.99621109999862,None,"['2', '3']",1,"[-0.0286536999992677, 0.14273580000008224]",205.99621109999862,None,,001,2022_Nov_17_1318,TMT_fmri,2021.2.3,143.71346982557696,
TMTstop-B_1_1.xlsx,0:26,F,['1'],1,TMTstop-B_1_1linestimulus9.png,TMTstop-B_1_1greenlinestimulus9.png,TMTstop-B_1_1redlinestimulus9.png,TMT_B,1,12,None,3,,,,,,,,,,,,,,,,,,,,,,,,,0,0,0,0,0,11,11,11,,,,,,,,,,,,,,,,,,,,,,,,,,,,,,,,,,,,,,,1,1,149.2608742999946,,,,,,,,206.1902478999982,None,['1'],1,[0.26368270000239136],206.1902478999982,None,,001,2022_Nov_17_1318,TMT_fmri,2021.2.3,143.71346982557696,
TMTstop-B_1_1.xlsx,0:26,7,['3'],3,TMTstop-B_1_1linestimulus10.png,TMTstop-B_1_1greenlinestimulus10.png,TMTstop-B_1_1redlinestimulus10.png,TMT_B,1,13,None,3,,,,,,,,,,,,,,,,,,,,,,,,,0,0,0,0,0,12,12,12,,,,,,,,,,,,,,,,,,,,,,,,,,,,,,,,,,,,,,,2,0,149.46684389999427,,,,,,,,206.49981249999837,None,"['2', '3']",1,"[-0.035647600001539104, 0.1363017999974545]",206.49981249999837,None,,001,2022_Nov_17_1318,TMT_fmri,2021.2.3,143.71346982557696,
TMTstop-B_1_1.xlsx,0:26,G,['2'],2,TMTstop-B_1_1linestimulus11.png,TMTstop-B_1_1greenlinestimulus11.png,TMTstop-B_1_1redlinestimulus11.png,TMT_B,1,14,None,3,,,,,,,,,,,,,,,,,,,,,,,,,0,0,0,0,0,13,13,13,,,,,,,,,,,,,,,,,,,,,,,,,,,,,,,,,,,,,,,2,0,149.74984869999753,,,,,,,,206.70616780000273,None,"['1', '2']",1,"[0.11676580000494141, 0.22824799999943934]",206.70616780000273,None,,001,2022_Nov_17_1318,TMT_fmri,2021.2.3,143.71346982557696,
TMTstop-B_1_1.xlsx,0:26,8,['3'],3,TMTstop-B_1_1linestimulus12.png,TMTstop-B_1_1greenlinestimulus12.png,TMTstop-B_1_1redlinestimulus12.png,TMT_B,1,15,None,3,,,,,,,,,,,,,,,,,,,,,,,,,0,0,0,0,0,14,14,14,,,,,,,,,,,,,,,,,,,,,,,,,,,,,,,,,,,,,,,1,1,149.91389559999516,,,,,,,,206.98907370000234,None,['3'],1,[0.12003140000160784],206.98907370000234,None,,001,2022_Nov_17_1318,TMT_fmri,2021.2.3,143.71346982557696,
TMTstop-B_1_1.xlsx,0:26,H,['1'],1,TMTstop-B_1_1linestimulus13.png,TMTstop-B_1_1greenlinestimulus13.png,TMTstop-B_1_1redlinestimulus13.png,TMT_B,1,16,None,3,,,,,,,,,,,,,,,,,,,,,,,,,0,0,0,0,0,15,15,15,,,,,,,,,,,,,,,,,,,,,,,,,,,,,,,,,,,,,,,1,1,150.02689849999297,,,,,,,,207.15414910000254,None,['1'],1,[0.06660510000074282],207.15414910000254,None,,001,2022_Nov_17_1318,TMT_fmri,2021.2.3,143.71346982557696,
TMTstop-B_1_1.xlsx,0:26,9,['3'],3,TMTstop-B_1_1linestimulus14.png,TMTstop-B_1_1greenlinestimulus14.png,TMTstop-B_1_1redlinestimulus14.png,TMT_B,1,17,None,3,,,,,,,,,,,,,,,,,,,,,,,,,0,0,0,0,0,16,16,16,,,,,,,,,,,,,,,,,,,,,,,,,,,,,,,,,,,,,,,2,0,150.22586259999662,,,,,,,,207.26962980000098,None,"['2', '3']",1,"[0.02364349999697879, 0.14693599999736762]",207.26962980000098,None,,001,2022_Nov_17_1318,TMT_fmri,2021.2.3,143.71346982557696,
TMTstop-B_1_1.xlsx,0:26,I,['2'],2,TMTstop-B_1_1linestimulus15.png,TMTstop-B_1_1greenlinestimulus15.png,TMTstop-B_1_1redlinestimulus15.png,TMT_B,1,18,None,3,,,,,,,,,,,,,,,,,,,,,,,,,0,0,0,0,0,17,17,17,,,,,,,,,,,,,,,,,,,,,,,,,,,,,,,,,,,,,,,6,0,151.30488299999706,,,,,,,,207.46484059999784,None,"['2', '1', '1', '3', '1', '2']",1,"[0.36676129999978, 0.3721771999989869, 0.6271522000024561, 0.7530809000018053, 0.9640312000046833, 1.0335393999994267]",207.46484059999784,None,,001,2022_Nov_17_1318,TMT_fmri,2021.2.3,143.71346982557696,
TMTstop-B_1_1.xlsx,0:26,10,['3'],3,TMTstop-B_1_1linestimulus16.png,TMTstop-B_1_1greenlinestimulus16.png,TMTstop-B_1_1redlinestimulus16.png,TMT_B,1,19,None,3,,,,,,,,,,,,,,,,,,,,,,,,,0,0,0,0,0,18,18,18,,,,,,,,,,,,,,,,,,,,,,,,,,,,,,,,,,,,,,,1,1,151.43587639999896,,,,,,,,208.54525690000446,None,['3'],1,[0.08539839999866672],208.54525690000446,None,,001,2022_Nov_17_1318,TMT_fmri,2021.2.3,143.71346982557696,
TMTstop-B_1_1.xlsx,0:26,J,['2'],2,TMTstop-B_1_1linestimulus17.png,TMTstop-B_1_1greenlinestimulus17.png,TMTstop-B_1_1redlinestimulus17.png,TMT_B,1,20,None,3,,,,,,,,,,,,,,,,,,,,,,,,,0,0,0,0,0,19,19,19,,,,,,,,,,,,,,,,,,,,,,,,,,,,,,,,,,,,,,,3,0,152.12712529999408,,,,,,,,208.67418270000053,None,"['1', '1', '2']",1,"[0.22626270000182558, 0.5291725999995833, 0.6417579999979353]",208.67418270000053,None,,001,2022_Nov_17_1318,TMT_fmri,2021.2.3,143.71346982557696,
TMTstop-B_1_1.xlsx,0:26,11,['1'],1,TMTstop-B_1_1linestimulus18.png,TMTstop-B_1_1greenlinestimulus18.png,TMTstop-B_1_1redlinestimulus18.png,TMT_B,1,21,None,3,,,,,,,,,,,,,,,,,,,,,,,,,0,0,0,0,0,20,20,20,,,,,,,,,,,,,,,,,,,,,,,,,,,,,,,,,,,,,,,2,0,152.52901309999288,,,,,,,,209.39285830000154,None,"['3', '1']",1,"[0.036204199997882824, 0.31447230000048876]",209.39285830000154,None,,001,2022_Nov_17_1318,TMT_fmri,2021.2.3,143.71346982557696,
TMTstop-B_1_1.xlsx,0:26,K,['2'],2,TMTstop-B_1_1linestimulus19.png,TMTstop-B_1_1greenlinestimulus19.png,TMTstop-B_1_1redlinestimulus19.png,TMT_B,1,22,None,3,,,,,,,,,,,,,,,,,,,,,,,,,0,0,0,0,0,21,21,21,,,,,,,,,,,,,,,,,,,,,,,,,,,,,,,,,,,,,,,1,1,152.60104619999765,,,,,,,,209.77361640000163,None,['2'],1,[0.01615740000124788],209.77361640000163,None,,001,2022_Nov_17_1318,TMT_fmri,2021.2.3,143.71346982557696,
TMTstop-B_1_1.xlsx,0:26,12,['1'],1,TMTstop-B_1_1linestimulus20.png,TMTstop-B_1_1greenlinestimulus20.png,TMTstop-B_1_1redlinestimulus20.png,TMT_B,1,23,None,3,,,,,,,,,,,,,,,,,,,,,,,,,0,0,0,0,0,22,22,22,,,,,,,,,,,,,,,,,,,,,,,,,,,,,,,,,,,,,,,3,0,155.67610369999602,,,,,,,,209.84392549999757,None,"['3', '2', '1']",1,"[0.11195160000352189, 1.093246199998248, 3.022493399999803]",209.84392549999757,None,,001,2022_Nov_17_1318,TMT_fmri,2021.2.3,143.71346982557696,
TMTstop-B_1_1.xlsx,0:26,L,['2'],2,TMTstop-B_1_1linestimulus21.png,TMTstop-B_1_1greenlinestimulus21.png,TMTstop-B_1_1redlinestimulus21.png,TMT_B,1,24,None,3,,,,,,,,,,,,,,,,,,,,,,,,,0,0,0,0,0,23,23,23,,,,,,,,,,,,,,,,,,,,,,,,,,,,,,,,,,,,,,,1,1,156.4281295999972,,,,,,,,212.9174839000043,None,['2'],1,[0.7001789999994799],212.9174839000043,None,,001,2022_Nov_17_1318,TMT_fmri,2021.2.3,143.71346982557696,
TMTstop-B_1_1.xlsx,0:26,13,['1'],1,TMTstop-B_1_1linestimulus22.png,TMTstop-B_1_1greenlinestimulus22.png,TMTstop-B_1_1redlinestimulus22.png,TMT_B,1,25,None,3,,,,,,,,,,,,,,,,,,,,,,,,,0,0,0,0,0,24,24,24,,,,,,,,,,,,,,,,,,,,,,,,,,,,,,,,,,,,,,,1,1,157.13698249999288,,,,,,,,213.6835041000013,None,['1'],1,[0.6429675000035786],213.6835041000013,None,,001,2022_Nov_17_1318,TMT_fmri,2021.2.3,143.71346982557696,
TMTstop-B_1_1.xlsx,0:26,None,None,None,TMTstop-B_1_1linestimulus23.png,TMTstop-B_1_1greenlinestimulus23.png,TMTstop-B_1_1redlinestimulus23.png,TMT_B,1,Feedback_last,None,3,,,,,,,,,,,,,,,,,,,,,,,,,0,0,0,0,0,25,25,25,,,,,,,,,,,,,,,,,,,,,,,,,,,,,,,,,,,,,,,0,0,,,,,,,,,214.37960430000385,None,None,1,,214.37960430000385,None,,001,2022_Nov_17_1318,TMT_fmri,2021.2.3,143.71346982557696,
TMTstop-B_1_2.xlsx,26:52,1,['1'],1,TMTstop-B_1_2.png,TMTstop-B_1_2.png,TMTstop-B_1_2.png,TMT_B,2,26,None,3,,,,,,,,,,,,,,,,,,,,,,,,,0,1,1,1,0,0,0,0,,,,,,,,,,,,,,,,,,,,,,,,,,,,,,,,,,,,,,,1,1,162.2455023999937,,,,,,,,218.47161649999907,None,['1'],1,[0.9692176999960793],218.47161649999907,None,,001,2022_Nov_17_1318,TMT_fmri,2021.2.3,143.71346982557696,
TMTstop-B_1_2.xlsx,26:52,A,['2'],2,TMTstop-B_1_2.png,TMTstop-B_1_2firstgreen.png,TMTstop-B_1_2firstred.png,TMT_B,2,27,None,3,,,,,,,,,,,,,,,,,,,,,,,,,0,1,1,1,0,1,1,1,,,,,,,,,,,,,,,,,,,,,,,,,,,,,,,,,,,,,,,1,1,162.39144529999612,,,,,,,,219.47977170000377,None,['2'],1,[0.10247930000332417],219.47977170000377,None,,001,2022_Nov_17_1318,TMT_fmri,2021.2.3,143.71346982557696,
TMTstop-B_1_2.xlsx,26:52,2,['1'],1,TMTstop-B_1_2linestimulus0.png,TMTstop-B_1_2greenlinestimulus0.png,TMTstop-B_1_2redlinestimulus0.png,TMT_B,2,28,None,3,,,,,,,,,,,,,,,,,,,,,,,,,0,1,1,1,0,2,2,2,,,,,,,,,,,,,,,,,,,,,,,,,,,,,,,,,,,,,,,2,0,162.76247179999336,,,,,,,,219.62763819999964,None,"['3', '1']",1,"[0.06651599999895552, 0.3018551999994088]",219.62763819999964,None,,001,2022_Nov_17_1318,TMT_fmri,2021.2.3,143.71346982557696,
TMTstop-B_1_2.xlsx,26:52,B,['2'],2,TMTstop-B_1_2linestimulus1.png,TMTstop-B_1_2greenlinestimulus1.png,TMTstop-B_1_2redlinestimulus1.png,TMT_B,2,29,None,3,,,,,,,,,,,,,,,,,,,,,,,,,0,1,1,1,0,3,3,3,,,,,,,,,,,,,,,,,,,,,,,,,,,,,,,,,,,,,,,1,1,162.80643689999852,,,,,,,,220.0011883000043,None,['2'],1,[-0.00931989999662619],220.0011883000043,None,,001,2022_Nov_17_1318,TMT_fmri,2021.2.3,143.71346982557696,
TMTstop-B_1_2.xlsx,26:52,3,['1'],1,TMTstop-B_1_2linestimulus2.png,TMTstop-B_1_2greenlinestimulus2.png,TMTstop-B_1_2redlinestimulus2.png,TMT_B,2,30,None,3,,,,,,,,,,,,,,,,,,,,,,,,,0,1,1,1,0,4,4,4,,,,,,,,,,,,,,,,,,,,,,,,,,,,,,,,,,,,,,,2,0,163.1634397999951,,,,,,,,220.0447645000022,None,"['3', '1']",1,"[0.09981990000233054, 0.2878326999998535]",220.0447645000022,None,,001,2022_Nov_17_1318,TMT_fmri,2021.2.3,143.71346982557696,
TMTstop-B_1_2.xlsx,26:52,C,['3'],3,TMTstop-B_1_2linestimulus3.png,TMTstop-B_1_2greenlinestimulus3.png,TMTstop-B_1_2redlinestimulus3.png,TMT_B,2,31,None,3,,,,,,,,,,,,,,,,,,,,,,,,,0,1,1,1,0,5,5,5,,,,,,,,,,,,,,,,,,,,,,,,,,,,,,,,,,,,,,,2,0,163.35043269999733,,,,,,,,220.4008771000008,None,"['2', '3']",1,"[-0.0046249000006355345, 0.12651270000060322]",220.4008771000008,None,,001,2022_Nov_17_1318,TMT_fmri,2021.2.3,143.71346982557696,
TMTstop-B_1_2.xlsx,26:52,4,['2'],2,TMTstop-B_1_2linestimulus4.png,TMTstop-B_1_2greenlinestimulus4.png,TMTstop-B_1_2redlinestimulus4.png,TMT_B,2,32,None,3,,,,,,,,,,,,,,,,,,,,,,,,,0,1,1,1,0,6,6,6,,,,,,,,,,,,,,,,,,,,,,,,,,,,,,,,,,,,,,,2,0,163.9624310999934,,,,,,,,220.5924726000012,None,"['1', '2']",1,"[0.38273150000168243, 0.5406380999993416]",220.5924726000012,None,,001,2022_Nov_17_1318,TMT_fmri,2021.2.3,143.71346982557696,
TMTstop-B_1_2.xlsx,26:52,D,['1'],1,TMTstop-B_1_2linestimulus5.png,TMTstop-B_1_2greenlinestimulus5.png,TMTstop-B_1_2redlinestimulus5.png,TMT_B,2,33,None,3,,,,,,,,,,,,,,,,,,,,,,,,,0,1,1,1,0,7,7,7,,,,,,,,,,,,,,,,,,,,,,,,,,,,,,,,,,,,,,,2,0,164.58339209999394,,,,,,,,221.20183630000247,None,"['3', '1']",1,"[0.05824739999661688, 0.5440570999999181]",221.20183630000247,None,,001,2022_Nov_17_1318,TMT_fmri,2021.2.3,143.71346982557696,
TMTstop-B_1_2.xlsx,26:52,5,['2'],2,TMTstop-B_1_2linestimulus6.png,TMTstop-B_1_2greenlinestimulus6.png,TMTstop-B_1_2redlinestimulus6.png,TMT_B,2,34,None,3,,,,,,,,,,,,,,,,,,,,,,,,,0,1,1,1,0,8,8,8,,,,,,,,,,,,,,,,,,,,,,,,,,,,,,,,,,,,,,,1,1,164.6263989999934,,,,,,,,221.8206715999986,None,['2'],1,[-0.0066617999982554466],221.8206715999986,None,,001,2022_Nov_17_1318,TMT_fmri,2021.2.3,143.71346982557696,
TMTstop-B_1_2.xlsx,26:52,E,['3'],3,TMTstop-B_1_2linestimulus7.png,TMTstop-B_1_2greenlinestimulus7.png,TMTstop-B_1_2redlinestimulus7.png,TMT_B,2,35,None,3,,,,,,,,,,,,,,,,,,,,,,,,,0,1,1,1,0,9,9,9,,,,,,,,,,,,,,,,,,,,,,,,,,,,,,,,,,,,,,,1,1,164.75349769999593,,,,,,,,221.8700164999973,None,['3'],1,[0.07121689999621594],221.8700164999973,None,,001,2022_Nov_17_1318,TMT_fmri,2021.2.3,143.71346982557696,
TMTstop-B_1_2.xlsx,26:52,6,['1'],1,TMTstop-B_1_2linestimulus8.png,TMTstop-B_1_2greenlinestimulus8.png,TMTstop-B_1_2redlinestimulus8.png,TMT_B,2,36,None,3,,,,,,,,,,,,,,,,,,,,,,,,,0,1,1,1,0,10,10,10,,,,,,,,,,,,,,,,,,,,,,,,,,,,,,,,,,,,,,,1,1,164.92247949999728,,,,,,,,222.01220679999824,None,['1'],1,[0.09978889999911189],222.01220679999824,None,,001,2022_Nov_17_1318,TMT_fmri,2021.2.3,143.71346982557696,
TMTstop-B_1_2.xlsx,26:52,F,['3'],3,TMTstop-B_1_2linestimulus9.png,TMTstop-B_1_2greenlinestimulus9.png,TMTstop-B_1_2redlinestimulus9.png,TMT_B,2,37,None,3,,,,,,,,,,,,,,,,,,,,,,,,,0,1,1,1,0,11,11,11,,,,,,,,,,,,,,,,,,,,,,,,,,,,,,,,,,,,,,,4,0,165.58940489999804,,,,,,,,222.18292040000233,None,"['2', '1', '2', '3']",1,"[0.025802399999520276, 0.42766580000170507, 0.4691021000035107, 0.5921864000047208]",222.18292040000233,None,,001,2022_Nov_17_1318,TMT_fmri,2021.2.3,143.71346982557696,
TMTstop-B_1_2.xlsx,26:52,7,['1'],1,TMTstop-B_1_2linestimulus10.png,TMTstop-B_1_2greenlinestimulus10.png,TMTstop-B_1_2redlinestimulus10.png,TMT_B,2,38,None,3,,,,,,,,,,,,,,,,,,,,,,,,,0,1,1,1,0,12,12,12,,,,,,,,,,,,,,,,,,,,,,,,,,,,,,,,,,,,,,,1,1,165.7513961999939,,,,,,,,222.83435380000446,None,['1'],1,[0.10653540000203066],222.83435380000446,None,,001,2022_Nov_17_1318,TMT_fmri,2021.2.3,143.71346982557696,
TMTstop-B_1_2.xlsx,26:52,G,['2'],2,TMTstop-B_1_2linestimulus11.png,TMTstop-B_1_2greenlinestimulus11.png,TMTstop-B_1_2redlinestimulus11.png,TMT_B,2,39,None,3,,,,,,,,,,,,,,,,,,,,,,,,,0,1,1,1,0,13,13,13,,,,,,,,,,,,,,,,,,,,,,,,,,,,,,,,,,,,,,,1,1,165.80443289999675,,,,,,,,222.99063240000396,None,['2'],1,[0.007765000002109446],222.99063240000396,None,,001,2022_Nov_17_1318,TMT_fmri,2021.2.3,143.71346982557696,
TMTstop-B_1_2.xlsx,26:52,8,['1'],1,TMTstop-B_1_2linestimulus12.png,TMTstop-B_1_2greenlinestimulus12.png,TMTstop-B_1_2redlinestimulus12.png,TMT_B,2,40,None,3,,,,,,,,,,,,,,,,,,,,,,,,,0,1,1,1,0,14,14,14,,,,,,,,,,,,,,,,,,,,,,,,,,,,,,,,,,,,,,,3,0,166.39265179999347,,,,,,,,223.04745060000278,None,"['3', '2', '1']",1,"[0.12258450000081211, 0.52753909999592, 0.5308170999996946]",223.04745060000278,None,,001,2022_Nov_17_1318,TMT_fmri,2021.2.3,143.71346982557696,
