NumberLetter,corrAns,Correct,StimFile,Correct_StimFile,False_StimFile,Block,TrialNumber_session,n,Stim.started_mean,Stim.started_raw,Stim.started_std,Stim.stopped_raw,key_resp_2.corr_mean,key_resp_2.corr_raw,key_resp_2.corr_std,key_resp_2.keys_raw,key_resp_2.rt_raw,key_resp_2.started_mean,key_resp_2.started_raw,key_resp_2.started_std,key_resp_2.stopped_raw,order
1,['2'],2,TMTstop-B_1_1.png,TMTstop-B_1_1.png,TMTstop-B_1_1.png,1,1,1.0,13.478036880493164,13.478036880493164,0.0,,1.0,1.0,0.0,2,0.8460984998382628,13.478036880493164,13.478036880493164,0.0,,0.0
A,['1'],1,TMTstop-B_1_1.png,TMTstop-B_1_1firstgreen.png,TMTstop-B_1_1firstred.png,1,2,1.0,14.395634651184082,14.395634651184082,0.0,,1.0,1.0,0.0,3,1,0.49583050003275275,0.7784170999657363,14.395634651184082,14.395634651184082,0.0,,1.0
2,['2'],2,TMTstop-B_1_1linestimulus0.png,TMTstop-B_1_1greenlinestimulus0.png,TMTstop-B_1_1redlinestimulus0.png,1,3,1.0,15.272860527038574,15.272860527038574,0.0,,1.0,1.0,0.0,2,-0.06852520001120865,15.272860527038574,15.272860527038574,0.0,,2.0
B,['1'],1,TMTstop-B_1_1linestimulus1.png,TMTstop-B_1_1greenlinestimulus1.png,TMTstop-B_1_1redlinestimulus1.png,1,4,1.0,15.353238105773926,15.353238105773926,0.0,,1.0,1.0,0.0,3,1,0.0009075000416487455,0.1819025999866426,15.353238105773926,15.353238105773926,0.0,,3.0
3,['3'],3,TMTstop-B_1_1linestimulus2.png,TMTstop-B_1_1greenlinestimulus2.png,TMTstop-B_1_1redlinestimulus2.png,1,5,1.0,15.659383773803711,15.659383773803711,0.0,,1.0,1.0,0.0,2,3,-0.05238209990784526,0.0419817001093179,15.659383773803711,15.659383773803711,0.0,,4.0
C,['2'],2,TMTstop-B_1_1linestimulus3.png,TMTstop-B_1_1greenlinestimulus3.png,TMTstop-B_1_1redlinestimulus3.png,1,6,1.0,15.791766166687012,15.791766166687012,0.0,,1.0,1.0,0.0,1,2,0.05944520002231002,0.10086279991082847,15.791766166687012,15.791766166687012,0.0,,5.0
4,['3'],3,TMTstop-B_1_1linestimulus4.png,TMTstop-B_1_1greenlinestimulus4.png,TMTstop-B_1_1redlinestimulus4.png,1,7,1.0,15.971333503723145,15.971333503723145,0.0,,1.0,1.0,0.0,3,0.03937219991348684,15.971333503723145,15.971333503723145,0.0,,6.0
D,['1'],1,TMTstop-B_1_1linestimulus5.png,TMTstop-B_1_1greenlinestimulus5.png,TMTstop-B_1_1redlinestimulus5.png,1,8,1.0,16.08934211730957,16.08934211730957,0.0,,1.0,1.0,0.0,1,0.06927859992720187,16.08934211730957,16.08934211730957,0.0,,7.0
5,['2'],2,TMTstop-B_1_1linestimulus6.png,TMTstop-B_1_1greenlinestimulus6.png,TMTstop-B_1_1redlinestimulus6.png,1,9,1.0,16.235824584960938,16.235824584960938,0.0,,1.0,1.0,0.0,2,-0.012532500084489584,16.235824584960938,16.235824584960938,0.0,,8.0
E,['3'],3,TMTstop-B_1_1linestimulus7.png,TMTstop-B_1_1greenlinestimulus7.png,TMTstop-B_1_1redlinestimulus7.png,1,10,1.0,16.311656951904297,16.311656951904297,0.0,,1.0,1.0,0.0,3,0.018469000002369285,16.311656951904297,16.311656951904297,0.0,,9.0
6,['1'],1,TMTstop-B_1_1linestimulus8.png,TMTstop-B_1_1greenlinestimulus8.png,TMTstop-B_1_1redlinestimulus8.png,1,11,1.0,16.42011260986328,16.42011260986328,0.0,,1.0,1.0,0.0,1,0.05597979994490743,16.42011260986328,16.42011260986328,0.0,,10.0
F,['2'],2,TMTstop-B_1_1linestimulus9.png,TMTstop-B_1_1greenlinestimulus9.png,TMTstop-B_1_1redlinestimulus9.png,1,12,1.0,16.561542510986328,16.561542510986328,0.0,,1.0,1.0,0.0,2,-0.025948300026357174,16.561542510986328,16.561542510986328,0.0,,11.0
7,['1'],1,TMTstop-B_1_1linestimulus10.png,TMTstop-B_1_1greenlinestimulus10.png,TMTstop-B_1_1redlinestimulus10.png,1,13,1.0,16.63871955871582,16.63871955871582,0.0,,1.0,1.0,0.0,3,1,0.02334580011665821,0.34357100003398955,16.63871955871582,16.63871955871582,0.0,,12.0
G,['2'],2,TMTstop-B_1_1linestimulus11.png,TMTstop-B_1_1greenlinestimulus11.png,TMTstop-B_1_1redlinestimulus11.png,1,14,1.0,17.083036422729492,17.083036422729492,0.0,,1.0,1.0,0.0,2,0.05021629994735122,17.083036422729492,17.083036422729492,0.0,,13.0
8,['1'],1,TMTstop-B_1_1linestimulus12.png,TMTstop-B_1_1greenlinestimulus12.png,TMTstop-B_1_1redlinestimulus12.png,1,15,1.0,17.222064971923828,17.222064971923828,0.0,,1.0,1.0,0.0,3,1,-0.0594868001062423,0.12808699999004602,17.222064971923828,17.222064971923828,0.0,,14.0
H,['2'],2,TMTstop-B_1_1linestimulus13.png,TMTstop-B_1_1greenlinestimulus13.png,TMTstop-B_1_1redlinestimulus13.png,1,16,1.0,17.42279624938965,17.42279624938965,0.0,,1.0,1.0,0.0,2,0.04705440020188689,17.42279624938965,17.42279624938965,0.0,,15.0
9,['3'],3,TMTstop-B_1_1linestimulus14.png,TMTstop-B_1_1greenlinestimulus14.png,TMTstop-B_1_1redlinestimulus14.png,1,17,1.0,17.554750442504883,17.554750442504883,0.0,,1.0,1.0,0.0,3,0.005604299949482083,17.554750442504883,17.554750442504883,0.0,,16.0
I,['1'],1,TMTstop-B_1_1linestimulus15.png,TMTstop-B_1_1greenlinestimulus15.png,TMTstop-B_1_1redlinestimulus15.png,1,18,1.0,17.645347595214844,17.645347595214844,0.0,,1.0,1.0,0.0,1,0.09837249992415309,17.645347595214844,17.645347595214844,0.0,,17.0
10,['2'],2,TMTstop-B_1_1linestimulus16.png,TMTstop-B_1_1greenlinestimulus16.png,TMTstop-B_1_1redlinestimulus16.png,1,19,1.0,17.832609176635742,17.832609176635742,0.0,,1.0,1.0,0.0,2,-0.019415999995544553,17.832609176635742,17.832609176635742,0.0,,18.0
J,['1'],1,TMTstop-B_1_1linestimulus17.png,TMTstop-B_1_1greenlinestimulus17.png,TMTstop-B_1_1redlinestimulus17.png,1,20,1.0,17.91594123840332,17.91594123840332,0.0,,1.0,1.0,0.0,3,1,-0.0033245999366045,0.21734829992055893,17.91594123840332,17.91594123840332,0.0,,19.0
11,['2'],2,TMTstop-B_1_1linestimulus18.png,TMTstop-B_1_1greenlinestimulus18.png,TMTstop-B_1_1redlinestimulus18.png,1,21,1.0,18.24236488342285,18.24236488342285,0.0,,1.0,1.0,0.0,1,2,0.5327256999444216,0.6114878000225872,18.24236488342285,18.24236488342285,0.0,,20.0
K,['3'],3,TMTstop-B_1_1linestimulus19.png,TMTstop-B_1_1greenlinestimulus19.png,TMTstop-B_1_1redlinestimulus19.png,1,22,1.0,18.95069122314453,18.95069122314453,0.0,,1.0,1.0,0.0,3,-0.012797300005331635,18.95069122314453,18.95069122314453,0.0,,21.0
12,['1'],1,TMTstop-B_1_1linestimulus20.png,TMTstop-B_1_1greenlinestimulus20.png,TMTstop-B_1_1redlinestimulus20.png,1,23,1.0,19.04195213317871,19.04195213317871,0.0,,1.0,1.0,0.0,1,0.07289390009827912,19.04195213317871,19.04195213317871,0.0,,22.0
L,['3'],3,TMTstop-B_1_1linestimulus21.png,TMTstop-B_1_1greenlinestimulus21.png,TMTstop-B_1_1redlinestimulus21.png,1,24,1.0,19.215211868286133,19.215211868286133,0.0,,1.0,1.0,0.0,2,3,-0.06908400007523596,0.07322769984602928,19.215211868286133,19.215211868286133,0.0,,23.0
13,['2'],2,TMTstop-B_1_1linestimulus22.png,TMTstop-B_1_1greenlinestimulus22.png,TMTstop-B_1_1redlinestimulus22.png,1,25,1.0,19.40400505065918,19.40400505065918,0.0,,1.0,1.0,0.0,1,2,0.0514919999986887,0.08264329982921481,19.40400505065918,19.40400505065918,0.0,,24.0
None,None,None,TMTstop-B_1_1linestimulus23.png,TMTstop-B_1_1greenlinestimulus23.png,TMTstop-B_1_1redlinestimulus23.png,1,Feedback_last,1.0,19.582536697387695,19.582536697387695,0.0,,0.0,0.0,0.0,3,1,2,3,0.040614299941807985,0.1782645001076162,0.24677699990570545,0.3476541000418365,19.582536697387695,19.582536697387695,0.0,,25.0

extraInfo
participant,
session,001
date,2022_Feb_02_1708
expName,TMTAstop-A
psychopyVersion,2021.2.3
frameRate,144.17760382967097
﻿NumberLetter,corrAns,Correct,StimFile,Correct_StimFile,False_StimFile,Block,TrialNumber_session,n,Stim.started_mean,Stim.started_raw,Stim.started_std,Stim.stopped_raw,key_resp_2.corr_mean,key_resp_2.corr_raw,key_resp_2.corr_std,key_resp_2.keys_raw,key_resp_2.rt_raw,key_resp_2.started_mean,key_resp_2.started_raw,key_resp_2.started_std,key_resp_2.stopped_raw,order
1,['2'],2,TMTstop-B_1_2.png,TMTstop-B_1_2.png,TMTstop-B_1_2.png,2,26,1.0,23.67882537841797,23.67882537841797,0.0,,1.0,1.0,0.0,1,2,0.3081865001004189,0.4618540001101792,23.67882537841797,23.67882537841797,0.0,,0.0
A,['3'],3,TMTstop-B_1_2.png,TMTstop-B_1_2firstgreen.png,TMTstop-B_1_2firstred.png,2,27,1.0,24.24884605407715,24.24884605407715,0.0,,1.0,1.0,0.0,3,-0.04129779990762472,24.24884605407715,24.24884605407715,0.0,,1.0
2,['1'],1,TMTstop-B_1_2linestimulus0.png,TMTstop-B_1_2greenlinestimulus0.png,TMTstop-B_1_2redlinestimulus0.png,2,28,1.0,24.32528305053711,24.32528305053711,0.0,,1.0,1.0,0.0,1,0.035704800160601735,24.32528305053711,24.32528305053711,0.0,,2.0
B,['2'],2,TMTstop-B_1_2linestimulus1.png,TMTstop-B_1_2greenlinestimulus1.png,TMTstop-B_1_2redlinestimulus1.png,2,29,1.0,24.457469940185547,24.457469940185547,0.0,,1.0,1.0,0.0,2,-0.032916200114414096,24.457469940185547,24.457469940185547,0.0,,3.0
3,['3'],3,TMTstop-B_1_2linestimulus2.png,TMTstop-B_1_2greenlinestimulus2.png,TMTstop-B_1_2redlinestimulus2.png,2,30,1.0,24.526626586914062,24.526626586914062,0.0,,1.0,1.0,0.0,3,0.0019020999316126108,24.526626586914062,24.526626586914062,0.0,,4.0
C,['1'],1,TMTstop-B_1_2linestimulus3.png,TMTstop-B_1_2greenlinestimulus3.png,TMTstop-B_1_2redlinestimulus3.png,2,31,1.0,24.610300064086914,24.610300064086914,0.0,,1.0,1.0,0.0,1,0.11774099990725517,24.610300064086914,24.610300064086914,0.0,,5.0
4,['2'],2,TMTstop-B_1_2linestimulus4.png,TMTstop-B_1_2greenlinestimulus4.png,TMTstop-B_1_2redlinestimulus4.png,2,32,1.0,24.797977447509766,24.797977447509766,0.0,,1.0,1.0,0.0,2,0.0005867001600563526,24.797977447509766,24.797977447509766,0.0,,6.0
D,['3'],3,TMTstop-B_1_2linestimulus5.png,TMTstop-B_1_2greenlinestimulus5.png,TMTstop-B_1_2redlinestimulus5.png,2,33,1.0,24.874038696289062,24.874038696289062,0.0,,1.0,1.0,0.0,3,0.0474862998817116,24.874038696289062,24.874038696289062,0.0,,7.0
5,['2'],2,TMTstop-B_1_2linestimulus6.png,TMTstop-B_1_2greenlinestimulus6.png,TMTstop-B_1_2redlinestimulus6.png,2,34,1.0,25.006404876708984,25.006404876708984,0.0,,1.0,1.0,0.0,1,2,0.07622770010493696,0.13058810005895793,25.006404876708984,25.006404876708984,0.0,,8.0
E,['1'],1,TMTstop-B_1_2linestimulus7.png,TMTstop-B_1_2greenlinestimulus7.png,TMTstop-B_1_2redlinestimulus7.png,2,35,1.0,25.248851776123047,25.248851776123047,0.0,,1.0,1.0,0.0,3,1,-0.023887000046670437,0.12291179993189871,25.248851776123047,25.248851776123047,0.0,,9.0
6,['3'],3,TMTstop-B_1_2linestimulus8.png,TMTstop-B_1_2greenlinestimulus8.png,TMTstop-B_1_2redlinestimulus8.png,2,36,1.0,25.45713233947754,25.45713233947754,0.0,,1.0,1.0,0.0,2,3,0.003842000151053071,0.0750494000967592,25.45713233947754,25.45713233947754,0.0,,10.0
F,['1'],1,TMTstop-B_1_2linestimulus9.png,TMTstop-B_1_2greenlinestimulus9.png,TMTstop-B_1_2redlinestimulus9.png,2,37,1.0,25.6240291595459,25.6240291595459,0.0,,1.0,1.0,0.0,1,0.13815180002711713,25.6240291595459,25.6240291595459,0.0,,11.0
7,['3'],3,TMTstop-B_1_2linestimulus10.png,TMTstop-B_1_2greenlinestimulus10.png,TMTstop-B_1_2redlinestimulus10.png,2,38,1.0,25.846145629882812,25.846145629882812,0.0,,1.0,1.0,0.0,2,3,-0.010866899974644184,0.08676670002751052,25.846145629882812,25.846145629882812,0.0,,12.0
G,['2'],2,TMTstop-B_1_2linestimulus11.png,TMTstop-B_1_2greenlinestimulus11.png,TMTstop-B_1_2redlinestimulus11.png,2,39,1.0,26.01422882080078,26.01422882080078,0.0,,1.0,1.0,0.0,1,2,0.07316859997808933,0.15177489980123937,26.01422882080078,26.01422882080078,0.0,,13.0
8,['3'],3,TMTstop-B_1_2linestimulus12.png,TMTstop-B_1_2greenlinestimulus12.png,TMTstop-B_1_2redlinestimulus12.png,2,40,1.0,26.255538940429688,26.255538940429688,0.0,,1.0,1.0,0.0,3,-0.017762700095772743,26.255538940429688,26.255538940429688,0.0,,14.0
H,['2'],2,TMTstop-B_1_2linestimulus13.png,TMTstop-B_1_2greenlinestimulus13.png,TMTstop-B_1_2redlinestimulus13.png,2,41,1.0,26.333311080932617,26.333311080932617,0.0,,1.0,1.0,0.0,1,2,0.06959820003248751,0.16167939989827573,26.333311080932617,26.333311080932617,0.0,,15.0
9,['3'],3,TMTstop-B_1_2linestimulus14.png,TMTstop-B_1_2greenlinestimulus14.png,TMTstop-B_1_2redlinestimulus14.png,2,42,1.0,26.610578536987305,26.610578536987305,0.0,,1.0,1.0,0.0,3,-0.0606672998983413,26.610578536987305,26.610578536987305,0.0,,16.0
I,['1'],1,TMTstop-B_1_2linestimulus15.png,TMTstop-B_1_2greenlinestimulus15.png,TMTstop-B_1_2redlinestimulus15.png,2,43,1.0,26.686277389526367,26.686277389526367,0.0,,1.0,1.0,0.0,1,0.020947499899193645,26.686277389526367,26.686277389526367,0.0,,17.0
10,['2'],2,TMTstop-B_1_2linestimulus16.png,TMTstop-B_1_2greenlinestimulus16.png,TMTstop-B_1_2redlinestimulus16.png,2,44,1.0,26.784503936767578,26.784503936767578,0.0,,1.0,1.0,0.0,2,-0.028524900088086724,26.784503936767578,26.784503936767578,0.0,,18.0
J,['3'],3,TMTstop-B_1_2linestimulus17.png,TMTstop-B_1_2greenlinestimulus17.png,TMTstop-B_1_2redlinestimulus17.png,2,45,1.0,26.860675811767578,26.860675811767578,0.0,,1.0,1.0,0.0,3,-0.0012290999293327332,26.860675811767578,26.860675811767578,0.0,,19.0
11,['2'],2,TMTstop-B_1_2linestimulus18.png,TMTstop-B_1_2greenlinestimulus18.png,TMTstop-B_1_2redlinestimulus18.png,2,46,1.0,26.943552017211914,26.943552017211914,0.0,,1.0,1.0,0.0,1,2,0.06067299982532859,0.15233840001747012,26.943552017211914,26.943552017211914,0.0,,20.0
K,['3'],3,TMTstop-B_1_2linestimulus19.png,TMTstop-B_1_2greenlinestimulus19.png,TMTstop-B_1_2redlinestimulus19.png,2,47,1.0,27.20718002319336,27.20718002319336,0.0,,1.0,1.0,0.0,3,0.002254200167953968,27.20718002319336,27.20718002319336,0.0,,21.0
12,['1'],1,TMTstop-B_1_2linestimulus20.png,TMTstop-B_1_2greenlinestimulus20.png,TMTstop-B_1_2redlinestimulus20.png,2,48,1.0,27.297351837158203,27.297351837158203,0.0,,1.0,1.0,0.0,1,0.06489050015807152,27.297351837158203,27.297351837158203,0.0,,22.0
L,['2'],2,TMTstop-B_1_2linestimulus21.png,TMTstop-B_1_2greenlinestimulus21.png,TMTstop-B_1_2redlinestimulus21.png,2,49,1.0,27.443683624267578,27.443683624267578,0.0,,1.0,1.0,0.0,2,-0.009924100013449788,27.443683624267578,27.443683624267578,0.0,,23.0
13,['3'],3,TMTstop-B_1_2linestimulus22.png,TMTstop-B_1_2greenlinestimulus22.png,TMTstop-B_1_2redlinestimulus22.png,2,50,1.0,27.512916564941406,27.512916564941406,0.0,,1.0,1.0,0.0,3,0.03990360000170767,27.512916564941406,27.512916564941406,0.0,,24.0
None,None,None,TMTstop-B_1_2linestimulus23.png,TMTstop-B_1_2greenlinestimulus23.png,TMTstop-B_1_2redlinestimulus23.png,2,Feedback_last,1.0,27.63788414001465,27.63788414001465,0.0,,0.0,0.0,0.0,1,2,3,0.046297699911519885,0.12209359998814762,0.23345530009828508,27.63788414001465,27.63788414001465,0.0,,25.0

extraInfo
participant,
session,001
date,2022_Feb_02_1708
expName,TMTAstop-A
psychopyVersion,2021.2.3
frameRate,144.17760382967097
﻿NumberLetter,corrAns,Correct,StimFile,Correct_StimFile,False_StimFile,Block,TrialNumber_session,n,Stim.started_mean,Stim.started_raw,Stim.started_std,Stim.stopped_raw,key_resp_2.corr_mean,key_resp_2.corr_raw,key_resp_2.corr_std,key_resp_2.keys_raw,key_resp_2.rt_raw,key_resp_2.started_mean,key_resp_2.started_raw,key_resp_2.started_std,key_resp_2.stopped_raw,order
1,['3'],3,TMTstop-B_1_3.png,TMTstop-B_1_3.png,TMTstop-B_1_3.png,3,51,1.0,31.73430824279785,31.73430824279785,0.0,,1.0,1.0,0.0,1,2,3,0.3235913999378681,0.4439958999864757,0.5156889001373202,31.73430824279785,31.73430824279785,0.0,,0.0
A,['2'],2,TMTstop-B_1_3.png,TMTstop-B_1_3firstgreen.png,TMTstop-B_1_3firstred.png,3,52,1.0,32.353057861328125,32.353057861328125,0.0,,1.0,1.0,0.0,1,2,0.056770999915897846,0.14241719990968704,32.353057861328125,32.353057861328125,0.0,,1.0
2,['3'],3,TMTstop-B_1_3linestimulus0.png,TMTstop-B_1_3greenlinestimulus0.png,TMTstop-B_1_3redlinestimulus0.png,3,53,1.0,32.589942932128906,32.589942932128906,0.0,,1.0,1.0,0.0,3,-0.008421999868005514,32.589942932128906,32.589942932128906,0.0,,2.0
B,['2'],2,TMTstop-B_1_3linestimulus1.png,TMTstop-B_1_3greenlinestimulus1.png,TMTstop-B_1_3redlinestimulus1.png,3,54,1.0,32.66644287109375,32.66644287109375,0.0,,1.0,1.0,0.0,1,2,0.04744710004888475,0.1063701999373734,32.66644287109375,32.66644287109375,0.0,,3.0
3,['3'],3,TMTstop-B_1_3linestimulus2.png,TMTstop-B_1_3greenlinestimulus2.png,TMTstop-B_1_3redlinestimulus2.png,3,55,1.0,32.868228912353516,32.868228912353516,0.0,,1.0,1.0,0.0,3,-0.0169408000074327,32.868228912353516,32.868228912353516,0.0,,4.0
C,['1'],1,TMTstop-B_1_3linestimulus3.png,TMTstop-B_1_3greenlinestimulus3.png,TMTstop-B_1_3redlinestimulus3.png,3,56,1.0,32.944339752197266,32.944339752197266,0.0,,1.0,1.0,0.0,1,0.05958519992418587,32.944339752197266,32.944339752197266,0.0,,5.0
4,['2'],2,TMTstop-B_1_3linestimulus4.png,TMTstop-B_1_3greenlinestimulus4.png,TMTstop-B_1_3redlinestimulus4.png,3,57,1.0,33.082218170166016,33.082218170166016,0.0,,1.0,1.0,0.0,2,-0.005858200136572123,33.082218170166016,33.082218170166016,0.0,,6.0
D,['3'],3,TMTstop-B_1_3linestimulus5.png,TMTstop-B_1_3greenlinestimulus5.png,TMTstop-B_1_3redlinestimulus5.png,3,58,1.0,33.159210205078125,33.159210205078125,0.0,,1.0,1.0,0.0,3,0.020154399797320366,33.159210205078125,33.159210205078125,0.0,,7.0
5,['2'],2,TMTstop-B_1_3linestimulus6.png,TMTstop-B_1_3greenlinestimulus6.png,TMTstop-B_1_3redlinestimulus6.png,3,59,1.0,33.262840270996094,33.262840270996094,0.0,,1.0,1.0,0.0,1,2,0.047910100081935525,0.11499959998764098,33.262840270996094,33.262840270996094,0.0,,8.0
E,['3'],3,TMTstop-B_1_3linestimulus7.png,TMTstop-B_1_3greenlinestimulus7.png,TMTstop-B_1_3redlinestimulus7.png,3,60,1.0,33.47091293334961,33.47091293334961,0.0,,1.0,1.0,0.0,3,0.04094589990563691,33.47091293334961,33.47091293334961,0.0,,9.0
6,['1'],1,TMTstop-B_1_3linestimulus8.png,TMTstop-B_1_3greenlinestimulus8.png,TMTstop-B_1_3redlinestimulus8.png,3,61,1.0,33.5891227722168,33.5891227722168,0.0,,1.0,1.0,0.0,1,0.047867000102996826,33.5891227722168,33.5891227722168,0.0,,10.0
F,['3'],3,TMTstop-B_1_3linestimulus9.png,TMTstop-B_1_3greenlinestimulus9.png,TMTstop-B_1_3redlinestimulus9.png,3,62,1.0,33.714508056640625,33.714508056640625,0.0,,1.0,1.0,0.0,2,3,0.018126799957826734,0.13120139995589852,33.714508056640625,33.714508056640625,0.0,,11.0
7,['1'],1,TMTstop-B_1_3linestimulus10.png,TMTstop-B_1_3greenlinestimulus10.png,TMTstop-B_1_3redlinestimulus10.png,3,63,1.0,33.936241149902344,33.936241149902344,0.0,,1.0,1.0,0.0,1,0.02635639999061823,33.936241149902344,33.936241149902344,0.0,,12.0
G,['3'],3,TMTstop-B_1_3linestimulus11.png,TMTstop-B_1_3greenlinestimulus11.png,TMTstop-B_1_3redlinestimulus11.png,3,64,1.0,34.03457260131836,34.03457260131836,0.0,,1.0,1.0,0.0,2,3,0.018801899859681726,0.10723569989204407,34.03457260131836,34.03457260131836,0.0,,13.0
8,['2'],2,TMTstop-B_1_3linestimulus12.png,TMTstop-B_1_3greenlinestimulus12.png,TMTstop-B_1_3redlinestimulus12.png,3,65,1.0,34.21785354614258,34.21785354614258,0.0,,1.0,1.0,0.0,1,2,0.0588729998562485,0.1464937999844551,34.21785354614258,34.21785354614258,0.0,,14.0
H,['3'],3,TMTstop-B_1_3linestimulus13.png,TMTstop-B_1_3greenlinestimulus13.png,TMTstop-B_1_3redlinestimulus13.png,3,66,1.0,34.450931549072266,34.450931549072266,0.0,,1.0,1.0,0.0,3,0.004921100102365017,34.450931549072266,34.450931549072266,0.0,,15.0
9,['1'],1,TMTstop-B_1_3linestimulus14.png,TMTstop-B_1_3greenlinestimulus14.png,TMTstop-B_1_3redlinestimulus14.png,3,67,1.0,34.54728698730469,34.54728698730469,0.0,,1.0,1.0,0.0,1,0.06484150001779199,34.54728698730469,34.54728698730469,0.0,,16.0
I,['2'],2,TMTstop-B_1_3linestimulus15.png,TMTstop-B_1_3greenlinestimulus15.png,TMTstop-B_1_3redlinestimulus15.png,3,68,1.0,34.69342041015625,34.69342041015625,0.0,,1.0,1.0,0.0,2,-0.006430700188502669,34.69342041015625,34.69342041015625,0.0,,17.0
10,['3'],3,TMTstop-B_1_3linestimulus16.png,TMTstop-B_1_3greenlinestimulus16.png,TMTstop-B_1_3redlinestimulus16.png,3,69,1.0,34.769561767578125,34.769561767578125,0.0,,1.0,1.0,0.0,3,0.034729099832475185,34.769561767578125,34.769561767578125,0.0,,18.0
J,['1'],1,TMTstop-B_1_3linestimulus17.png,TMTstop-B_1_3greenlinestimulus17.png,TMTstop-B_1_3redlinestimulus17.png,3,70,1.0,34.880943298339844,34.880943298339844,0.0,,1.0,1.0,0.0,1,0.07498819986358285,34.880943298339844,34.880943298339844,0.0,,19.0
11,['3'],3,TMTstop-B_1_3linestimulus18.png,TMTstop-B_1_3greenlinestimulus18.png,TMTstop-B_1_3redlinestimulus18.png,3,71,1.0,35.02660369873047,35.02660369873047,0.0,,1.0,1.0,0.0,2,3,-0.023400699952617288,0.12358730006963015,35.02660369873047,35.02660369873047,0.0,,20.0
K,['1'],1,TMTstop-B_1_3linestimulus19.png,TMTstop-B_1_3greenlinestimulus19.png,TMTstop-B_1_3redlinestimulus19.png,3,72,1.0,35.2354850769043,35.2354850769043,0.0,,1.0,1.0,0.0,1,0.07521459995768964,35.2354850769043,35.2354850769043,0.0,,21.0
12,['2'],2,TMTstop-B_1_3linestimulus20.png,TMTstop-B_1_3greenlinestimulus20.png,TMTstop-B_1_3redlinestimulus20.png,3,73,1.0,35.388301849365234,35.388301849365234,0.0,,1.0,1.0,0.0,2,-0.005638600094243884,35.388301849365234,35.388301849365234,0.0,,22.0
L,['1'],1,TMTstop-B_1_3linestimulus21.png,TMTstop-B_1_3greenlinestimulus21.png,TMTstop-B_1_3redlinestimulus21.png,3,74,1.0,35.464576721191406,35.464576721191406,0.0,,1.0,1.0,0.0,3,1,0.03710779990069568,0.18751570000313222,35.464576721191406,35.464576721191406,0.0,,23.0
13,['3'],3,TMTstop-B_1_3linestimulus22.png,TMTstop-B_1_3greenlinestimulus22.png,TMTstop-B_1_3redlinestimulus22.png,3,75,1.0,35.7697639465332,35.7697639465332,0.0,,1.0,1.0,0.0,2,3,-0.03282750002108514,0.0937825997825712,35.7697639465332,35.7697639465332,0.0,,24.0
None,None,None,TMTstop-B_1_3linestimulus23.png,TMTstop-B_1_3greenlinestimulus23.png,TMTstop-B_1_3redlinestimulus23.png,3,Feedback_last,1.0,35.97810363769531,35.97810363769531,0.0,,0.0,0.0,0.0,1,2,3,0.025185199920088053,0.10379309998825192,0.24128869990818202,35.97810363769531,35.97810363769531,0.0,,25.0

extraInfo
participant,
session,001
date,2022_Feb_02_1708
expName,TMTAstop-A
psychopyVersion,2021.2.3
frameRate,144.17760382967097
﻿NumberLetter,corrAns,Correct,StimFile,Correct_StimFile,False_StimFile,Block,TrialNumber_session,n,Stim.started_mean,Stim.started_raw,Stim.started_std,Stim.stopped_raw,key_resp_2.corr_mean,key_resp_2.corr_raw,key_resp_2.corr_std,key_resp_2.keys_raw,key_resp_2.rt_raw,key_resp_2.started_mean,key_resp_2.started_raw,key_resp_2.started_std,key_resp_2.stopped_raw,order
1,['1'],1,TMTstop-B_1_4.png,TMTstop-B_1_4.png,TMTstop-B_1_4.png,4,76,1.0,40.116737365722656,40.116737365722656,0.0,,1.0,1.0,0.0,1,0.3762926000636071,40.116737365722656,40.116737365722656,0.0,,0.0
A,['2'],2,TMTstop-B_1_4.png,TMTstop-B_1_4firstgreen.png,TMTstop-B_1_4firstred.png,4,77,1.0,40.58183288574219,40.58183288574219,0.0,,1.0,1.0,0.0,2,0.025739199947565794,40.58183288574219,40.58183288574219,0.0,,1.0
2,['1'],1,TMTstop-B_1_4linestimulus0.png,TMTstop-B_1_4greenlinestimulus0.png,TMTstop-B_1_4redlinestimulus0.png,4,78,1.0,40.68606948852539,40.68606948852539,0.0,,1.0,1.0,0.0,3,1,0.035135099897161126,0.1678708998952061,40.68606948852539,40.68606948852539,0.0,,2.0
B,['2'],2,TMTstop-B_1_4linestimulus1.png,TMTstop-B_1_4greenlinestimulus1.png,TMTstop-B_1_4redlinestimulus1.png,4,79,1.0,40.95691680908203,40.95691680908203,0.0,,1.0,1.0,0.0,2,-0.028885299805551767,40.95691680908203,40.95691680908203,0.0,,3.0
3,['3'],3,TMTstop-B_1_4linestimulus2.png,TMTstop-B_1_4greenlinestimulus2.png,TMTstop-B_1_4redlinestimulus2.png,4,80,1.0,41.033782958984375,41.033782958984375,0.0,,1.0,1.0,0.0,3,0.004268399905413389,41.033782958984375,41.033782958984375,0.0,,4.0
C,['2'],2,TMTstop-B_1_4linestimulus3.png,TMTstop-B_1_4greenlinestimulus3.png,TMTstop-B_1_4redlinestimulus3.png,4,81,1.0,41.11637878417969,41.11637878417969,0.0,,1.0,1.0,0.0,1,2,0.06031790003180504,0.11287180008366704,41.11637878417969,41.11637878417969,0.0,,5.0
4,['3'],3,TMTstop-B_1_4linestimulus4.png,TMTstop-B_1_4greenlinestimulus4.png,TMTstop-B_1_4redlinestimulus4.png,4,82,1.0,41.3527717590332,41.3527717590332,0.0,,1.0,1.0,0.0,3,-0.02211719984188676,41.3527717590332,41.3527717590332,0.0,,6.0
D,['1'],1,TMTstop-B_1_4linestimulus5.png,TMTstop-B_1_4greenlinestimulus5.png,TMTstop-B_1_4redlinestimulus5.png,4,83,1.0,41.42905807495117,41.42905807495117,0.0,,1.0,1.0,0.0,1,0.04024899983778596,41.42905807495117,41.42905807495117,0.0,,7.0
5,['2'],2,TMTstop-B_1_4linestimulus6.png,TMTstop-B_1_4greenlinestimulus6.png,TMTstop-B_1_4redlinestimulus6.png,4,84,1.0,41.541019439697266,41.541019439697266,0.0,,1.0,1.0,0.0,2,-0.0037499000318348408,41.541019439697266,41.541019439697266,0.0,,8.0
E,['3'],3,TMTstop-B_1_4linestimulus7.png,TMTstop-B_1_4greenlinestimulus7.png,TMTstop-B_1_4redlinestimulus7.png,4,85,1.0,41.60982131958008,41.60982131958008,0.0,,1.0,1.0,0.0,3,0.02870019990950823,41.60982131958008,41.60982131958008,0.0,,9.0
6,['1'],1,TMTstop-B_1_4linestimulus8.png,TMTstop-B_1_4greenlinestimulus8.png,TMTstop-B_1_4redlinestimulus8.png,4,86,1.0,41.72850036621094,41.72850036621094,0.0,,1.0,1.0,0.0,1,0.0611691998783499,41.72850036621094,41.72850036621094,0.0,,10.0
F,['3'],3,TMTstop-B_1_4linestimulus9.png,TMTstop-B_1_4greenlinestimulus9.png,TMTstop-B_1_4redlinestimulus9.png,4,87,1.0,41.86668014526367,41.86668014526367,0.0,,1.0,1.0,0.0,2,3,-0.02733430010266602,0.11747179995290935,41.86668014526367,41.86668014526367,0.0,,11.0
7,['1'],1,TMTstop-B_1_4linestimulus10.png,TMTstop-B_1_4greenlinestimulus10.png,TMTstop-B_1_4redlinestimulus10.png,4,88,1.0,42.06103515625,42.06103515625,0.0,,1.0,1.0,0.0,1,0.06332060019485652,42.06103515625,42.06103515625,0.0,,12.0
G,['3'],3,TMTstop-B_1_4linestimulus11.png,TMTstop-B_1_4greenlinestimulus11.png,TMTstop-B_1_4redlinestimulus11.png,4,89,1.0,42.20692443847656,42.20692443847656,0.0,,1.0,1.0,0.0,2,3,-0.04509300016798079,0.10509569989517331,42.20692443847656,42.20692443847656,0.0,,13.0
8,['2'],2,TMTstop-B_1_4linestimulus12.png,TMTstop-B_1_4greenlinestimulus12.png,TMTstop-B_1_4redlinestimulus12.png,4,90,1.0,42.422271728515625,42.422271728515625,0.0,,1.0,1.0,0.0,1,2,0.018902199808508158,0.0684752999804914,42.422271728515625,42.422271728515625,0.0,,14.0
H,['3'],3,TMTstop-B_1_4linestimulus13.png,TMTstop-B_1_4greenlinestimulus13.png,TMTstop-B_1_4redlinestimulus13.png,4,91,1.0,42.60380554199219,42.60380554199219,0.0,,1.0,1.0,0.0,3,-0.005011700093746185,42.60380554199219,42.60380554199219,0.0,,15.0
9,['2'],2,TMTstop-B_1_4linestimulus14.png,TMTstop-B_1_4greenlinestimulus14.png,TMTstop-B_1_4redlinestimulus14.png,4,92,1.0,42.672340393066406,42.672340393066406,0.0,,1.0,1.0,0.0,1,2,0.08217990002594888,0.14068309986032546,42.672340393066406,42.672340393066406,0.0,,16.0
I,['1'],1,TMTstop-B_1_4linestimulus15.png,TMTstop-B_1_4greenlinestimulus15.png,TMTstop-B_1_4redlinestimulus15.png,4,93,1.0,42.9153938293457,42.9153938293457,0.0,,1.0,1.0,0.0,3,1,0.026143499882891774,0.17314009997062385,42.9153938293457,42.9153938293457,0.0,,17.0
10,['3'],3,TMTstop-B_1_4linestimulus16.png,TMTstop-B_1_4greenlinestimulus16.png,TMTstop-B_1_4redlinestimulus16.png,4,94,1.0,43.179168701171875,43.179168701171875,0.0,,1.0,1.0,0.0,2,3,-0.013137900037690997,0.09142749989405274,43.179168701171875,43.179168701171875,0.0,,18.0
J,['1'],1,TMTstop-B_1_4linestimulus17.png,TMTstop-B_1_4greenlinestimulus17.png,TMTstop-B_1_4redlinestimulus17.png,4,95,1.0,43.37342071533203,43.37342071533203,0.0,,1.0,1.0,0.0,1,0.06189980008639395,43.37342071533203,43.37342071533203,0.0,,19.0
11,['3'],3,TMTstop-B_1_4linestimulus18.png,TMTstop-B_1_4greenlinestimulus18.png,TMTstop-B_1_4redlinestimulus18.png,4,96,1.0,43.51362228393555,43.51362228393555,0.0,,1.0,1.0,0.0,2,3,-0.030499800108373165,0.11496469983831048,43.51362228393555,43.51362228393555,0.0,,20.0
K,['2'],2,TMTstop-B_1_4linestimulus19.png,TMTstop-B_1_4greenlinestimulus19.png,TMTstop-B_1_4redlinestimulus19.png,4,97,1.0,43.70711135864258,43.70711135864258,0.0,,1.0,1.0,0.0,1,2,0.0605812999419868,0.13273169985041022,43.70711135864258,43.70711135864258,0.0,,21.0
12,['3'],3,TMTstop-B_1_4linestimulus20.png,TMTstop-B_1_4greenlinestimulus20.png,TMTstop-B_1_4redlinestimulus20.png,4,98,1.0,43.92905807495117,43.92905807495117,0.0,,1.0,1.0,0.0,3,0.028887799941003323,43.92905807495117,43.92905807495117,0.0,,22.0
L,['2'],2,TMTstop-B_1_4linestimulus21.png,TMTstop-B_1_4greenlinestimulus21.png,TMTstop-B_1_4redlinestimulus21.png,4,99,1.0,44.04009246826172,44.04009246826172,0.0,,1.0,1.0,0.0,1,2,0.05766279995441437,0.3836284999269992,44.04009246826172,44.04009246826172,0.0,,23.0
13,['3'],3,TMTstop-B_1_4linestimulus22.png,TMTstop-B_1_4greenlinestimulus22.png,TMTstop-B_1_4redlinestimulus22.png,4,100,1.0,44.5303955078125,44.5303955078125,0.0,,1.0,1.0,0.0,3,-0.003245699917897582,44.5303955078125,44.5303955078125,0.0,,24.0
None,None,None,TMTstop-B_1_4linestimulus23.png,TMTstop-B_1_4greenlinestimulus23.png,TMTstop-B_1_4redlinestimulus23.png,4,Feedback_last,1.0,44.605716705322266,44.605716705322266,0.0,,1.0,1.0,0.0,,'--',44.605716705322266,44.605716705322266,0.0,,25.0

extraInfo
participant,
session,001
date,2022_Feb_02_1708
expName,TMTAstop-A
psychopyVersion,2021.2.3
frameRate,144.17760382967097
﻿NumberLetter,corrAns,Correct,StimFile,Correct_StimFile,False_StimFile,Block,TrialNumber_session,n,Stim.started_mean,Stim.started_raw,Stim.started_std,Stim.stopped_raw,key_resp_2.corr_mean,key_resp_2.corr_raw,key_resp_2.corr_std,key_resp_2.keys_raw,key_resp_2.rt_raw,key_resp_2.started_mean,key_resp_2.started_raw,key_resp_2.started_std,key_resp_2.stopped_raw,order
1,['1'],1,TMTstop-B_1_5.png,TMTstop-B_1_5.png,TMTstop-B_1_5.png,5,101,1.0,48.69999313354492,48.69999313354492,0.0,,1.0,1.0,0.0,1,0.4297897999640554,48.69999313354492,48.69999313354492,0.0,,0.0
A,['2'],2,TMTstop-B_1_5.png,TMTstop-B_1_5firstgreen.png,TMTstop-B_1_5firstred.png,5,102,1.0,49.20668411254883,49.20668411254883,0.0,,1.0,1.0,0.0,2,-0.01360290008597076,49.20668411254883,49.20668411254883,0.0,,1.0
2,['1'],1,TMTstop-B_1_5linestimulus0.png,TMTstop-B_1_5greenlinestimulus0.png,TMTstop-B_1_5redlinestimulus0.png,5,103,1.0,49.27650451660156,49.27650451660156,0.0,,1.0,1.0,0.0,3,1,0.013847999973222613,0.18285889993421733,49.27650451660156,49.27650451660156,0.0,,2.0
B,['3'],3,TMTstop-B_1_5linestimulus1.png,TMTstop-B_1_5greenlinestimulus1.png,TMTstop-B_1_5redlinestimulus1.png,5,104,1.0,49.540218353271484,49.540218353271484,0.0,,1.0,1.0,0.0,2,3,-0.041133000049740076,0.07206179993227124,49.540218353271484,49.540218353271484,0.0,,3.0
3,['1'],1,TMTstop-B_1_5linestimulus2.png,TMTstop-B_1_5greenlinestimulus2.png,TMTstop-B_1_5redlinestimulus2.png,5,105,1.0,49.69345474243164,49.69345474243164,0.0,,1.0,1.0,0.0,1,0.0642933000344783,49.69345474243164,49.69345474243164,0.0,,4.0
C,['3'],3,TMTstop-B_1_5linestimulus3.png,TMTstop-B_1_5greenlinestimulus3.png,TMTstop-B_1_5redlinestimulus3.png,5,106,1.0,49.8384895324707,49.8384895324707,0.0,,1.0,1.0,0.0,2,3,-0.0351780999917537,0.05929080001078546,49.8384895324707,49.8384895324707,0.0,,5.0
4,['1'],1,TMTstop-B_1_5linestimulus4.png,TMTstop-B_1_5greenlinestimulus4.png,TMTstop-B_1_5redlinestimulus4.png,5,107,1.0,49.986541748046875,49.986541748046875,0.0,,1.0,1.0,0.0,1,0.08259860007092357,49.986541748046875,49.986541748046875,0.0,,6.0
D,['3'],3,TMTstop-B_1_5linestimulus5.png,TMTstop-B_1_5greenlinestimulus5.png,TMTstop-B_1_5redlinestimulus5.png,5,108,1.0,50.15129470825195,50.15129470825195,0.0,,1.0,1.0,0.0,2,3,-0.05062009999528527,0.09284369996748865,50.15129470825195,50.15129470825195,0.0,,7.0
5,['2'],2,TMTstop-B_1_5linestimulus6.png,TMTstop-B_1_5greenlinestimulus6.png,TMTstop-B_1_5redlinestimulus6.png,5,109,1.0,50.345584869384766,50.345584869384766,0.0,,1.0,1.0,0.0,1,2,0.03943619993515313,0.061591400066390634,50.345584869384766,50.345584869384766,0.0,,8.0
E,['3'],3,TMTstop-B_1_5linestimulus7.png,TMTstop-B_1_5greenlinestimulus7.png,TMTstop-B_1_5redlinestimulus7.png,5,110,1.0,50.50548553466797,50.50548553466797,0.0,,1.0,1.0,0.0,1,2,3,0.18297299998812377,0.20528839994221926,0.3432926000095904,50.50548553466797,50.50548553466797,0.0,,9.0
6,['2'],2,TMTstop-B_1_5linestimulus8.png,TMTstop-B_1_5greenlinestimulus8.png,TMTstop-B_1_5redlinestimulus8.png,5,111,1.0,50.97861862182617,50.97861862182617,0.0,,1.0,1.0,0.0,1,2,0.027611100114881992,0.08557049999944866,50.97861862182617,50.97861862182617,0.0,,10.0
F,['3'],3,TMTstop-B_1_5linestimulus9.png,TMTstop-B_1_5greenlinestimulus9.png,TMTstop-B_1_5redlinestimulus9.png,5,112,1.0,51.15120315551758,51.15120315551758,0.0,,1.0,1.0,0.0,3,0.008744300110265613,51.15120315551758,51.15120315551758,0.0,,11.0
7,['1'],1,TMTstop-B_1_5linestimulus10.png,TMTstop-B_1_5greenlinestimulus10.png,TMTstop-B_1_5redlinestimulus10.png,5,113,1.0,51.25137710571289,51.25137710571289,0.0,,1.0,1.0,0.0,1,0.06598150008358061,51.25137710571289,51.25137710571289,0.0,,12.0
G,['3'],3,TMTstop-B_1_5linestimulus11.png,TMTstop-B_1_5greenlinestimulus11.png,TMTstop-B_1_5redlinestimulus11.png,5,114,1.0,51.415653228759766,51.415653228759766,0.0,,1.0,1.0,0.0,2,3,-0.07722770003601909,0.042257299879565835,51.415653228759766,51.415653228759766,0.0,,13.0
8,['1'],1,TMTstop-B_1_5linestimulus12.png,TMTstop-B_1_5greenlinestimulus12.png,TMTstop-B_1_5redlinestimulus12.png,5,115,1.0,51.58223342895508,51.58223342895508,0.0,,1.0,1.0,0.0,1,0.03383710002526641,51.58223342895508,51.58223342895508,0.0,,14.0
H,['2'],2,TMTstop-B_1_5linestimulus13.png,TMTstop-B_1_5greenlinestimulus13.png,TMTstop-B_1_5redlinestimulus13.png,5,116,1.0,51.69266891479492,51.69266891479492,0.0,,1.0,1.0,0.0,2,-0.05572139983996749,51.69266891479492,51.69266891479492,0.0,,15.0
9,['3'],3,TMTstop-B_1_5linestimulus14.png,TMTstop-B_1_5greenlinestimulus14.png,TMTstop-B_1_5redlinestimulus14.png,5,117,1.0,51.76903533935547,51.76903533935547,0.0,,1.0,1.0,0.0,3,0.05284269992262125,51.76903533935547,51.76903533935547,0.0,,16.0
I,['1'],1,TMTstop-B_1_5linestimulus15.png,TMTstop-B_1_5greenlinestimulus15.png,TMTstop-B_1_5redlinestimulus15.png,5,118,1.0,51.90134048461914,51.90134048461914,0.0,,1.0,1.0,0.0,1,0.11285330005921423,51.90134048461914,51.90134048461914,0.0,,17.0
10,['3'],3,TMTstop-B_1_5linestimulus16.png,TMTstop-B_1_5greenlinestimulus16.png,TMTstop-B_1_5redlinestimulus16.png,5,119,1.0,52.090728759765625,52.090728759765625,0.0,,1.0,1.0,0.0,2,3,-0.05389199987985194,0.09962150012142956,52.090728759765625,52.090728759765625,0.0,,18.0
J,['2'],2,TMTstop-B_1_5linestimulus17.png,TMTstop-B_1_5greenlinestimulus17.png,TMTstop-B_1_5redlinestimulus17.png,5,120,1.0,52.29701614379883,52.29701614379883,0.0,,1.0,1.0,0.0,1,2,0.0722932000644505,0.10960560012608767,52.29701614379883,52.29701614379883,0.0,,19.0
11,['1'],1,TMTstop-B_1_5linestimulus18.png,TMTstop-B_1_5greenlinestimulus18.png,TMTstop-B_1_5redlinestimulus18.png,5,121,1.0,52.49824905395508,52.49824905395508,0.0,,1.0,1.0,0.0,3,1,0.05512669985182583,0.2102130998391658,52.49824905395508,52.49824905395508,0.0,,20.0
K,['2'],2,TMTstop-B_1_5linestimulus19.png,TMTstop-B_1_5greenlinestimulus19.png,TMTstop-B_1_5redlinestimulus19.png,5,122,1.0,52.80384063720703,52.80384063720703,0.0,,1.0,1.0,0.0,2,-0.0752204000018537,52.80384063720703,52.80384063720703,0.0,,21.0
12,['3'],3,TMTstop-B_1_5linestimulus20.png,TMTstop-B_1_5greenlinestimulus20.png,TMTstop-B_1_5redlinestimulus20.png,5,123,1.0,52.880126953125,52.880126953125,0.0,,1.0,1.0,0.0,3,0.0014362998772412539,52.880126953125,52.880126953125,0.0,,22.0
L,['1'],1,TMTstop-B_1_5linestimulus21.png,TMTstop-B_1_5greenlinestimulus21.png,TMTstop-B_1_5redlinestimulus21.png,5,124,1.0,52.95671463012695,52.95671463012695,0.0,,1.0,1.0,0.0,1,0.08000029996037483,52.95671463012695,52.95671463012695,0.0,,23.0
13,['3'],3,TMTstop-B_1_5linestimulus22.png,TMTstop-B_1_5greenlinestimulus22.png,TMTstop-B_1_5redlinestimulus22.png,5,125,1.0,53.123416900634766,53.123416900634766,0.0,,1.0,1.0,0.0,2,3,-0.03767589991912246,0.09011410013772547,53.123416900634766,53.123416900634766,0.0,,24.0
None,None,None,TMTstop-B_1_5linestimulus23.png,TMTstop-B_1_5greenlinestimulus23.png,TMTstop-B_1_5redlinestimulus23.png,5,Feedback_last,1.0,53.331642150878906,53.331642150878906,0.0,,0.0,0.0,0.0,1,2,0.012030500220134854,0.16528580011799932,53.331642150878906,53.331642150878906,0.0,,25.0

extraInfo
participant,
session,001
date,2022_Feb_02_1708
expName,TMTAstop-A
psychopyVersion,2021.2.3
frameRate,144.17760382967097
