Block_paper,Condition_rows,NumberLetter,corrAns,Correct,StimFile,Correct_StimFile,False_StimFile,Version,Paper,TrialNumber_Version,Round,Block,TrialNumber_total,Blocks_Control1.thisRepN,Blocks_Control1.thisTrialN,Blocks_Control1.thisN,Blocks_Control1.thisIndex,trials_Control1.thisRepN,trials_Control1.thisTrialN,trials_Control1.thisN,trials_Control1.thisIndex,Blocks_TMTA1.thisRepN,Blocks_TMTA1.thisTrialN,Blocks_TMTA1.thisN,Blocks_TMTA1.thisIndex,trials_TMTA1.thisRepN,trials_TMTA1.thisTrialN,trials_TMTA1.thisN,trials_TMTA1.thisIndex,Blocks_Control2.thisRepN,Blocks_Control2.thisTrialN,Blocks_Control2.thisN,Blocks_Control2.thisIndex,trials_Control2.thisRepN,trials_Control2.thisTrialN,trials_Control2.thisN,trials_Control2.thisIndex,Blocks_TMTB1.thisRepN,Blocks_TMTB1.thisTrialN,Blocks_TMTB1.thisN,Blocks_TMTB1.thisIndex,trials_TMTB1.thisRepN,trials_TMTB1.thisTrialN,trials_TMTB1.thisN,trials_TMTB1.thisIndex,Blocks_Control3.thisRepN,Blocks_Control3.thisTrialN,Blocks_Control3.thisN,Blocks_Control3.thisIndex,trials_Control3.thisRepN,trials_Control3.thisTrialN,trials_Control3.thisN,trials_Control3.thisIndex,Blocks_TMTA2.thisRepN,Blocks_TMTA2.thisTrialN,Blocks_TMTA2.thisN,Blocks_TMTA2.thisIndex,trials_TMTA2.thisRepN,trials_TMTA2.thisTrialN,trials_TMTA2.thisN,trials_TMTA2.thisIndex,Blocks_Control4.thisRepN,Blocks_Control4.thisTrialN,Blocks_Control4.thisN,Blocks_Control4.thisIndex,trials_Control4.thisRepN,trials_Control4.thisTrialN,trials_Control4.thisN,trials_Control4.thisIndex,Blocks_TMTB2.thisRepN,Blocks_TMTB2.thisTrialN,Blocks_TMTB2.thisN,Blocks_TMTB2.thisIndex,trials_TMTB2.thisRepN,trials_TMTB2.thisTrialN,trials_TMTB2.thisN,trials_TMTB2.thisIndex,key_resp_7.keys,key_resp_7.rt,key_resp_7.started,key_resp_7.stopped,polygon_2.started,polygon_2.stopped,text_2.started,text_2.stopped,Attempts,First_attempt,ResponseClock,Stim.started,Stim.stopped,key_resp_2.keys,key_resp_2.corr,key_resp_2.rt,key_resp_2.started,key_resp_2.stopped,Info2.started,Info2.stopped,participant,session,date,expName,psychopyVersion,frameRate,
,,,,,,,,,,,,,,,,,,,,,,,,,,,,,,,,,,,,,,,,,,,,,,,,,,,,,,,,,,,,,,,,,,,,,,,,,,,,,,s,2.7554638999863528,24.385017900029197,None,,,,,,,,,,,,,,,,,,001,2022_Dec_20_1655,TMT_fmri,2021.2.3,59.88583364190807,
C1,0:26,1,['2'],2,Images/TMTstop-control_1_1.png,Images/TMTstop-control_1_1.png,Images/TMTstop-control_1_1.png,TMT_Control,C1,1,1,1,1,0,0,0,0,0,0,0,0,,,,,,,,,,,,,,,,,,,,,,,,,,,,,,,,,,,,,,,,,,,,,,,,,,,,,,,,,,,,,24.385017900029197,None,40.681021700031124,None,2,0,8.601011499995366,48.0801414999878,None,"['1', '2']",1,"[0.5096114000189118, 1.1697945999912918]",48.0801414999878,None,,,,001,2022_Dec_20_1655,TMT_fmri,2021.2.3,59.88583364190807,
C1,0:26,2,['1'],1,Images/TMTstop-control_1_1.png,Images/TMTstop-control_1_1firstgreen.png,Images/TMTstop-control_1_1firstred.png,TMT_Control,C1,2,None,1,2,0,0,0,0,0,1,1,1,,,,,,,,,,,,,,,,,,,,,,,,,,,,,,,,,,,,,,,,,,,,,,,,,,,,,,,,,,,,,,,,,3,0,9.488077300018631,49.309352200012654,None,"['2', '3', '1']",1,"[0.41663659998448566, 0.5596137000247836, 0.7986456999788061]",49.309352200012654,None,,,,001,2022_Dec_20_1655,TMT_fmri,2021.2.3,59.88583364190807,
C1,0:26,3,['3'],3,Images/TMTstop-control_1_1linestimulus0.png,Images/TMTstop-control_1_1greenlinestimulus0.png,Images/TMTstop-control_1_1redlinestimulus0.png,TMT_Control,C1,3,None,1,3,0,0,0,0,0,2,2,2,,,,,,,,,,,,,,,,,,,,,,,,,,,,,,,,,,,,,,,,,,,,,,,,,,,,,,,,,,,,,,,,,2,0,9.624987800023519,50.1966112999944,None,"['2', '3']",1,"[0.00841549999313429, 0.07725629996275529]",50.1966112999944,None,,,,001,2022_Dec_20_1655,TMT_fmri,2021.2.3,59.88583364190807,
C1,0:26,4,['1'],1,Images/TMTstop-control_1_1linestimulus1.png,Images/TMTstop-control_1_1greenlinestimulus1.png,Images/TMTstop-control_1_1redlinestimulus1.png,TMT_Control,C1,4,None,1,4,0,0,0,0,0,3,3,3,,,,,,,,,,,,,,,,,,,,,,,,,,,,,,,,,,,,,,,,,,,,,,,,,,,,,,,,,,,,,,,,,1,1,9.825981699978001,50.33430560003035,None,['1'],1,[0.14547920000040904],50.33430560003035,None,,,,001,2022_Dec_20_1655,TMT_fmri,2021.2.3,59.88583364190807,
C1,0:26,5,['3'],3,Images/TMTstop-control_1_1linestimulus2.png,Images/TMTstop-control_1_1greenlinestimulus2.png,Images/TMTstop-control_1_1redlinestimulus2.png,TMT_Control,C1,5,None,1,5,0,0,0,0,0,4,4,4,,,,,,,,,,,,,,,,,,,,,,,,,,,,,,,,,,,,,,,,,,,,,,,,,,,,,,,,,,,,,,,,,4,0,10.664100900001358,50.54223560000537,None,"['2', '1', '2', '3']",1,"[0.008323899994138628, 0.617584399995394, 0.6401899000047706, 0.7577510999981314]",50.54223560000537,None,,,,001,2022_Dec_20_1655,TMT_fmri,2021.2.3,59.88583364190807,
C1,0:26,6,['1'],1,Images/TMTstop-control_1_1linestimulus3.png,Images/TMTstop-control_1_1greenlinestimulus3.png,Images/TMTstop-control_1_1redlinestimulus3.png,TMT_Control,C1,6,None,1,6,0,0,0,0,0,5,5,5,,,,,,,,,,,,,,,,,,,,,,,,,,,,,,,,,,,,,,,,,,,,,,,,,,,,,,,,,,,,,,,,,1,1,10.81509950000327,51.37329840002349,None,['1'],1,[0.08638079999946058],51.37329840002349,None,,,,001,2022_Dec_20_1655,TMT_fmri,2021.2.3,59.88583364190807,
C1,0:26,7,['2'],2,Images/TMTstop-control_1_1linestimulus4.png,Images/TMTstop-control_1_1greenlinestimulus4.png,Images/TMTstop-control_1_1redlinestimulus4.png,TMT_Control,C1,7,None,1,7,0,0,0,0,0,6,6,6,,,,,,,,,,,,,,,,,,,,,,,,,,,,,,,,,,,,,,,,,,,,,,,,,,,,,,,,,,,,,,,,,1,1,10.865082699980121,51.523679900041316,None,['2'],1,[-0.01821499998914078],51.523679900041316,None,,,,001,2022_Dec_20_1655,TMT_fmri,2021.2.3,59.88583364190807,
C1,0:26,8,['1'],1,Images/TMTstop-control_1_1linestimulus4.png,Images/TMTstop-control_1_1greenlinestimulus5.png,Images/TMTstop-control_1_1redlinestimulus5.png,TMT_Control,C1,8,None,1,8,0,0,0,0,0,7,7,7,,,,,,,,,,,,,,,,,,,,,,,,,,,,,,,,,,,,,,,,,,,,,,,,,,,,,,,,,,,,,,,,,2,0,11.101083200017456,51.58020840003155,None,"['3', '1']",1,"[0.00922750000609085, 0.14570399996591732]",51.58020840003155,None,,,,001,2022_Dec_20_1655,TMT_fmri,2021.2.3,59.88583364190807,
C1,0:26,9,['3'],3,Images/TMTstop-control_1_1linestimulus6.png,Images/TMTstop-control_1_1greenlinestimulus6.png,Images/TMTstop-control_1_1redlinestimulus6.png,TMT_Control,C1,9,None,1,9,0,0,0,0,0,8,8,8,,,,,,,,,,,,,,,,,,,,,,,,,,,,,,,,,,,,,,,,,,,,,,,,,,,,,,,,,,,,,,,,,2,0,11.201117400021758,51.80950050003594,None,"['2', '3']",1,"[-0.03968439996242523, 0.05013570003211498]",51.80950050003594,None,,,,001,2022_Dec_20_1655,TMT_fmri,2021.2.3,59.88583364190807,
C1,0:26,10,['2'],2,Images/TMTstop-control_1_1linestimulus7.png,Images/TMTstop-control_1_1greenlinestimulus7.png,Images/TMTstop-control_1_1redlinestimulus7.png,TMT_Control,C1,10,None,1,10,0,0,0,0,0,9,9,9,,,,,,,,,,,,,,,,,,,,,,,,,,,,,,,,,,,,,,,,,,,,,,,,,,,,,,,,,,,,,,,,,2,0,11.474187100015115,51.90954820002662,None,"['1', '2']",1,"[0.1054020999581553, 0.19072179996874183]",51.90954820002662,None,,,,001,2022_Dec_20_1655,TMT_fmri,2021.2.3,59.88583364190807,
C1,0:26,11,['1'],1,Images/TMTstop-control_1_1linestimulus8.png,Images/TMTstop-control_1_1greenlinestimulus8.png,Images/TMTstop-control_1_1redlinestimulus8.png,TMT_Control,C1,11,None,1,11,0,0,0,0,0,10,10,10,,,,,,,,,,,,,,,,,,,,,,,,,,,,,,,,,,,,,,,,,,,,,,,,,,,,,,,,,,,,,,,,,6,0,12.436180300021078,52.18851000000723,None,"['3', '1', '2', '2', '3', '1']",1,"[-0.001244800048880279, 0.5123116999748163, 0.5304371999809518, 0.5918089999468066, 0.6982238999917172, 0.8752929999609478]",52.18851000000723,None,,,,001,2022_Dec_20_1655,TMT_fmri,2021.2.3,59.88583364190807,
C1,0:26,12,['2'],2,Images/TMTstop-control_1_1linestimulus9.png,Images/TMTstop-control_1_1greenlinestimulus9.png,Images/TMTstop-control_1_1redlinestimulus9.png,TMT_Control,C1,12,None,1,12,0,0,0,0,0,11,11,11,,,,,,,,,,,,,,,,,,,,,,,,,,,,,,,,,,,,,,,,,,,,,,,,,,,,,,,,,,,,,,,,,1,1,12.486180900014006,53.1444883000222,None,['2'],1,[-0.027770599990617484],53.1444883000222,None,,,,001,2022_Dec_20_1655,TMT_fmri,2021.2.3,59.88583364190807,
C1,0:26,13,['3'],3,Images/TMTstop-control_1_1linestimulus10.png,Images/TMTstop-control_1_1greenlinestimulus10.png,Images/TMTstop-control_1_1redlinestimulus10.png,TMT_Control,C1,13,None,1,13,0,0,0,0,0,12,12,12,,,,,,,,,,,,,,,,,,,,,,,,,,,,,,,,,,,,,,,,,,,,,,,,,,,,,,,,,,,,,,,,,1,1,12.571222200000193,53.19631010002922,None,['3'],1,[0.00640499999281019],53.19631010002922,None,,,,001,2022_Dec_20_1655,TMT_fmri,2021.2.3,59.88583364190807,
C1,0:26,14,['2'],2,Images/TMTstop-control_1_1linestimulus11.png,Images/TMTstop-control_1_1greenlinestimulus11.png,Images/TMTstop-control_1_1redlinestimulus11.png,TMT_Control,C1,14,None,1,14,0,0,0,0,0,13,13,13,,,,,,,,,,,,,,,,,,,,,,,,,,,,,,,,,,,,,,,,,,,,,,,,,,,,,,,,,,,,,,,,,2,0,12.755074299988337,53.27970810001716,None,"['1', '2']",1,"[0.08389790001092479, 0.1290887999930419]",53.27970810001716,None,,,,001,2022_Dec_20_1655,TMT_fmri,2021.2.3,59.88583364190807,
C1,0:26,15,['3'],3,Images/TMTstop-control_1_1linestimulus12.png,Images/TMTstop-control_1_1greenlinestimulus12.png,Images/TMTstop-control_1_1redlinestimulus12.png,TMT_Control,C1,15,None,1,15,0,0,0,0,0,14,14,14,,,,,,,,,,,,,,,,,,,,,,,,,,,,,,,,,,,,,,,,,,,,,,,,,,,,,,,,,,,,,,,,,1,1,12.846211299998686,53.468035500030965,None,['3'],1,[0.019753600005060434],53.468035500030965,None,,,,001,2022_Dec_20_1655,TMT_fmri,2021.2.3,59.88583364190807,
C1,0:26,16,['2'],2,Images/TMTstop-control_1_1linestimulus13.png,Images/TMTstop-control_1_1greenlinestimulus13.png,Images/TMTstop-control_1_1redlinestimulus13.png,TMT_Control,C1,16,None,1,16,0,0,0,0,0,15,15,15,,,,,,,,,,,,,,,,,,,,,,,,,,,,,,,,,,,,,,,,,,,,,,,,,,,,,,,,,,,,,,,,,2,0,13.050181900034659,53.55830470001092,None,"['1', '2']",1,"[0.0936937999795191, 0.12261459999717772]",53.55830470001092,None,,,,001,2022_Dec_20_1655,TMT_fmri,2021.2.3,59.88583364190807,
C1,0:26,17,['3'],3,Images/TMTstop-control_1_1linestimulus14.png,Images/TMTstop-control_1_1greenlinestimulus14.png,Images/TMTstop-control_1_1redlinestimulus14.png,TMT_Control,C1,17,None,1,17,0,0,0,0,0,16,16,16,,,,,,,,,,,,,,,,,,,,,,,,,,,,,,,,,,,,,,,,,,,,,,,,,,,,,,,,,,,,,,,,,1,1,13.13408420002088,53.75854710000567,None,['3'],1,[0.011764599999878556],53.75854710000567,None,,,,001,2022_Dec_20_1655,TMT_fmri,2021.2.3,59.88583364190807,
C1,0:26,18,['2'],2,Images/TMTstop-control_1_1linestimulus15.png,Images/TMTstop-control_1_1greenlinestimulus15.png,Images/TMTstop-control_1_1redlinestimulus15.png,TMT_Control,C1,18,None,1,18,0,0,0,0,0,17,17,17,,,,,,,,,,,,,,,,,,,,,,,,,,,,,,,,,,,,,,,,,,,,,,,,,,,,,,,,,,,,,,,,,2,0,13.31732450000709,53.84144530002959,None,"['1', '2']",1,"[0.07303580001462251, 0.1158236000337638]",53.84144530002959,None,,,,001,2022_Dec_20_1655,TMT_fmri,2021.2.3,59.88583364190807,
C1,0:26,19,['1'],1,Images/TMTstop-control_1_1linestimulus16.png,Images/TMTstop-control_1_1greenlinestimulus16.png,Images/TMTstop-control_1_1redlinestimulus16.png,TMT_Control,C1,19,None,1,19,0,0,0,0,0,18,18,18,,,,,,,,,,,,,,,,,,,,,,,,,,,,,,,,,,,,,,,,,,,,,,,,,,,,,,,,,,,,,,,,,2,0,13.56704960000934,54.0256151999929,None,"['3', '1']",1,"[0.011385100020561367, 0.16014920000452548]",54.0256151999929,None,,,,001,2022_Dec_20_1655,TMT_fmri,2021.2.3,59.88583364190807,
C1,0:26,20,['3'],3,Images/TMTstop-control_1_1linestimulus17.png,Images/TMTstop-control_1_1greenlinestimulus17.png,Images/TMTstop-control_1_1redlinestimulus17.png,TMT_Control,C1,20,None,1,20,0,0,0,0,0,19,19,19,,,,,,,,,,,,,,,,,,,,,,,,,,,,,,,,,,,,,,,,,,,,,,,,,,,,,,,,,,,,,,,,,2,0,13.670197000028566,54.27694250002969,None,"['2', '3']",1,"[-0.048495099996216595, 0.047364900005050004]",54.27694250002969,None,,,,001,2022_Dec_20_1655,TMT_fmri,2021.2.3,59.88583364190807,
C1,0:26,21,['1'],1,Images/TMTstop-control_1_1linestimulus18.png,Images/TMTstop-control_1_1greenlinestimulus18.png,Images/TMTstop-control_1_1redlinestimulus18.png,TMT_Control,C1,21,None,1,21,0,0,0,0,0,20,20,20,,,,,,,,,,,,,,,,,,,,,,,,,,,,,,,,,,,,,,,,,,,,,,,,,,,,,,,,,,,,,,,,,1,1,13.82120850001229,54.378742500033695,None,['1'],1,[0.09405529999639839],54.378742500033695,None,,,,001,2022_Dec_20_1655,TMT_fmri,2021.2.3,59.88583364190807,
C1,0:26,22,['2'],2,Images/TMTstop-control_1_1linestimulus19.png,Images/TMTstop-control_1_1greenlinestimulus19.png,Images/TMTstop-control_1_1redlinestimulus19.png,TMT_Control,C1,22,None,1,22,0,0,0,0,0,21,21,21,,,,,,,,,,,,,,,,,,,,,,,,,,,,,,,,,,,,,,,,,,,,,,,,,,,,,,,,,,,,,,,,,1,1,13.871206099982373,54.52968500001589,None,['2'],1,[-0.0058991999831050634],54.52968500001589,None,,,,001,2022_Dec_20_1655,TMT_fmri,2021.2.3,59.88583364190807,
C1,0:26,23,['3'],3,Images/TMTstop-control_1_1linestimulus20.png,Images/TMTstop-control_1_1greenlinestimulus20.png,Images/TMTstop-control_1_1redlinestimulus20.png,TMT_Control,C1,23,None,1,23,0,0,0,0,0,22,22,22,,,,,,,,,,,,,,,,,,,,,,,,,,,,,,,,,,,,,,,,,,,,,,,,,,,,,,,,,,,,,,,,,1,1,13.978229300002567,54.58639489999041,None,['3'],1,[0.048290900012943894],54.58639489999041,None,,,,001,2022_Dec_20_1655,TMT_fmri,2021.2.3,59.88583364190807,
C1,0:26,24,['2'],2,Images/TMTstop-control_1_1linestimulus21.png,Images/TMTstop-control_1_1greenlinestimulus21.png,Images/TMTstop-control_1_1redlinestimulus21.png,TMT_Control,C1,24,None,1,24,0,0,0,0,0,23,23,23,,,,,,,,,,,,,,,,,,,,,,,,,,,,,,,,,,,,,,,,,,,,,,,,,,,,,,,,,,,,,,,,,1,1,14.515228200005367,54.68653230002383,None,['2'],1,[0.4763276999583468],54.68653230002383,None,,,,001,2022_Dec_20_1655,TMT_fmri,2021.2.3,59.88583364190807,
C1,0:26,25,['1'],1,Images/TMTstop-control_1_1linestimulus22.png,Images/TMTstop-control_1_1greenlinestimulus22.png,Images/TMTstop-control_1_1redlinestimulus22.png,TMT_Control,C1,25,None,1,25,0,0,0,0,0,24,24,24,,,,,,,,,,,,,,,,,,,,,,,,,,,,,,,,,,,,,,,,,,,,,,,,,,,,,,,,,,,,,,,,,1,1,14.906212400004733,55.23117220000131,None,['1'],1,[0.3316161999828182],55.23117220000131,None,,,,001,2022_Dec_20_1655,TMT_fmri,2021.2.3,59.88583364190807,
C1,0:26,None,None,None,Images/TMTstop-control_1_1linestimulus23.png,Images/TMTstop-control_1_1greenlinestimulus23.png,Images/TMTstop-control_1_1redlinestimulus23.png,TMT_Control,C1,Feedback_last,None,1,Feedback_last,0,0,0,0,0,25,25,25,,,,,,,,,,,,,,,,,,,,,,,,,,,,,,,,,,,,,,,,,,,,,,,,,,,,,,,,,,,,,,,,,0,0,,55.6224438000354,None,None,1,,55.6224438000354,None,,,,001,2022_Dec_20_1655,TMT_fmri,2021.2.3,59.88583364190807,
C2,26:52,1,['2'],2,Images/TMTstop-control_1_2.png,Images/TMTstop-control_1_2.png,Images/TMTstop-control_1_2.png,TMT_Control,C2,26,None,1,26,0,1,1,1,0,0,0,0,,,,,,,,,,,,,,,,,,,,,,,,,,,,,,,,,,,,,,,,,,,,,,,,,,,,,,,,,,,,,,,,,2,0,19.70607580000069,59.92709569999715,None,"['1', '2']",1,"[0.2904746000422165, 0.40775190002750605]",59.92709569999715,None,,,,001,2022_Dec_20_1655,TMT_fmri,2021.2.3,59.88583364190807,
C2,26:52,2,['3'],3,Images/TMTstop-control_1_2.png,Images/TMTstop-control_1_2firstgreen.png,Images/TMTstop-control_1_2firstred.png,TMT_Control,C2,27,None,1,27,0,1,1,1,0,1,1,1,,,,,,,,,,,,,,,,,,,,,,,,,,,,,,,,,,,,,,,,,,,,,,,,,,,,,,,,,,,,,,,,,1,1,19.75694300001487,60.41497470001923,None,['3'],1,[-0.0441385000012815],60.41497470001923,None,,,,001,2022_Dec_20_1655,TMT_fmri,2021.2.3,59.88583364190807,
C2,26:52,3,['2'],2,Images/TMTstop-control_1_2linestimulus0.png,Images/TMTstop-control_1_2greenlinestimulus0.png,Images/TMTstop-control_1_2redlinestimulus0.png,TMT_Control,C2,28,None,1,28,0,1,1,1,0,2,2,2,,,,,,,,,,,,,,,,,,,,,,,,,,,,,,,,,,,,,,,,,,,,,,,,,,,,,,,,,,,,,,,,,2,0,19.94793279998703,60.47006479999982,None,"['1', '2']",1,"[0.061426500033121556, 0.11880550003843382]",60.47006479999982,None,,,,001,2022_Dec_20_1655,TMT_fmri,2021.2.3,59.88583364190807,
C2,26:52,4,['3'],3,Images/TMTstop-control_1_2linestimulus1.png,Images/TMTstop-control_1_2greenlinestimulus1.png,Images/TMTstop-control_1_2redlinestimulus1.png,TMT_Control,C2,29,None,1,29,0,1,1,1,0,3,3,3,,,,,,,,,,,,,,,,,,,,,,,,,,,,,,,,,,,,,,,,,,,,,,,,,,,,,,,,,,,,,,,,,1,1,20.006104000029154,60.66437830001814,None,['3'],1,[-0.00848670001141727],60.66437830001814,None,,,,001,2022_Dec_20_1655,TMT_fmri,2021.2.3,59.88583364190807,
C2,26:52,5,['2'],2,Images/TMTstop-control_1_2linestimulus2.png,Images/TMTstop-control_1_2greenlinestimulus2.png,Images/TMTstop-control_1_2redlinestimulus2.png,TMT_Control,C2,30,None,1,30,0,1,1,1,0,4,4,4,,,,,,,,,,,,,,,,,,,,,,,,,,,,,,,,,,,,,,,,,,,,,,,,,,,,,,,,,,,,,,,,,2,0,20.243935699982103,60.71432830003323,None,"['1', '2']",1,"[0.07764799997676164, 0.1383728999644518]",60.71432830003323,None,,,,001,2022_Dec_20_1655,TMT_fmri,2021.2.3,59.88583364190807,
C2,26:52,6,['3'],3,Images/TMTstop-control_1_2linestimulus3.png,Images/TMTstop-control_1_2greenlinestimulus3.png,Images/TMTstop-control_1_2redlinestimulus3.png,TMT_Control,C2,31,None,1,31,0,1,1,1,0,5,5,5,,,,,,,,,,,,,,,,,,,,,,,,,,,,,,,,,,,,,,,,,,,,,,,,,,,,,,,,,,,,,,,,,1,1,20.300092299992684,60.9582095000078,None,['3'],1,[-0.03528710000682622],60.9582095000078,None,,,,001,2022_Dec_20_1655,TMT_fmri,2021.2.3,59.88583364190807,
C2,26:52,7,['2'],2,Images/TMTstop-control_1_2linestimulus4.png,Images/TMTstop-control_1_2greenlinestimulus4.png,Images/TMTstop-control_1_2redlinestimulus4.png,TMT_Control,C2,32,None,1,32,0,1,1,1,0,6,6,6,,,,,,,,,,,,,,,,,,,,,,,,,,,,,,,,,,,,,,,,,,,,,,,,,,,,,,,,,,,,,,,,,2,0,20.4670952000306,61.00844609999331,None,"['1', '2']",1,"[0.06337760004680604, 0.10701560002053156]",61.00844609999331,None,,,,001,2022_Dec_20_1655,TMT_fmri,2021.2.3,59.88583364190807,
C2,26:52,8,['1'],1,Images/TMTstop-control_1_2linestimulus4.png,Images/TMTstop-control_1_2greenlinestimulus5.png,Images/TMTstop-control_1_2redlinestimulus5.png,TMT_Control,C2,33,None,1,33,0,1,1,1,0,7,7,7,,,,,,,,,,,,,,,,,,,,,,,,,,,,,,,,,,,,,,,,,,,,,,,,,,,,,,,,,,,,,,,,,3,0,20.753100000030827,61.18170210003154,None,"['3', '2', '1']",1,"[0.013195899955462664, 0.20830659999046475, 0.2120287999860011]",61.18170210003154,None,,,,001,2022_Dec_20_1655,TMT_fmri,2021.2.3,59.88583364190807,
C2,26:52,9,['3'],3,Images/TMTstop-control_1_2linestimulus6.png,Images/TMTstop-control_1_2greenlinestimulus6.png,Images/TMTstop-control_1_2redlinestimulus6.png,TMT_Control,C2,34,None,1,34,0,1,1,1,0,8,8,8,,,,,,,,,,,,,,,,,,,,,,,,,,,,,,,,,,,,,,,,,,,,,,,,,,,,,,,,,,,,,,,,,1,1,20.970004400005564,61.46103559999028,None,['3'],1,[0.16282930003944784],61.46103559999028,None,,,,001,2022_Dec_20_1655,TMT_fmri,2021.2.3,59.88583364190807,
C2,26:52,10,['2'],2,Images/TMTstop-control_1_2linestimulus7.png,Images/TMTstop-control_1_2greenlinestimulus7.png,Images/TMTstop-control_1_2redlinestimulus7.png,TMT_Control,C2,35,None,1,35,0,1,1,1,0,9,9,9,,,,,,,,,,,,,,,,,,,,,,,,,,,,,,,,,,,,,,,,,,,,,,,,,,,,,,,,,,,,,,,,,2,0,21.22819520003395,61.67758060002234,None,"['1', '2']",1,"[0.13650189997861162, 0.1643243000144139]",61.67758060002234,None,,,,001,2022_Dec_20_1655,TMT_fmri,2021.2.3,59.88583364190807,
C2,26:52,11,['3'],3,Images/TMTstop-control_1_2linestimulus8.png,Images/TMTstop-control_1_2greenlinestimulus8.png,Images/TMTstop-control_1_2redlinestimulus8.png,TMT_Control,C2,36,None,1,36,0,1,1,1,0,10,10,10,,,,,,,,,,,,,,,,,,,,,,,,,,,,,,,,,,,,,,,,,,,,,,,,,,,,,,,,,,,,,,,,,1,1,21.31121339998208,61.93611980002606,None,['3'],1,[0.021356599987484515],61.93611980002606,None,,,,001,2022_Dec_20_1655,TMT_fmri,2021.2.3,59.88583364190807,
C2,26:52,12,['2'],2,Images/TMTstop-control_1_2linestimulus9.png,Images/TMTstop-control_1_2greenlinestimulus9.png,Images/TMTstop-control_1_2redlinestimulus9.png,TMT_Control,C2,37,None,1,37,0,1,1,1,0,11,11,11,,,,,,,,,,,,,,,,,,,,,,,,,,,,,,,,,,,,,,,,,,,,,,,,,,,,,,,,,,,,,,,,,2,0,21.553177000023425,62.01918669999577,None,"['1', '2']",1,"[0.10362220002571121, 0.15731380000943318]",62.01918669999577,None,,,,001,2022_Dec_20_1655,TMT_fmri,2021.2.3,59.88583364190807,
C2,26:52,13,['3'],3,Images/TMTstop-control_1_2linestimulus10.png,Images/TMTstop-control_1_2greenlinestimulus10.png,Images/TMTstop-control_1_2redlinestimulus10.png,TMT_Control,C2,38,None,1,38,0,1,1,1,0,12,12,12,,,,,,,,,,,,,,,,,,,,,,,,,,,,,,,,,,,,,,,,,,,,,,,,,,,,,,,,,,,,,,,,,1,1,21.593159099982586,62.25141440000152,None,['3'],1,[-6.430002395063639e-05],62.25141440000152,None,,,,001,2022_Dec_20_1655,TMT_fmri,2021.2.3,59.88583364190807,
C2,26:52,14,['2'],2,Images/TMTstop-control_1_2linestimulus11.png,Images/TMTstop-control_1_2greenlinestimulus11.png,Images/TMTstop-control_1_2redlinestimulus11.png,TMT_Control,C2,39,None,1,39,0,1,1,1,0,13,13,13,,,,,,,,,,,,,,,,,,,,,,,,,,,,,,,,,,,,,,,,,,,,,,,,,,,,,,,,,,,,,,,,,2,0,21.80329409998376,62.308502100000624,None,"['1', '2']",1,"[0.09552410000469536, 0.14583380002295598]",62.308502100000624,None,,,,001,2022_Dec_20_1655,TMT_fmri,2021.2.3,59.88583364190807,
C2,26:52,15,['3'],3,Images/TMTstop-control_1_2linestimulus12.png,Images/TMTstop-control_1_2greenlinestimulus12.png,Images/TMTstop-control_1_2redlinestimulus12.png,TMT_Control,C2,40,None,1,40,0,1,1,1,0,14,14,14,,,,,,,,,,,,,,,,,,,,,,,,,,,,,,,,,,,,,,,,,,,,,,,,,,,,,,,,,,,,,,,,,1,1,21.89629760000389,62.51900160004152,None,['3'],1,[0.026389900012873113],62.51900160004152,None,,,,001,2022_Dec_20_1655,TMT_fmri,2021.2.3,59.88583364190807,
C2,26:52,16,['1'],1,Images/TMTstop-control_1_2linestimulus13.png,Images/TMTstop-control_1_2greenlinestimulus13.png,Images/TMTstop-control_1_2redlinestimulus13.png,TMT_Control,C2,41,None,1,41,0,1,1,1,0,15,15,15,,,,,,,,,,,,,,,,,,,,,,,,,,,,,,,,,,,,,,,,,,,,,,,,,,,,,,,,,,,,,,,,,1,1,22.050489799992647,62.60876550001558,None,['1'],1,[0.08456370001658797],62.60876550001558,None,,,,001,2022_Dec_20_1655,TMT_fmri,2021.2.3,59.88583364190807,
C2,26:52,17,['2'],2,Images/TMTstop-control_1_2linestimulus14.png,Images/TMTstop-control_1_2greenlinestimulus14.png,Images/TMTstop-control_1_2redlinestimulus14.png,TMT_Control,C2,42,None,1,42,0,1,1,1,0,16,16,16,,,,,,,,,,,,,,,,,,,,,,,,,,,,,,,,,,,,,,,,,,,,,,,,,,,,,,,,,,,,,,,,,1,1,22.100513899989892,62.7588857000228,None,['2'],1,[-0.02492370002437383],62.7588857000228,None,,,,001,2022_Dec_20_1655,TMT_fmri,2021.2.3,59.88583364190807,
C2,26:52,18,['1'],1,Images/TMTstop-control_1_2linestimulus15.png,Images/TMTstop-control_1_2greenlinestimulus15.png,Images/TMTstop-control_1_2redlinestimulus15.png,TMT_Control,C2,43,None,1,43,0,1,1,1,0,17,17,17,,,,,,,,,,,,,,,,,,,,,,,,,,,,,,,,,,,,,,,,,,,,,,,,,,,,,,,,,,,,,,,,,2,0,22.33446929999627,62.80903440003749,None,"['3', '1']",1,"[0.013426900026388466, 0.17740770004456863]",62.80903440003749,None,,,,001,2022_Dec_20_1655,TMT_fmri,2021.2.3,59.88583364190807,
C2,26:52,19,['2'],2,Images/TMTstop-control_1_2linestimulus16.png,Images/TMTstop-control_1_2greenlinestimulus16.png,Images/TMTstop-control_1_2redlinestimulus16.png,TMT_Control,C2,44,None,1,44,0,1,1,1,0,18,18,18,,,,,,,,,,,,,,,,,,,,,,,,,,,,,,,,,,,,,,,,,,,,,,,,,,,,,,,,,,,,,,,,,1,1,22.38351270003477,63.04201309999917,None,['2'],1,[-0.03099790000123903],63.04201309999917,None,,,,001,2022_Dec_20_1655,TMT_fmri,2021.2.3,59.88583364190807,
C2,26:52,20,['3'],3,Images/TMTstop-control_1_2linestimulus17.png,Images/TMTstop-control_1_2greenlinestimulus17.png,Images/TMTstop-control_1_2redlinestimulus17.png,TMT_Control,C2,45,None,1,45,0,1,1,1,0,19,19,19,,,,,,,,,,,,,,,,,,,,,,,,,,,,,,,,,,,,,,,,,,,,,,,,,,,,,,,,,,,,,,,,,1,1,22.48454259999562,63.09254370001145,None,['3'],1,[0.0311935999779962],63.09254370001145,None,,,,001,2022_Dec_20_1655,TMT_fmri,2021.2.3,59.88583364190807,
C2,26:52,21,['1'],1,Images/TMTstop-control_1_2linestimulus18.png,Images/TMTstop-control_1_2greenlinestimulus18.png,Images/TMTstop-control_1_2redlinestimulus18.png,TMT_Control,C2,46,None,1,46,0,1,1,1,0,20,20,20,,,,,,,,,,,,,,,,,,,,,,,,,,,,,,,,,,,,,,,,,,,,,,,,,,,,,,,,,,,,,,,,,1,1,22.634674999979325,63.19266790000256,None,['1'],1,[0.08843409997643903],63.19266790000256,None,,,,001,2022_Dec_20_1655,TMT_fmri,2021.2.3,59.88583364190807,
C2,26:52,22,['3'],3,Images/TMTstop-control_1_2linestimulus19.png,Images/TMTstop-control_1_2greenlinestimulus19.png,Images/TMTstop-control_1_2redlinestimulus19.png,TMT_Control,C2,47,None,1,47,0,1,1,1,0,21,21,21,,,,,,,,,,,,,,,,,,,,,,,,,,,,,,,,,,,,,,,,,,,,,,,,,,,,,,,,,,,,,,,,,2,0,22.78853760001948,63.34268450003583,None,"['2', '3']",1,"[-0.020598999981302768, 0.06926380004733801]",63.34268450003583,None,,,,001,2022_Dec_20_1655,TMT_fmri,2021.2.3,59.88583364190807,
C2,26:52,23,['2'],2,Images/TMTstop-control_1_2linestimulus20.png,Images/TMTstop-control_1_2greenlinestimulus20.png,Images/TMTstop-control_1_2redlinestimulus20.png,TMT_Control,C2,48,None,1,48,0,1,1,1,0,22,22,22,,,,,,,,,,,,,,,,,,,,,,,,,,,,,,,,,,,,,,,,,,,,,,,,,,,,,,,,,,,,,,,,,2,0,22.99651329999324,63.504245900025126,None,"['1', '2']",1,"[0.050172299961559474, 0.11465679999673739]",63.504245900025126,None,,,,001,2022_Dec_20_1655,TMT_fmri,2021.2.3,59.88583364190807,
C2,26:52,24,['3'],3,Images/TMTstop-control_1_2linestimulus21.png,Images/TMTstop-control_1_2greenlinestimulus21.png,Images/TMTstop-control_1_2redlinestimulus21.png,TMT_Control,C2,49,None,1,49,0,1,1,1,0,23,23,23,,,,,,,,,,,,,,,,,,,,,,,,,,,,,,,,,,,,,,,,,,,,,,,,,,,,,,,,,,,,,,,,,1,1,23.04653520003194,63.70448840002064,None,['3'],1,[-0.008030500030145049],63.70448840002064,None,,,,001,2022_Dec_20_1655,TMT_fmri,2021.2.3,59.88583364190807,
C2,26:52,25,['1'],1,Images/TMTstop-control_1_2linestimulus22.png,Images/TMTstop-control_1_2greenlinestimulus22.png,Images/TMTstop-control_1_2redlinestimulus22.png,TMT_Control,C2,50,None,1,50,0,1,1,1,0,24,24,24,,,,,,,,,,,,,,,,,,,,,,,,,,,,,,,,,,,,,,,,,,,,,,,,,,,,,,,,,,,,,,,,,1,1,23.517417600029148,63.75443319999613,None,['1'],1,[0.40150149998953566],63.75443319999613,None,,,,001,2022_Dec_20_1655,TMT_fmri,2021.2.3,59.88583364190807,
C2,26:52,None,None,None,Images/TMTstop-control_1_2linestimulus23.png,Images/TMTstop-control_1_2greenlinestimulus23.png,Images/TMTstop-control_1_2redlinestimulus23.png,TMT_Control,C2,Feedback_last,None,1,Feedback_last,0,1,1,1,0,25,25,25,,,,,,,,,,,,,,,,,,,,,,,,,,,,,,,,,,,,,,,,,,,,,,,,,,,,,,,,,,,,,,,,,0,0,,64.23342170001706,None,None,1,,64.23342170001706,None,,,,001,2022_Dec_20_1655,TMT_fmri,2021.2.3,59.88583364190807,
C3,52:78,1,['2'],2,Images/TMTstop-control_1_3.png,Images/TMTstop-control_1_3.png,Images/TMTstop-control_1_3.png,TMT_Control,C3,51,None,1,51,0,2,2,2,0,0,0,0,,,,,,,,,,,,,,,,,,,,,,,,,,,,,,,,,,,,,,,,,,,,,,,,,,,,,,,,,,,,,,,,,2,0,28.400476499984507,68.53759660001379,None,"['1', '2']",1,"[0.4192602999974042, 0.47721589996945113]",68.53759660001379,None,,,,001,2022_Dec_20_1655,TMT_fmri,2021.2.3,59.88583364190807,
C3,52:78,2,['1'],1,Images/TMTstop-control_1_3.png,Images/TMTstop-control_1_3firstgreen.png,Images/TMTstop-control_1_3firstred.png,TMT_Control,C3,52,None,1,52,0,2,2,2,0,1,1,1,,,,,,,,,,,,,,,,,,,,,,,,,,,,,,,,,,,,,,,,,,,,,,,,,,,,,,,,,,,,,,,,,2,0,28.608382000005804,69.10893400001805,None,"['3', '1']",1,"[-0.009721099981106818, 0.15801310003735125]",69.10893400001805,None,,,,001,2022_Dec_20_1655,TMT_fmri,2021.2.3,59.88583364190807,
C3,52:78,3,['2'],2,Images/TMTstop-control_1_3linestimulus0.png,Images/TMTstop-control_1_3greenlinestimulus0.png,Images/TMTstop-control_1_3redlinestimulus0.png,TMT_Control,C3,53,None,1,53,0,2,2,2,0,2,2,2,,,,,,,,,,,,,,,,,,,,,,,,,,,,,,,,,,,,,,,,,,,,,,,,,,,,,,,,,,,,,,,,,1,1,28.658507400017697,69.31644210004015,None,['2'],1,[-0.007712899998296052],69.31644210004015,None,,,,001,2022_Dec_20_1655,TMT_fmri,2021.2.3,59.88583364190807,
C3,52:78,4,['1'],1,Images/TMTstop-control_1_3linestimulus1.png,Images/TMTstop-control_1_3greenlinestimulus1.png,Images/TMTstop-control_1_3redlinestimulus1.png,TMT_Control,C3,54,None,1,54,0,2,2,2,0,3,3,3,,,,,,,,,,,,,,,,,,,,,,,,,,,,,,,,,,,,,,,,,,,,,,,,,,,,,,,,,,,,,,,,,2,0,28.908410699979868,69.36667060002219,None,"['3', '1']",1,"[0.02001680003013462, 0.18337850004900247]",69.36667060002219,None,,,,001,2022_Dec_20_1655,TMT_fmri,2021.2.3,59.88583364190807,
C3,52:78,5,['3'],3,Images/TMTstop-control_1_3linestimulus2.png,Images/TMTstop-control_1_3greenlinestimulus2.png,Images/TMTstop-control_1_3redlinestimulus2.png,TMT_Control,C3,55,None,1,55,0,2,2,2,0,4,4,4,,,,,,,,,,,,,,,,,,,,,,,,,,,,,,,,,,,,,,,,,,,,,,,,,,,,,,,,,,,,,,,,,2,0,29.058638799993787,69.61706050002249,None,"['2', '3']",1,"[-0.019997700001113117, 0.05984070000704378]",69.61706050002249,None,,,,001,2022_Dec_20_1655,TMT_fmri,2021.2.3,59.88583364190807,
C3,52:78,6,['1'],1,Images/TMTstop-control_1_3linestimulus3.png,Images/TMTstop-control_1_3greenlinestimulus3.png,Images/TMTstop-control_1_3redlinestimulus3.png,TMT_Control,C3,56,None,1,56,0,2,2,2,0,5,5,5,,,,,,,,,,,,,,,,,,,,,,,,,,,,,,,,,,,,,,,,,,,,,,,,,,,,,,,,,,,,,,,,,1,1,29.209383699984755,69.76709879998816,None,['1'],1,[0.07053520000772551],69.76709879998816,None,,,,001,2022_Dec_20_1655,TMT_fmri,2021.2.3,59.88583364190807,
C3,52:78,7,['2'],2,Images/TMTstop-control_1_3linestimulus4.png,Images/TMTstop-control_1_3greenlinestimulus4.png,Images/TMTstop-control_1_3redlinestimulus4.png,TMT_Control,C3,57,None,1,57,0,2,2,2,0,6,6,6,,,,,,,,,,,,,,,,,,,,,,,,,,,,,,,,,,,,,,,,,,,,,,,,,,,,,,,,,,,,,,,,,1,1,29.258472300018184,69.91716840001754,None,['2'],1,[-0.04135800001677126],69.91716840001754,None,,,,001,2022_Dec_20_1655,TMT_fmri,2021.2.3,59.88583364190807,
C3,52:78,8,['3'],3,Images/TMTstop-control_1_3linestimulus4.png,Images/TMTstop-control_1_3greenlinestimulus5.png,Images/TMTstop-control_1_3redlinestimulus5.png,TMT_Control,C3,58,None,1,58,0,2,2,2,0,7,7,7,,,,,,,,,,,,,,,,,,,,,,,,,,,,,,,,,,,,,,,,,,,,,,,,,,,,,,,,,,,,,,,,,1,1,29.315500600030646,69.97401599999284,None,['3'],1,[-0.021006499999202788],69.97401599999284,None,,,,001,2022_Dec_20_1655,TMT_fmri,2021.2.3,59.88583364190807,
C3,52:78,9,['1'],1,Images/TMTstop-control_1_3linestimulus6.png,Images/TMTstop-control_1_3greenlinestimulus6.png,Images/TMTstop-control_1_3redlinestimulus6.png,TMT_Control,C3,59,None,1,59,0,2,2,2,0,8,8,8,,,,,,,,,,,,,,,,,,,,,,,,,,,,,,,,,,,,,,,,,,,,,,,,,,,,,,,,,,,,,,,,,1,1,29.449508899997454,70.02411130000837,None,['1'],1,[0.08001799997873604],70.02411130000837,None,,,,001,2022_Dec_20_1655,TMT_fmri,2021.2.3,59.88583364190807,
C3,52:78,10,['2'],2,Images/TMTstop-control_1_3linestimulus7.png,Images/TMTstop-control_1_3greenlinestimulus7.png,Images/TMTstop-control_1_3redlinestimulus7.png,TMT_Control,C3,60,None,1,60,0,2,2,2,0,9,9,9,,,,,,,,,,,,,,,,,,,,,,,,,,,,,,,,,,,,,,,,,,,,,,,,,,,,,,,,,,,,,,,,,1,1,29.499400899978355,70.15733780001756,None,['2'],1,[-0.012114599987398833],70.15733780001756,None,,,,001,2022_Dec_20_1655,TMT_fmri,2021.2.3,59.88583364190807,
C3,52:78,11,['1'],1,Images/TMTstop-control_1_3linestimulus8.png,Images/TMTstop-control_1_3greenlinestimulus8.png,Images/TMTstop-control_1_3redlinestimulus8.png,TMT_Control,C3,61,None,1,61,0,2,2,2,0,10,10,10,,,,,,,,,,,,,,,,,,,,,,,,,,,,,,,,,,,,,,,,,,,,,,,,,,,,,,,,,,,,,,,,,2,0,29.74352479999652,70.21222230000421,None,"['3', '1']",1,"[0.014685200003441423, 0.15511609998065978]",70.21222230000421,None,,,,001,2022_Dec_20_1655,TMT_fmri,2021.2.3,59.88583364190807,
C3,52:78,12,['2'],2,Images/TMTstop-control_1_3linestimulus9.png,Images/TMTstop-control_1_3greenlinestimulus9.png,Images/TMTstop-control_1_3redlinestimulus9.png,TMT_Control,C3,62,None,1,62,0,2,2,2,0,11,11,11,,,,,,,,,,,,,,,,,,,,,,,,,,,,,,,,,,,,,,,,,,,,,,,,,,,,,,,,,,,,,,,,,1,1,29.793471299984958,70.45161330001429,None,['2'],1,[-0.04415610001888126],70.45161330001429,None,,,,001,2022_Dec_20_1655,TMT_fmri,2021.2.3,59.88583364190807,
C3,52:78,13,['3'],3,Images/TMTstop-control_1_3linestimulus10.png,Images/TMTstop-control_1_3greenlinestimulus10.png,Images/TMTstop-control_1_3redlinestimulus10.png,TMT_Control,C3,63,None,1,63,0,2,2,2,0,12,12,12,,,,,,,,,,,,,,,,,,,,,,,,,,,,,,,,,,,,,,,,,,,,,,,,,,,,,,,,,,,,,,,,,1,1,29.843495699984487,70.50175950000994,None,['3'],1,[-0.004833900020457804],70.50175950000994,None,,,,001,2022_Dec_20_1655,TMT_fmri,2021.2.3,59.88583364190807,
C3,52:78,14,['2'],2,Images/TMTstop-control_1_3linestimulus11.png,Images/TMTstop-control_1_3greenlinestimulus11.png,Images/TMTstop-control_1_3redlinestimulus11.png,TMT_Control,C3,64,None,1,64,0,2,2,2,0,13,13,13,,,,,,,,,,,,,,,,,,,,,,,,,,,,,,,,,,,,,,,,,,,,,,,,,,,,,,,,,,,,,,,,,2,0,30.044444300001487,70.55175040004542,None,"['1', '2']",1,"[0.08591080002952367, 0.1347548000048846]",70.55175040004542,None,,,,001,2022_Dec_20_1655,TMT_fmri,2021.2.3,59.88583364190807,
C3,52:78,15,['1'],1,Images/TMTstop-control_1_3linestimulus12.png,Images/TMTstop-control_1_3greenlinestimulus12.png,Images/TMTstop-control_1_3redlinestimulus12.png,TMT_Control,C3,65,None,1,65,0,2,2,2,0,14,14,14,,,,,,,,,,,,,,,,,,,,,,,,,,,,,,,,,,,,,,,,,,,,,,,,,,,,,,,,,,,,,,,,,2,0,30.284364000021014,70.75198330002604,None,"['3', '1']",1,"[0.030672899971250445, 0.16512699995655566]",70.75198330002604,None,,,,001,2022_Dec_20_1655,TMT_fmri,2021.2.3,59.88583364190807,
C3,52:78,16,['3'],3,Images/TMTstop-control_1_3linestimulus13.png,Images/TMTstop-control_1_3greenlinestimulus13.png,Images/TMTstop-control_1_3redlinestimulus13.png,TMT_Control,C3,66,None,1,66,0,2,2,2,0,15,15,15,,,,,,,,,,,,,,,,,,,,,,,,,,,,,,,,,,,,,,,,,,,,,,,,,,,,,,,,,,,,,,,,,2,0,30.435494599980302,70.99327790003736,None,"['2', '3']",1,"[-0.017598100006580353, 0.06258929998148233]",70.99327790003736,None,,,,001,2022_Dec_20_1655,TMT_fmri,2021.2.3,59.88583364190807,
C3,52:78,17,['1'],1,Images/TMTstop-control_1_3linestimulus14.png,Images/TMTstop-control_1_3greenlinestimulus14.png,Images/TMTstop-control_1_3redlinestimulus14.png,TMT_Control,C3,67,None,1,67,0,2,2,2,0,16,16,16,,,,,,,,,,,,,,,,,,,,,,,,,,,,,,,,,,,,,,,,,,,,,,,,,,,,,,,,,,,,,,,,,1,1,30.570437200018205,71.14348970004357,None,['1'],1,[0.06945800001267344],71.14348970004357,None,,,,001,2022_Dec_20_1655,TMT_fmri,2021.2.3,59.88583364190807,
C3,52:78,18,['3'],3,Images/TMTstop-control_1_3linestimulus15.png,Images/TMTstop-control_1_3greenlinestimulus15.png,Images/TMTstop-control_1_3redlinestimulus15.png,TMT_Control,C3,68,None,1,68,0,2,2,2,0,17,17,17,,,,,,,,,,,,,,,,,,,,,,,,,,,,,,,,,,,,,,,,,,,,,,,,,,,,,,,,,,,,,,,,,2,0,30.719468399998732,71.27808710001409,None,"['2', '3']",1,"[-0.016040300019085407, 0.07645330001832917]",71.27808710001409,None,,,,001,2022_Dec_20_1655,TMT_fmri,2021.2.3,59.88583364190807,
C3,52:78,19,['2'],2,Images/TMTstop-control_1_3linestimulus16.png,Images/TMTstop-control_1_3greenlinestimulus16.png,Images/TMTstop-control_1_3redlinestimulus16.png,TMT_Control,C3,69,None,1,69,0,2,2,2,0,18,18,18,,,,,,,,,,,,,,,,,,,,,,,,,,,,,,,,,,,,,,,,,,,,,,,,,,,,,,,,,,,,,,,,,2,0,30.90340140002081,71.42835450003622,None,"['1', '2']",1,"[0.0836855000234209, 0.1311549000092782]",71.42835450003622,None,,,,001,2022_Dec_20_1655,TMT_fmri,2021.2.3,59.88583364190807,
C3,52:78,20,['1'],1,Images/TMTstop-control_1_3linestimulus17.png,Images/TMTstop-control_1_3greenlinestimulus17.png,Images/TMTstop-control_1_3redlinestimulus17.png,TMT_Control,C3,70,None,1,70,0,2,2,2,0,19,19,19,,,,,,,,,,,,,,,,,,,,,,,,,,,,,,,,,,,,,,,,,,,,,,,,,,,,,,,,,,,,,,,,,2,0,31.19838499999605,71.61615290003829,None,"['3', '1']",1,"[0.037447000038810074, 0.1947476000059396]",71.61615290003829,None,,,,001,2022_Dec_20_1655,TMT_fmri,2021.2.3,59.88583364190807,
C3,52:78,21,['3'],3,Images/TMTstop-control_1_3linestimulus18.png,Images/TMTstop-control_1_3greenlinestimulus18.png,Images/TMTstop-control_1_3redlinestimulus18.png,TMT_Control,C3,71,None,1,71,0,2,2,2,0,20,20,20,,,,,,,,,,,,,,,,,,,,,,,,,,,,,,,,,,,,,,,,,,,,,,,,,,,,,,,,,,,,,,,,,2,0,31.29862120002508,71.90650099999039,None,"['2', '3']",1,"[-0.04543759999796748, 0.0386222000233829]",71.90650099999039,None,,,,001,2022_Dec_20_1655,TMT_fmri,2021.2.3,59.88583364190807,
C3,52:78,22,['2'],2,Images/TMTstop-control_1_3linestimulus19.png,Images/TMTstop-control_1_3greenlinestimulus19.png,Images/TMTstop-control_1_3redlinestimulus19.png,TMT_Control,C3,72,None,1,72,0,2,2,2,0,21,21,21,,,,,,,,,,,,,,,,,,,,,,,,,,,,,,,,,,,,,,,,,,,,,,,,,,,,,,,,,,,,,,,,,2,0,31.515505700022914,72.00658750004368,None,"['1', '2']",1,"[0.10557580000022426, 0.15498490002937615]",72.00658750004368,None,,,,001,2022_Dec_20_1655,TMT_fmri,2021.2.3,59.88583364190807,
C3,52:78,23,['3'],3,Images/TMTstop-control_1_3linestimulus20.png,Images/TMTstop-control_1_3greenlinestimulus20.png,Images/TMTstop-control_1_3redlinestimulus20.png,TMT_Control,C3,73,None,1,73,0,2,2,2,0,22,22,22,,,,,,,,,,,,,,,,,,,,,,,,,,,,,,,,,,,,,,,,,,,,,,,,,,,,,,,,,,,,,,,,,1,1,31.59952990000602,72.22348380001495,None,['3'],1,[0.02701099996920675],72.22348380001495,None,,,,001,2022_Dec_20_1655,TMT_fmri,2021.2.3,59.88583364190807,
C3,52:78,24,['1'],1,Images/TMTstop-control_1_3linestimulus21.png,Images/TMTstop-control_1_3greenlinestimulus21.png,Images/TMTstop-control_1_3redlinestimulus21.png,TMT_Control,C3,74,None,1,74,0,2,2,2,0,23,23,23,,,,,,,,,,,,,,,,,,,,,,,,,,,,,,,,,,,,,,,,,,,,,,,,,,,,,,,,,,,,,,,,,1,1,31.732534200011287,72.30692540004384,None,['1'],1,[0.08097629999974743],72.30692540004384,None,,,,001,2022_Dec_20_1655,TMT_fmri,2021.2.3,59.88583364190807,
C3,52:78,25,['2'],2,Images/TMTstop-control_1_3linestimulus22.png,Images/TMTstop-control_1_3greenlinestimulus22.png,Images/TMTstop-control_1_3redlinestimulus22.png,TMT_Control,C3,75,None,1,75,0,2,2,2,0,24,24,24,,,,,,,,,,,,,,,,,,,,,,,,,,,,,,,,,,,,,,,,,,,,,,,,,,,,,,,,,,,,,,,,,1,1,31.798557900008745,72.44025360001251,None,['2'],1,[0.016849800013005733],72.44025360001251,None,,,,001,2022_Dec_20_1655,TMT_fmri,2021.2.3,59.88583364190807,
C3,52:78,None,None,None,Images/TMTstop-control_1_3linestimulus23.png,Images/TMTstop-control_1_3greenlinestimulus23.png,Images/TMTstop-control_1_3redlinestimulus23.png,TMT_Control,C3,Feedback_last,None,1,Feedback_last,0,2,2,2,0,25,25,25,,,,,,,,,,,,,,,,,,,,,,,,,,,,,,,,,,,,,,,,,,,,,,,,,,,,,,,,,,,,,,,,,0,0,,72.50713949999772,None,None,1,,72.50713949999772,None,,,,001,2022_Dec_20_1655,TMT_fmri,2021.2.3,59.88583364190807,
C4,78:104,1,['2'],2,Images/TMTstop-control_1_4.png,Images/TMTstop-control_1_4.png,Images/TMTstop-control_1_4.png,TMT_Control,C4,76,None,1,76,0,3,3,3,0,0,0,0,,,,,,,,,,,,,,,,,,,,,,,,,,,,,,,,,,,,,,,,,,,,,,,,,,,,,,,,,,,,,,,,,2,0,38.54011270002229,76.87494850001531,None,"['1', '2']",1,"[2.206997799978126, 2.300736900011543]",76.87494850001531,None,,,,001,2022_Dec_20_1655,TMT_fmri,2021.2.3,59.88583364190807,
C4,78:104,2,['1'],1,Images/TMTstop-control_1_4.png,Images/TMTstop-control_1_4firstgreen.png,Images/TMTstop-control_1_4firstred.png,TMT_Control,C4,77,None,1,77,0,3,3,3,0,1,1,1,,,,,,,,,,,,,,,,,,,,,,,,,,,,,,,,,,,,,,,,,,,,,,,,,,,,,,,,,,,,,,,,,2,0,38.74515750003047,79.24837490002392,None,"['3', '1']",1,"[-0.011273300042375922, 0.14818499999819323]",79.24837490002392,None,,,,001,2022_Dec_20_1655,TMT_fmri,2021.2.3,59.88583364190807,
C4,78:104,3,['3'],3,Images/TMTstop-control_1_4linestimulus0.png,Images/TMTstop-control_1_4greenlinestimulus0.png,Images/TMTstop-control_1_4redlinestimulus0.png,TMT_Control,C4,78,None,1,78,0,3,3,3,0,2,2,2,,,,,,,,,,,,,,,,,,,,,,,,,,,,,,,,,,,,,,,,,,,,,,,,,,,,,,,,,,,,,,,,,2,0,38.89514259999851,79.45294540002942,None,"['2', '3']",1,"[-0.02489379997132346, 0.05285380000714213]",79.45294540002942,None,,,,001,2022_Dec_20_1655,TMT_fmri,2021.2.3,59.88583364190807,
C4,78:104,4,['1'],1,Images/TMTstop-control_1_4linestimulus1.png,Images/TMTstop-control_1_4greenlinestimulus1.png,Images/TMTstop-control_1_4redlinestimulus1.png,TMT_Control,C4,79,None,1,79,0,3,3,3,0,3,3,3,,,,,,,,,,,,,,,,,,,,,,,,,,,,,,,,,,,,,,,,,,,,,,,,,,,,,,,,,,,,,,,,,1,1,38.998142900003586,79.60330560000148,None,['1'],1,[0.04162620002171025],79.60330560000148,None,,,,001,2022_Dec_20_1655,TMT_fmri,2021.2.3,59.88583364190807,
C4,78:104,5,['3'],3,Images/TMTstop-control_1_4linestimulus2.png,Images/TMTstop-control_1_4greenlinestimulus2.png,Images/TMTstop-control_1_4redlinestimulus2.png,TMT_Control,C4,80,None,1,80,0,3,3,3,0,4,4,4,,,,,,,,,,,,,,,,,,,,,,,,,,,,,,,,,,,,,,,,,,,,,,,,,,,,,,,,,,,,,,,,,2,0,39.10502010001801,79.71288500004448,None,"['2', '3']",1,"[-0.03756500000599772, 0.04994519997853786]",79.71288500004448,None,,,,001,2022_Dec_20_1655,TMT_fmri,2021.2.3,59.88583364190807,
C4,78:104,6,['1'],1,Images/TMTstop-control_1_4linestimulus3.png,Images/TMTstop-control_1_4greenlinestimulus3.png,Images/TMTstop-control_1_4redlinestimulus3.png,TMT_Control,C4,81,None,1,81,0,3,3,3,0,5,5,5,,,,,,,,,,,,,,,,,,,,,,,,,,,,,,,,,,,,,,,,,,,,,,,,,,,,,,,,,,,,,,,,,1,1,39.25415039999643,79.81322140002158,None,['1'],1,[0.08755279995966703],79.81322140002158,None,,,,001,2022_Dec_20_1655,TMT_fmri,2021.2.3,59.88583364190807,
C4,78:104,7,['3'],3,Images/TMTstop-control_1_4linestimulus4.png,Images/TMTstop-control_1_4greenlinestimulus4.png,Images/TMTstop-control_1_4redlinestimulus4.png,TMT_Control,C4,82,None,1,82,0,3,3,3,0,6,6,6,,,,,,,,,,,,,,,,,,,,,,,,,,,,,,,,,,,,,,,,,,,,,,,,,,,,,,,,,,,,,,,,,2,0,39.35516700003063,79.96337690000655,None,"['2', '3']",1,"[-0.016664299997501075, 0.04973589995643124]",79.96337690000655,None,,,,001,2022_Dec_20_1655,TMT_fmri,2021.2.3,59.88583364190807,
C4,78:104,8,['1'],1,Images/TMTstop-control_1_4linestimulus4.png,Images/TMTstop-control_1_4greenlinestimulus5.png,Images/TMTstop-control_1_4redlinestimulus5.png,TMT_Control,C4,83,None,1,83,0,3,3,3,0,7,7,7,,,,,,,,,,,,,,,,,,,,,,,,,,,,,,,,,,,,,,,,,,,,,,,,,,,,,,,,,,,,,,,,,1,1,39.51415810000617,80.06974310002988,None,['1'],1,[0.09210250002797693],80.06974310002988,None,,,,001,2022_Dec_20_1655,TMT_fmri,2021.2.3,59.88583364190807,
C4,78:104,9,['3'],3,Images/TMTstop-control_1_4linestimulus6.png,Images/TMTstop-control_1_4greenlinestimulus6.png,Images/TMTstop-control_1_4redlinestimulus6.png,TMT_Control,C4,84,None,1,84,0,3,3,3,0,8,8,8,,,,,,,,,,,,,,,,,,,,,,,,,,,,,,,,,,,,,,,,,,,,,,,,,,,,,,,,,,,,,,,,,2,0,39.64112049998948,80.22309230000246,None,"['2', '3']",1,"[-0.02187280001817271, 0.06214920000638813]",80.22309230000246,None,,,,001,2022_Dec_20_1655,TMT_fmri,2021.2.3,59.88583364190807,
C4,78:104,10,['2'],2,Images/TMTstop-control_1_4linestimulus7.png,Images/TMTstop-control_1_4greenlinestimulus7.png,Images/TMTstop-control_1_4redlinestimulus7.png,TMT_Control,C4,85,None,1,85,0,3,3,3,0,9,9,9,,,,,,,,,,,,,,,,,,,,,,,,,,,,,,,,,,,,,,,,,,,,,,,,,,,,,,,,,,,,,,,,,2,0,39.8531234000111,80.35747370001627,None,"['1', '2']",1,"[0.09766540001146495, 0.10947099997429177]",80.35747370001627,None,,,,001,2022_Dec_20_1655,TMT_fmri,2021.2.3,59.88583364190807,
C4,78:104,11,['1'],1,Images/TMTstop-control_1_4linestimulus8.png,Images/TMTstop-control_1_4greenlinestimulus8.png,Images/TMTstop-control_1_4redlinestimulus8.png,TMT_Control,C4,86,None,1,86,0,3,3,3,0,10,10,10,,,,,,,,,,,,,,,,,,,,,,,,,,,,,,,,,,,,,,,,,,,,,,,,,,,,,,,,,,,,,,,,,2,0,40.09915439999895,80.5682740000193,None,"['3', '1']",1,"[0.03652750002220273, 0.18369879998499528]",80.5682740000193,None,,,,001,2022_Dec_20_1655,TMT_fmri,2021.2.3,59.88583364190807,
C4,78:104,12,['3'],3,Images/TMTstop-control_1_4linestimulus9.png,Images/TMTstop-control_1_4greenlinestimulus9.png,Images/TMTstop-control_1_4redlinestimulus9.png,TMT_Control,C4,87,None,1,87,0,3,3,3,0,11,11,11,,,,,,,,,,,,,,,,,,,,,,,,,,,,,,,,,,,,,,,,,,,,,,,,,,,,,,,,,,,,,,,,,2,0,40.2503172000288,80.80780940002296,None,"['2', '3']",1,"[-0.007742100046016276, 0.0953190999571234]",80.80780940002296,None,,,,001,2022_Dec_20_1655,TMT_fmri,2021.2.3,59.88583364190807,
C4,78:104,13,['2'],2,Images/TMTstop-control_1_4linestimulus10.png,Images/TMTstop-control_1_4greenlinestimulus10.png,Images/TMTstop-control_1_4redlinestimulus10.png,TMT_Control,C4,88,None,1,88,0,3,3,3,0,12,12,12,,,,,,,,,,,,,,,,,,,,,,,,,,,,,,,,,,,,,,,,,,,,,,,,,,,,,,,,,,,,,,,,,2,0,40.45313979999628,80.96100190002471,None,"['1', '2']",1,"[0.086576999980025, 0.13225659995805472]",80.96100190002471,None,,,,001,2022_Dec_20_1655,TMT_fmri,2021.2.3,59.88583364190807,
C4,78:104,14,['3'],3,Images/TMTstop-control_1_4linestimulus11.png,Images/TMTstop-control_1_4greenlinestimulus11.png,Images/TMTstop-control_1_4redlinestimulus11.png,TMT_Control,C4,89,None,1,89,0,3,3,3,0,13,13,13,,,,,,,,,,,,,,,,,,,,,,,,,,,,,,,,,,,,,,,,,,,,,,,,,,,,,,,,,,,,,,,,,1,1,40.53615420003189,81.1612054000143,None,['3'],1,[0.012810499989427626],81.1612054000143,None,,,,001,2022_Dec_20_1655,TMT_fmri,2021.2.3,59.88583364190807,
C4,78:104,15,['2'],2,Images/TMTstop-control_1_4linestimulus12.png,Images/TMTstop-control_1_4greenlinestimulus12.png,Images/TMTstop-control_1_4redlinestimulus12.png,TMT_Control,C4,90,None,1,90,0,3,3,3,0,14,14,14,,,,,,,,,,,,,,,,,,,,,,,,,,,,,,,,,,,,,,,,,,,,,,,,,,,,,,,,,,,,,,,,,2,0,40.72002120001707,81.24464340001578,None,"['1', '2']",1,"[0.08264489995781332, 0.13486579997697845]",81.24464340001578,None,,,,001,2022_Dec_20_1655,TMT_fmri,2021.2.3,59.88583364190807,
C4,78:104,16,['1'],1,Images/TMTstop-control_1_4linestimulus13.png,Images/TMTstop-control_1_4greenlinestimulus13.png,Images/TMTstop-control_1_4redlinestimulus13.png,TMT_Control,C4,91,None,1,91,0,3,3,3,0,15,15,15,,,,,,,,,,,,,,,,,,,,,,,,,,,,,,,,,,,,,,,,,,,,,,,,,,,,,,,,,,,,,,,,,2,0,40.95316299999831,81.42810880002799,None,"['3', '1']",1,"[0.02193089999491349, 0.1739652999676764]",81.42810880002799,None,,,,001,2022_Dec_20_1655,TMT_fmri,2021.2.3,59.88583364190807,
C4,78:104,17,['3'],3,Images/TMTstop-control_1_4linestimulus14.png,Images/TMTstop-control_1_4greenlinestimulus14.png,Images/TMTstop-control_1_4redlinestimulus14.png,TMT_Control,C4,92,None,1,92,0,3,3,3,0,16,16,16,,,,,,,,,,,,,,,,,,,,,,,,,,,,,,,,,,,,,,,,,,,,,,,,,,,,,,,,,,,,,,,,,2,0,41.104138900002,81.6617570000235,None,"['2', '3']",1,"[-0.018681999994441867, 0.06732939998619258]",81.6617570000235,None,,,,001,2022_Dec_20_1655,TMT_fmri,2021.2.3,59.88583364190807,
C4,78:104,18,['1'],1,Images/TMTstop-control_1_4linestimulus15.png,Images/TMTstop-control_1_4greenlinestimulus15.png,Images/TMTstop-control_1_4redlinestimulus15.png,TMT_Control,C4,93,None,1,93,0,3,3,3,0,17,17,17,,,,,,,,,,,,,,,,,,,,,,,,,,,,,,,,,,,,,,,,,,,,,,,,,,,,,,,,,,,,,,,,,1,1,41.22005330002867,81.81172610004432,None,['1'],1,[0.06724929995834827],81.81172610004432,None,,,,001,2022_Dec_20_1655,TMT_fmri,2021.2.3,59.88583364190807,
C4,78:104,19,['2'],2,Images/TMTstop-control_1_4linestimulus16.png,Images/TMTstop-control_1_4greenlinestimulus16.png,Images/TMTstop-control_1_4redlinestimulus16.png,TMT_Control,C4,94,None,1,94,0,3,3,3,0,18,18,18,,,,,,,,,,,,,,,,,,,,,,,,,,,,,,,,,,,,,,,,,,,,,,,,,,,,,,,,,,,,,,,,,1,1,41.27414960000897,81.93232750002062,None,['2'],1,[-0.004302300047129393],81.93232750002062,None,,,,001,2022_Dec_20_1655,TMT_fmri,2021.2.3,59.88583364190807,
C4,78:104,20,['1'],1,Images/TMTstop-control_1_4linestimulus17.png,Images/TMTstop-control_1_4greenlinestimulus17.png,Images/TMTstop-control_1_4redlinestimulus17.png,TMT_Control,C4,95,None,1,95,0,3,3,3,0,19,19,19,,,,,,,,,,,,,,,,,,,,,,,,,,,,,,,,,,,,,,,,,,,,,,,,,,,,,,,,,,,,,,,,,2,0,41.53804399998626,81.9889691999997,None,"['3', '1']",1,"[0.01007779996143654, 0.17316080001182854]",81.9889691999997,None,,,,001,2022_Dec_20_1655,TMT_fmri,2021.2.3,59.88583364190807,
C4,78:104,21,['2'],2,Images/TMTstop-control_1_4linestimulus18.png,Images/TMTstop-control_1_4greenlinestimulus18.png,Images/TMTstop-control_1_4redlinestimulus18.png,TMT_Control,C4,96,None,1,96,0,3,3,3,0,20,20,20,,,,,,,,,,,,,,,,,,,,,,,,,,,,,,,,,,,,,,,,,,,,,,,,,,,,,,,,,,,,,,,,,1,1,41.59511619998375,82.253255299991,None,['2'],1,[-0.051687999977730215],82.253255299991,None,,,,001,2022_Dec_20_1655,TMT_fmri,2021.2.3,59.88583364190807,
C4,78:104,22,['1'],1,Images/TMTstop-control_1_4linestimulus19.png,Images/TMTstop-control_1_4greenlinestimulus19.png,Images/TMTstop-control_1_4redlinestimulus19.png,TMT_Control,C4,97,None,1,97,0,3,3,3,0,21,21,21,,,,,,,,,,,,,,,,,,,,,,,,,,,,,,,,,,,,,,,,,,,,,,,,,,,,,,,,,,,,,,,,,2,0,41.80214550002711,82.31060730002355,None,"['3', '1']",1,"[-0.011487200041301548, 0.13237759994808584]",82.31060730002355,None,,,,001,2022_Dec_20_1655,TMT_fmri,2021.2.3,59.88583364190807,
C4,78:104,23,['2'],2,Images/TMTstop-control_1_4linestimulus20.png,Images/TMTstop-control_1_4greenlinestimulus20.png,Images/TMTstop-control_1_4redlinestimulus20.png,TMT_Control,C4,98,None,1,98,0,3,3,3,0,22,22,22,,,,,,,,,,,,,,,,,,,,,,,,,,,,,,,,,,,,,,,,,,,,,,,,,,,,,,,,,,,,,,,,,1,1,41.85211680002976,82.51081370003521,None,['2'],1,[-0.03281920001609251],82.51081370003521,None,,,,001,2022_Dec_20_1655,TMT_fmri,2021.2.3,59.88583364190807,
C4,78:104,24,['1'],1,Images/TMTstop-control_1_4linestimulus21.png,Images/TMTstop-control_1_4greenlinestimulus21.png,Images/TMTstop-control_1_4redlinestimulus21.png,TMT_Control,C4,99,None,1,99,0,3,3,3,0,23,23,23,,,,,,,,,,,,,,,,,,,,,,,,,,,,,,,,,,,,,,,,,,,,,,,,,,,,,,,,,,,,,,,,,2,0,42.12911700003315,82.56098460004432,None,"['3', '1']",1,"[0.0645619000424631, 0.1991363000124693]",82.56098460004432,None,,,,001,2022_Dec_20_1655,TMT_fmri,2021.2.3,59.88583364190807,
C4,78:104,25,['2'],2,Images/TMTstop-control_1_4linestimulus22.png,Images/TMTstop-control_1_4greenlinestimulus22.png,Images/TMTstop-control_1_4redlinestimulus22.png,TMT_Control,C4,100,None,1,100,0,3,3,3,0,24,24,24,,,,,,,,,,,,,,,,,,,,,,,,,,,,,,,,,,,,,,,,,,,,,,,,,,,,,,,,,,,,,,,,,1,1,42.17911359999562,82.83752030000323,None,['2'],1,[-0.04679839999880642],82.83752030000323,None,,,,001,2022_Dec_20_1655,TMT_fmri,2021.2.3,59.88583364190807,
C4,78:104,None,None,None,Images/TMTstop-control_1_4linestimulus23.png,Images/TMTstop-control_1_4greenlinestimulus23.png,Images/TMTstop-control_1_4redlinestimulus23.png,TMT_Control,C4,Feedback_last,None,1,Feedback_last,0,3,3,3,0,25,25,25,,,,,,,,,,,,,,,,,,,,,,,,,,,,,,,,,,,,,,,,,,,,,,,,,,,,,,,,,,,,,,,,,0,0,,82.88775310001802,None,None,1,,82.88775310001802,None,,,,001,2022_Dec_20_1655,TMT_fmri,2021.2.3,59.88583364190807,
A1,416:442,1,['1'],1,Images/TMTstop-A_1_1.png,Images/TMTstop-A_1_1.png,Images/TMTstop-A_1_1.png,TMT_A,A1,1,2.0,2,401,,,,,,,,,0,0,0,0,0,0,0,0,,,,,,,,,,,,,,,,,,,,,,,,,,,,,,,,,,,,,,,,,,,,,,,,,,,,,,,,,1,1,58.22378749999916,98.03108450002037,None,['1'],1,[0.8506653000367805],98.03108450002037,None,,,,001,2022_Dec_20_1655,TMT_fmri,2021.2.3,59.88583364190807,
A1,416:442,2,['3'],3,Images/TMTstop-A_1_1.png,Images/TMTstop-A_1_1firstgreen.png,Images/TMTstop-A_1_1firstred.png,TMT_A,A1,2,None,2,402,,,,,,,,,0,0,0,0,0,1,1,1,,,,,,,,,,,,,,,,,,,,,,,,,,,,,,,,,,,,,,,,,,,,,,,,,,,,,,,,,3,0,58.6467144000344,98.9400583000388,None,"['1', '2', '3']",1,"[0.1806372000137344, 0.20906720001948997, 0.31605090002994984]",98.9400583000388,None,,,,001,2022_Dec_20_1655,TMT_fmri,2021.2.3,59.88583364190807,
A1,416:442,3,['1'],1,Images/TMTstop-A_1_1linestimulus0.png,Images/TMTstop-A_1_1greenlinestimulus0.png,Images/TMTstop-A_1_1redlinestimulus0.png,TMT_A,A1,3,None,2,403,,,,,,,,,0,0,0,0,0,2,2,2,,,,,,,,,,,,,,,,,,,,,,,,,,,,,,,,,,,,,,,,,,,,,,,,,,,,,,,,,1,1,58.79674979997799,99.3549631999922,None,['1'],1,[0.08481649996247143],99.3549631999922,None,,,,001,2022_Dec_20_1655,TMT_fmri,2021.2.3,59.88583364190807,
A1,416:442,4,['3'],3,Images/TMTstop-A_1_1linestimulus1.png,Images/TMTstop-A_1_1greenlinestimulus1.png,Images/TMTstop-A_1_1redlinestimulus1.png,TMT_A,A1,4,None,2,404,,,,,,,,,0,0,0,0,0,3,3,3,,,,,,,,,,,,,,,,,,,,,,,,,,,,,,,,,,,,,,,,,,,,,,,,,,,,,,,,,2,0,58.95277899998473,99.50507350004045,None,"['2', '3']",1,"[-0.008881799993105233, 0.08389130001887679]",99.50507350004045,None,,,,001,2022_Dec_20_1655,TMT_fmri,2021.2.3,59.88583364190807,
A1,416:442,5,['1'],1,Images/TMTstop-A_1_1linestimulus2.png,Images/TMTstop-A_1_1greenlinestimulus2.png,Images/TMTstop-A_1_1redlinestimulus2.png,TMT_A,A1,5,None,2,405,,,,,,,,,0,0,0,0,0,4,4,4,,,,,,,,,,,,,,,,,,,,,,,,,,,,,,,,,,,,,,,,,,,,,,,,,,,,,,,,,1,1,59.09371550002834,99.66863720002584,None,['1'],1,[0.07147749996511266],99.66863720002584,None,,,,001,2022_Dec_20_1655,TMT_fmri,2021.2.3,59.88583364190807,
A1,416:442,6,['3'],3,Images/TMTstop-A_1_1linestimulus3.png,Images/TMTstop-A_1_1greenlinestimulus3.png,Images/TMTstop-A_1_1redlinestimulus3.png,TMT_A,A1,6,None,2,406,,,,,,,,,0,0,0,0,0,5,5,5,,,,,,,,,,,,,,,,,,,,,,,,,,,,,,,,,,,,,,,,,,,,,,,,,,,,,,,,,2,0,59.254774200031534,99.80220289999852,None,"['2', '3']",1,"[-0.007737900014035404, 0.09001699998043478]",99.80220289999852,None,,,,001,2022_Dec_20_1655,TMT_fmri,2021.2.3,59.88583364190807,
A1,416:442,7,['1'],1,Images/TMTstop-A_1_1linestimulus4.png,Images/TMTstop-A_1_1greenlinestimulus4.png,Images/TMTstop-A_1_1redlinestimulus4.png,TMT_A,A1,7,None,2,407,,,,,,,,,0,0,0,0,0,6,6,6,,,,,,,,,,,,,,,,,,,,,,,,,,,,,,,,,,,,,,,,,,,,,,,,,,,,,,,,,1,1,59.40470610000193,99.96329570002854,None,['1'],1,[0.09172179998131469],99.96329570002854,None,,,,001,2022_Dec_20_1655,TMT_fmri,2021.2.3,59.88583364190807,
A1,416:442,8,['2'],2,Images/TMTstop-A_1_1linestimulus5.png,Images/TMTstop-A_1_1greenlinestimulus5.png,Images/TMTstop-A_1_1redlinestimulus5.png,TMT_A,A1,8,None,2,408,,,,,,,,,0,0,0,0,0,7,7,7,,,,,,,,,,,,,,,,,,,,,,,,,,,,,,,,,,,,,,,,,,,,,,,,,,,,,,,,,1,1,59.454803799977526,100.11333220003871,None,['2'],1,[-0.003946699958760291],100.11333220003871,None,,,,001,2022_Dec_20_1655,TMT_fmri,2021.2.3,59.88583364190807,
A1,416:442,9,['3'],3,Images/TMTstop-A_1_1linestimulus6.png,Images/TMTstop-A_1_1greenlinestimulus6.png,Images/TMTstop-A_1_1redlinestimulus6.png,TMT_A,A1,9,None,2,409,,,,,,,,,0,0,0,0,0,8,8,8,,,,,,,,,,,,,,,,,,,,,,,,,,,,,,,,,,,,,,,,,,,,,,,,,,,,,,,,,1,1,59.57175020000432,100.16357309999876,None,['3'],1,[0.05122080002911389],100.16357309999876,None,,,,001,2022_Dec_20_1655,TMT_fmri,2021.2.3,59.88583364190807,
A1,416:442,10,['1'],1,Images/TMTstop-A_1_1linestimulus7.png,Images/TMTstop-A_1_1greenlinestimulus7.png,Images/TMTstop-A_1_1redlinestimulus7.png,TMT_A,A1,10,None,2,410,,,,,,,,,0,0,0,0,0,9,9,9,,,,,,,,,,,,,,,,,,,,,,,,,,,,,,,,,,,,,,,,,,,,,,,,,,,,,,,,,1,1,59.73877709999215,100.28034520003712,None,['1'],1,[0.11287290003383532],100.28034520003712,None,,,,001,2022_Dec_20_1655,TMT_fmri,2021.2.3,59.88583364190807,
A1,416:442,11,['3'],3,Images/TMTstop-A_1_1linestimulus8.png,Images/TMTstop-A_1_1greenlinestimulus8.png,Images/TMTstop-A_1_1redlinestimulus8.png,TMT_A,A1,11,None,2,411,,,,,,,,,0,0,0,0,0,10,10,10,,,,,,,,,,,,,,,,,,,,,,,,,,,,,,,,,,,,,,,,,,,,,,,,,,,,,,,,,2,0,59.99374619999435,100.45500320004066,None,"['2', '3']",1,"[-0.03278229996794835, 0.17023049999261275]",100.45500320004066,None,,,,001,2022_Dec_20_1655,TMT_fmri,2021.2.3,59.88583364190807,
A1,416:442,12,['2'],2,Images/TMTstop-A_1_1linestimulus9.png,Images/TMTstop-A_1_1greenlinestimulus9.png,Images/TMTstop-A_1_1redlinestimulus9.png,TMT_A,A1,12,None,2,412,,,,,,,,,0,0,0,0,0,11,11,11,,,,,,,,,,,,,,,,,,,,,,,,,,,,,,,,,,,,,,,,,,,,,,,,,,,,,,,,,2,0,60.2266435000347,100.70152320002671,None,"['1', '2']",1,"[0.1301577999838628, 0.16653129999758676]",100.70152320002671,None,,,,001,2022_Dec_20_1655,TMT_fmri,2021.2.3,59.88583364190807,
A1,416:442,13,['1'],1,Images/TMTstop-A_1_1linestimulus10.png,Images/TMTstop-A_1_1greenlinestimulus10.png,Images/TMTstop-A_1_1redlinestimulus10.png,TMT_A,A1,13,None,2,413,,,,,,,,,0,0,0,0,0,12,12,12,,,,,,,,,,,,,,,,,,,,,,,,,,,,,,,,,,,,,,,,,,,,,,,,,,,,,,,,,2,0,60.53168850002112,100.93524590000743,None,"['3', '1']",1,"[0.09917920001316816, 0.23907650000182912]",100.93524590000743,None,,,,001,2022_Dec_20_1655,TMT_fmri,2021.2.3,59.88583364190807,
A1,416:442,14,['2'],2,Images/TMTstop-A_1_1linestimulus11.png,Images/TMTstop-A_1_1greenlinestimulus11.png,Images/TMTstop-A_1_1redlinestimulus11.png,TMT_A,A1,14,None,2,414,,,,,,,,,0,0,0,0,0,13,13,13,,,,,,,,,,,,,,,,,,,,,,,,,,,,,,,,,,,,,,,,,,,,,,,,,,,,,,,,,1,1,60.58878980000736,101.24710690003121,None,['2'],1,[-0.016335799999069422],101.24710690003121,None,,,,001,2022_Dec_20_1655,TMT_fmri,2021.2.3,59.88583364190807,
A1,416:442,15,['1'],1,Images/TMTstop-A_1_1linestimulus12.png,Images/TMTstop-A_1_1greenlinestimulus12.png,Images/TMTstop-A_1_1redlinestimulus12.png,TMT_A,A1,15,None,2,415,,,,,,,,,0,0,0,0,0,14,14,14,,,,,,,,,,,,,,,,,,,,,,,,,,,,,,,,,,,,,,,,,,,,,,,,,,,,,,,,,2,0,60.889749100024346,101.29755840002326,None,"['3', '1']",1,"[0.05134539998834953, 0.215405999973882]",101.29755840002326,None,,,,001,2022_Dec_20_1655,TMT_fmri,2021.2.3,59.88583364190807,
A1,416:442,16,['2'],2,Images/TMTstop-A_1_1linestimulus13.png,Images/TMTstop-A_1_1greenlinestimulus13.png,Images/TMTstop-A_1_1redlinestimulus13.png,TMT_A,A1,16,None,2,416,,,,,,,,,0,0,0,0,0,15,15,15,,,,,,,,,,,,,,,,,,,,,,,,,,,,,,,,,,,,,,,,,,,,,,,,,,,,,,,,,1,1,61.006639200029895,101.59795450000092,None,['2'],1,[0.05416419997345656],101.59795450000092,None,,,,001,2022_Dec_20_1655,TMT_fmri,2021.2.3,59.88583364190807,
A1,416:442,17,['1'],1,Images/TMTstop-A_1_1linestimulus14.png,Images/TMTstop-A_1_1greenlinestimulus14.png,Images/TMTstop-A_1_1redlinestimulus14.png,TMT_A,A1,17,None,2,417,,,,,,,,,0,0,0,0,0,16,16,16,,,,,,,,,,,,,,,,,,,,,,,,,,,,,,,,,,,,,,,,,,,,,,,,,,,,,,,,,2,0,61.440787600004114,101.71472560003167,None,"['3', '1']",1,"[0.02711050002835691, 0.37803610000992194]",101.71472560003167,None,,,,001,2022_Dec_20_1655,TMT_fmri,2021.2.3,59.88583364190807,
A1,416:442,18,['3'],3,Images/TMTstop-A_1_1linestimulus15.png,Images/TMTstop-A_1_1greenlinestimulus15.png,Images/TMTstop-A_1_1redlinestimulus15.png,TMT_A,A1,18,None,2,418,,,,,,,,,0,0,0,0,0,17,17,17,,,,,,,,,,,,,,,,,,,,,,,,,,,,,,,,,,,,,,,,,,,,,,,,,,,,,,,,,2,0,61.62776930001564,102.14804910001112,None,"['2', '3']",1,"[0.005895599955692887, 0.11519369995221496]",102.14804910001112,None,,,,001,2022_Dec_20_1655,TMT_fmri,2021.2.3,59.88583364190807,
A1,416:442,19,['2'],2,Images/TMTstop-A_1_1linestimulus16.png,Images/TMTstop-A_1_1greenlinestimulus16.png,Images/TMTstop-A_1_1redlinestimulus16.png,TMT_A,A1,19,None,2,419,,,,,,,,,0,0,0,0,0,18,18,18,,,,,,,,,,,,,,,,,,,,,,,,,,,,,,,,,,,,,,,,,,,,,,,,,,,,,,,,,2,0,61.84479340002872,102.33631089999108,None,"['1', '2']",1,"[0.11484049999853596, 0.16028060001553968]",102.33631089999108,None,,,,001,2022_Dec_20_1655,TMT_fmri,2021.2.3,59.88583364190807,
A1,416:442,20,['3'],3,Images/TMTstop-A_1_1linestimulus17.png,Images/TMTstop-A_1_1greenlinestimulus17.png,Images/TMTstop-A_1_1redlinestimulus17.png,TMT_A,A1,20,None,2,420,,,,,,,,,0,0,0,0,0,19,19,19,,,,,,,,,,,,,,,,,,,,,,,,,,,,,,,,,,,,,,,,,,,,,,,,,,,,,,,,,1,1,61.951980700017884,102.55720640002983,None,['3'],1,[0.0382493999786675],102.55720640002983,None,,,,001,2022_Dec_20_1655,TMT_fmri,2021.2.3,59.88583364190807,
A1,416:442,21,['1'],1,Images/TMTstop-A_1_1linestimulus18.png,Images/TMTstop-A_1_1greenlinestimulus18.png,Images/TMTstop-A_1_1redlinestimulus18.png,TMT_A,A1,21,None,2,421,,,,,,,,,0,0,0,0,0,20,20,20,,,,,,,,,,,,,,,,,,,,,,,,,,,,,,,,,,,,,,,,,,,,,,,,,,,,,,,,,1,1,62.109781500010286,102.66704259999096,None,['1'],1,[0.09710260003339499],102.66704259999096,None,,,,001,2022_Dec_20_1655,TMT_fmri,2021.2.3,59.88583364190807,
A1,416:442,22,['3'],3,Images/TMTstop-A_1_1linestimulus19.png,Images/TMTstop-A_1_1greenlinestimulus19.png,Images/TMTstop-A_1_1redlinestimulus19.png,TMT_A,A1,22,None,2,422,,,,,,,,,0,0,0,0,0,21,21,21,,,,,,,,,,,,,,,,,,,,,,,,,,,,,,,,,,,,,,,,,,,,,,,,,,,,,,,,,2,0,62.27278950001346,102.81788919999963,None,"['2', '3']",1,"[-0.016323400021065027, 0.09426629997324198]",102.81788919999963,None,,,,001,2022_Dec_20_1655,TMT_fmri,2021.2.3,59.88583364190807,
A1,416:442,23,['1'],1,Images/TMTstop-A_1_1linestimulus20.png,Images/TMTstop-A_1_1greenlinestimulus20.png,Images/TMTstop-A_1_1redlinestimulus20.png,TMT_A,A1,23,None,2,423,,,,,,,,,0,0,0,0,0,22,22,22,,,,,,,,,,,,,,,,,,,,,,,,,,,,,,,,,,,,,,,,,,,,,,,,,,,,,,,,,1,1,62.38878019998083,102.98072380002122,None,['1'],1,[0.0672836999874562],102.98072380002122,None,,,,001,2022_Dec_20_1655,TMT_fmri,2021.2.3,59.88583364190807,
A1,416:442,24,['3'],3,Images/TMTstop-A_1_1linestimulus21.png,Images/TMTstop-A_1_1greenlinestimulus21.png,Images/TMTstop-A_1_1redlinestimulus21.png,TMT_A,A1,24,None,2,424,,,,,,,,,0,0,0,0,0,23,23,23,,,,,,,,,,,,,,,,,,,,,,,,,,,,,,,,,,,,,,,,,,,,,,,,,,,,,,,,,2,0,62.579772700031754,103.09755679999944,None,"['2', '3']",1,"[0.009458100015763193, 0.09361350000835955]",103.09755679999944,None,,,,001,2022_Dec_20_1655,TMT_fmri,2021.2.3,59.88583364190807,
A1,416:442,25,['1'],1,Images/TMTstop-A_1_1linestimulus22.png,Images/TMTstop-A_1_1greenlinestimulus22.png,Images/TMTstop-A_1_1redlinestimulus22.png,TMT_A,A1,25,None,2,425,,,,,,,,,0,0,0,0,0,24,24,24,,,,,,,,,,,,,,,,,,,,,,,,,,,,,,,,,,,,,,,,,,,,,,,,,,,,,,,,,1,1,62.69722680002451,103.28791650000494,None,['1'],1,[0.05325080000329763],103.28791650000494,None,,,,001,2022_Dec_20_1655,TMT_fmri,2021.2.3,59.88583364190807,
A1,416:442,None,None,None,Images/TMTstop-A_1_1linestimulus23.png,Images/TMTstop-A_1_1greenlinestimulus23.png,Images/TMTstop-A_1_1redlinestimulus23.png,TMT_A,A1,Feedback_last,None,2,Feedback_last,,,,,,,,,0,0,0,0,0,25,25,25,,,,,,,,,,,,,,,,,,,,,,,,,,,,,,,,,,,,,,,,,,,,,,,,,,,,,,,,,2,0,,103.40479110000888,None,"['2', '3']",0,"[-0.009027099993545562, 0.0765063000144437]",103.40479110000888,None,,,,001,2022_Dec_20_1655,TMT_fmri,2021.2.3,59.88583364190807,
A2,442:468,1,['1'],1,Images/TMTstop-A_1_2.png,Images/TMTstop-A_1_2.png,Images/TMTstop-A_1_2.png,TMT_A,A2,26,None,2,426,,,,,,,,,0,1,1,1,0,0,0,0,,,,,,,,,,,,,,,,,,,,,,,,,,,,,,,,,,,,,,,,,,,,,,,,,,,,,,,,,1,1,67.5227757000248,107.78048539999872,None,['1'],1,[0.3927714999881573],107.78048539999872,None,,,,001,2022_Dec_20_1655,TMT_fmri,2021.2.3,59.88583364190807,
A2,442:468,2,['3'],3,Images/TMTstop-A_1_2.png,Images/TMTstop-A_1_2firstgreen.png,Images/TMTstop-A_1_2firstred.png,TMT_A,A2,27,None,2,427,,,,,,,,,0,1,1,1,0,1,1,1,,,,,,,,,,,,,,,,,,,,,,,,,,,,,,,,,,,,,,,,,,,,,,,,,,,,,,,,,2,0,67.70377020002343,108.22214640001766,None,"['2', '3']",1,"[0.04798559995833784, 0.11298129998613149]",108.22214640001766,None,,,,001,2022_Dec_20_1655,TMT_fmri,2021.2.3,59.88583364190807,
A2,442:468,3,['1'],1,Images/TMTstop-A_1_2linestimulus0.png,Images/TMTstop-A_1_2greenlinestimulus0.png,Images/TMTstop-A_1_2redlinestimulus0.png,TMT_A,A2,28,None,2,428,,,,,,,,,0,1,1,1,0,2,2,2,,,,,,,,,,,,,,,,,,,,,,,,,,,,,,,,,,,,,,,,,,,,,,,,,,,,,,,,,1,1,67.85389660001965,108.41208700003335,None,['1'],1,[0.09012400003848597],108.41208700003335,None,,,,001,2022_Dec_20_1655,TMT_fmri,2021.2.3,59.88583364190807,
A2,442:468,4,['2'],2,Images/TMTstop-A_1_2linestimulus1.png,Images/TMTstop-A_1_2greenlinestimulus1.png,Images/TMTstop-A_1_2redlinestimulus1.png,TMT_A,A2,29,None,2,429,,,,,,,,,0,1,1,1,0,3,3,3,,,,,,,,,,,,,,,,,,,,,,,,,,,,,,,,,,,,,,,,,,,,,,,,,,,,,,,,,1,1,67.90374909999082,108.56223060004413,None,['2'],1,[-0.016971000004559755],108.56223060004413,None,,,,001,2022_Dec_20_1655,TMT_fmri,2021.2.3,59.88583364190807,
A2,442:468,5,['1'],1,Images/TMTstop-A_1_2linestimulus2.png,Images/TMTstop-A_1_2greenlinestimulus2.png,Images/TMTstop-A_1_2redlinestimulus2.png,TMT_A,A2,30,None,2,430,,,,,,,,,0,1,1,1,0,4,4,4,,,,,,,,,,,,,,,,,,,,,,,,,,,,,,,,,,,,,,,,,,,,,,,,,,,,,,,,,2,0,68.14376830001129,108.61230450001312,None,"['3', '1']",1,"[0.025378799997270107, 0.18047179997665808]",108.61230450001312,None,,,,001,2022_Dec_20_1655,TMT_fmri,2021.2.3,59.88583364190807,
A2,442:468,6,['3'],3,Images/TMTstop-A_1_2linestimulus3.png,Images/TMTstop-A_1_2greenlinestimulus3.png,Images/TMTstop-A_1_2redlinestimulus3.png,TMT_A,A2,31,None,2,431,,,,,,,,,0,1,1,1,0,5,5,5,,,,,,,,,,,,,,,,,,,,,,,,,,,,,,,,,,,,,,,,,,,,,,,,,,,,,,,,,2,0,68.29374739999184,108.85164730000542,None,"['2', '3']",1,"[-0.014466499967966229, 0.07258079998428002]",108.85164730000542,None,,,,001,2022_Dec_20_1655,TMT_fmri,2021.2.3,59.88583364190807,
A2,442:468,7,['2'],2,Images/TMTstop-A_1_2linestimulus4.png,Images/TMTstop-A_1_2greenlinestimulus4.png,Images/TMTstop-A_1_2redlinestimulus4.png,TMT_A,A2,32,None,2,432,,,,,,,,,0,1,1,1,0,6,6,6,,,,,,,,,,,,,,,,,,,,,,,,,,,,,,,,,,,,,,,,,,,,,,,,,,,,,,,,,2,0,68.49401910003508,109.00178109999979,None,"['1', '2']",1,"[0.07204559998353943, 0.11744950001593679]",109.00178109999979,None,,,,001,2022_Dec_20_1655,TMT_fmri,2021.2.3,59.88583364190807,
A2,442:468,8,['1'],1,Images/TMTstop-A_1_2linestimulus5.png,Images/TMTstop-A_1_2greenlinestimulus5.png,Images/TMTstop-A_1_2redlinestimulus5.png,TMT_A,A2,33,None,2,433,,,,,,,,,0,1,1,1,0,7,7,7,,,,,,,,,,,,,,,,,,,,,,,,,,,,,,,,,,,,,,,,,,,,,,,,,,,,,,,,,2,0,68.90792660001898,109.20911570003955,None,"['3', '1']",1,"[0.07718010002281517, 0.3560521000181325]",109.20911570003955,None,,,,001,2022_Dec_20_1655,TMT_fmri,2021.2.3,59.88583364190807,
A2,442:468,9,['3'],3,Images/TMTstop-A_1_2linestimulus6.png,Images/TMTstop-A_1_2greenlinestimulus6.png,Images/TMTstop-A_1_2redlinestimulus6.png,TMT_A,A2,34,None,2,434,,,,,,,,,0,1,1,1,0,8,8,8,,,,,,,,,,,,,,,,,,,,,,,,,,,,,,,,,,,,,,,,,,,,,,,,,,,,,,,,,2,0,69.06990719999885,109.62143370002741,None,"['2', '3']",1,"[-0.01622220000717789, 0.06684210000094026]",109.62143370002741,None,,,,001,2022_Dec_20_1655,TMT_fmri,2021.2.3,59.88583364190807,
A2,442:468,10,['2'],2,Images/TMTstop-A_1_2linestimulus7.png,Images/TMTstop-A_1_2greenlinestimulus7.png,Images/TMTstop-A_1_2redlinestimulus7.png,TMT_A,A2,35,None,2,435,,,,,,,,,0,1,1,1,0,9,9,9,,,,,,,,,,,,,,,,,,,,,,,,,,,,,,,,,,,,,,,,,,,,,,,,,,,,,,,,,2,0,69.3448963999981,109.78146730002481,None,"['1', '2']",1,"[0.10666990000754595, 0.1687833999749273]",109.78146730002481,None,,,,001,2022_Dec_20_1655,TMT_fmri,2021.2.3,59.88583364190807,
A2,442:468,11,['1'],1,Images/TMTstop-A_1_2linestimulus8.png,Images/TMTstop-A_1_2greenlinestimulus8.png,Images/TMTstop-A_1_2redlinestimulus8.png,TMT_A,A2,36,None,2,436,,,,,,,,,0,1,1,1,0,10,10,10,,,,,,,,,,,,,,,,,,,,,,,,,,,,,,,,,,,,,,,,,,,,,,,,,,,,,,,,,2,0,69.60276739997789,110.06092730001546,None,"['3', '1']",1,"[-0.007708599965553731, 0.1761586000211537]",110.06092730001546,None,,,,001,2022_Dec_20_1655,TMT_fmri,2021.2.3,59.88583364190807,
A2,442:468,12,['2'],2,Images/TMTstop-A_1_2linestimulus9.png,Images/TMTstop-A_1_2greenlinestimulus9.png,Images/TMTstop-A_1_2redlinestimulus9.png,TMT_A,A2,37,None,2,437,,,,,,,,,0,1,1,1,0,11,11,11,,,,,,,,,,,,,,,,,,,,,,,,,,,,,,,,,,,,,,,,,,,,,,,,,,,,,,,,,1,1,69.65289959998336,110.31116460001795,None,['2'],1,[-0.03318910003872588],110.31116460001795,None,,,,001,2022_Dec_20_1655,TMT_fmri,2021.2.3,59.88583364190807,
A2,442:468,13,['1'],1,Images/TMTstop-A_1_2linestimulus10.png,Images/TMTstop-A_1_2greenlinestimulus10.png,Images/TMTstop-A_1_2redlinestimulus10.png,TMT_A,A2,38,None,2,438,,,,,,,,,0,1,1,1,0,12,12,12,,,,,,,,,,,,,,,,,,,,,,,,,,,,,,,,,,,,,,,,,,,,,,,,,,,,,,,,,2,0,69.8929207000183,110.36253220000071,None,"['3', '1']",1,"[0.020685100054834038, 0.18031900003552437]",110.36253220000071,None,,,,001,2022_Dec_20_1655,TMT_fmri,2021.2.3,59.88583364190807,
A2,442:468,14,['3'],3,Images/TMTstop-A_1_2linestimulus11.png,Images/TMTstop-A_1_2greenlinestimulus11.png,Images/TMTstop-A_1_2redlinestimulus11.png,TMT_A,A2,39,None,2,439,,,,,,,,,0,1,1,1,0,13,13,13,,,,,,,,,,,,,,,,,,,,,,,,,,,,,,,,,,,,,,,,,,,,,,,,,,,,,,,,,2,0,70.04681410000194,110.60157120000804,None,"['2', '3']",1,"[-0.010141099977772683, 0.0774041999829933]",110.60157120000804,None,,,,001,2022_Dec_20_1655,TMT_fmri,2021.2.3,59.88583364190807,
A2,442:468,15,['1'],1,Images/TMTstop-A_1_2linestimulus12.png,Images/TMTstop-A_1_2greenlinestimulus12.png,Images/TMTstop-A_1_2redlinestimulus12.png,TMT_A,A2,40,None,2,440,,,,,,,,,0,1,1,1,0,14,14,14,,,,,,,,,,,,,,,,,,,,,,,,,,,,,,,,,,,,,,,,,,,,,,,,,,,,,,,,,1,1,70.18192360003013,110.75649260001956,None,['1'],1,[0.06878849997883663],110.75649260001956,None,,,,001,2022_Dec_20_1655,TMT_fmri,2021.2.3,59.88583364190807,
A2,442:468,16,['3'],3,Images/TMTstop-A_1_2linestimulus13.png,Images/TMTstop-A_1_2greenlinestimulus13.png,Images/TMTstop-A_1_2redlinestimulus13.png,TMT_A,A2,41,None,2,441,,,,,,,,,0,1,1,1,0,15,15,15,,,,,,,,,,,,,,,,,,,,,,,,,,,,,,,,,,,,,,,,,,,,,,,,,,,,,,,,,2,0,70.3318962000194,110.8900896999985,None,"['2', '3']",1,"[-0.015754499996546656, 0.07318310003029183]",110.8900896999985,None,,,,001,2022_Dec_20_1655,TMT_fmri,2021.2.3,59.88583364190807,
A2,442:468,17,['1'],1,Images/TMTstop-A_1_2linestimulus14.png,Images/TMTstop-A_1_2greenlinestimulus14.png,Images/TMTstop-A_1_2redlinestimulus14.png,TMT_A,A2,42,None,2,442,,,,,,,,,0,1,1,1,0,16,16,16,,,,,,,,,,,,,,,,,,,,,,,,,,,,,,,,,,,,,,,,,,,,,,,,,,,,,,,,,1,1,70.48180619999766,111.04014050000114,None,['1'],1,[0.0940365000278689],111.04014050000114,None,,,,001,2022_Dec_20_1655,TMT_fmri,2021.2.3,59.88583364190807,
A2,442:468,18,['2'],2,Images/TMTstop-A_1_2linestimulus15.png,Images/TMTstop-A_1_2greenlinestimulus15.png,Images/TMTstop-A_1_2redlinestimulus15.png,TMT_A,A2,43,None,2,443,,,,,,,,,0,1,1,1,0,17,17,17,,,,,,,,,,,,,,,,,,,,,,,,,,,,,,,,,,,,,,,,,,,,,,,,,,,,,,,,,1,1,70.53188919997774,111.19036940002115,None,['2'],1,[-0.006116800010204315],111.19036940002115,None,,,,001,2022_Dec_20_1655,TMT_fmri,2021.2.3,59.88583364190807,
A2,442:468,19,['1'],1,Images/TMTstop-A_1_2linestimulus16.png,Images/TMTstop-A_1_2greenlinestimulus16.png,Images/TMTstop-A_1_2redlinestimulus16.png,TMT_A,A2,44,None,2,444,,,,,,,,,0,1,1,1,0,18,18,18,,,,,,,,,,,,,,,,,,,,,,,,,,,,,,,,,,,,,,,,,,,,,,,,,,,,,,,,,2,0,70.7960413999972,111.2403736000415,None,"['3', '1']",1,"[0.04690640000626445, 0.20679379999637604]",111.2403736000415,None,,,,001,2022_Dec_20_1655,TMT_fmri,2021.2.3,59.88583364190807,
A2,442:468,20,['2'],2,Images/TMTstop-A_1_2linestimulus17.png,Images/TMTstop-A_1_2greenlinestimulus17.png,Images/TMTstop-A_1_2redlinestimulus17.png,TMT_A,A2,45,None,2,445,,,,,,,,,0,1,1,1,0,19,19,19,,,,,,,,,,,,,,,,,,,,,,,,,,,,,,,,,,,,,,,,,,,,,,,,,,,,,,,,,1,1,70.8617615000112,111.5038941000239,None,['2'],1,[0.001794499985408038],111.5038941000239,None,,,,001,2022_Dec_20_1655,TMT_fmri,2021.2.3,59.88583364190807,
A2,442:468,21,['3'],3,Images/TMTstop-A_1_2linestimulus18.png,Images/TMTstop-A_1_2greenlinestimulus18.png,Images/TMTstop-A_1_2redlinestimulus18.png,TMT_A,A2,46,None,2,446,,,,,,,,,0,1,1,1,0,20,20,20,,,,,,,,,,,,,,,,,,,,,,,,,,,,,,,,,,,,,,,,,,,,,,,,,,,,,,,,,1,1,70.96893189998809,111.57765640004072,None,['3'],1,[0.0235370000009425],111.57765640004072,None,,,,001,2022_Dec_20_1655,TMT_fmri,2021.2.3,59.88583364190807,
A2,442:468,22,['2'],2,Images/TMTstop-A_1_2linestimulus19.png,Images/TMTstop-A_1_2greenlinestimulus19.png,Images/TMTstop-A_1_2redlinestimulus19.png,TMT_A,A2,47,None,2,447,,,,,,,,,0,1,1,1,0,21,21,21,,,,,,,,,,,,,,,,,,,,,,,,,,,,,,,,,,,,,,,,,,,,,,,,,,,,,,,,,2,0,71.18906439997954,111.6777587000397,None,"['1', '2']",1,"[0.11357270000735298, 0.15808439999818802]",111.6777587000397,None,,,,001,2022_Dec_20_1655,TMT_fmri,2021.2.3,59.88583364190807,
A2,442:468,23,['3'],3,Images/TMTstop-A_1_2linestimulus20.png,Images/TMTstop-A_1_2greenlinestimulus20.png,Images/TMTstop-A_1_2redlinestimulus20.png,TMT_A,A2,48,None,2,448,,,,,,,,,0,1,1,1,0,22,22,22,,,,,,,,,,,,,,,,,,,,,,,,,,,,,,,,,,,,,,,,,,,,,,,,,,,,,,,,,1,1,71.28906079998706,111.89756030001445,None,['3'],1,[0.04074369999580085],111.89756030001445,None,,,,001,2022_Dec_20_1655,TMT_fmri,2021.2.3,59.88583364190807,
A2,442:468,24,['2'],2,Images/TMTstop-A_1_2linestimulus21.png,Images/TMTstop-A_1_2greenlinestimulus21.png,Images/TMTstop-A_1_2redlinestimulus21.png,TMT_A,A2,49,None,2,449,,,,,,,,,0,1,1,1,0,23,23,23,,,,,,,,,,,,,,,,,,,,,,,,,,,,,,,,,,,,,,,,,,,,,,,,,,,,,,,,,2,0,71.93095910002012,111.99764489999507,None,"['1', '2']",1,"[0.5205145999789238, 0.5906666999799199]",111.99764489999507,None,,,,001,2022_Dec_20_1655,TMT_fmri,2021.2.3,59.88583364190807,
A2,442:468,25,['3'],3,Images/TMTstop-A_1_2linestimulus22.png,Images/TMTstop-A_1_2greenlinestimulus22.png,Images/TMTstop-A_1_2redlinestimulus22.png,TMT_A,A2,50,None,2,450,,,,,,,,,0,1,1,1,0,24,24,24,,,,,,,,,,,,,,,,,,,,,,,,,,,,,,,,,,,,,,,,,,,,,,,,,,,,,,,,,1,1,72.44803030003095,112.63954940001713,None,['3'],1,[0.45623329997761175],112.63954940001713,None,,,,001,2022_Dec_20_1655,TMT_fmri,2021.2.3,59.88583364190807,
A2,442:468,None,None,None,Images/TMTstop-A_1_2linestimulus23.png,Images/TMTstop-A_1_2greenlinestimulus23.png,Images/TMTstop-A_1_2redlinestimulus23.png,TMT_A,A2,Feedback_last,None,2,Feedback_last,,,,,,,,,0,1,1,1,0,25,25,25,,,,,,,,,,,,,,,,,,,,,,,,,,,,,,,,,,,,,,,,,,,,,,,,,,,,,,,,,0,0,,113.16439430002356,None,None,1,,113.16439430002356,None,,,,001,2022_Dec_20_1655,TMT_fmri,2021.2.3,59.88583364190807,
A3,468:494,1,['1'],1,Images/TMTstop-A_1_3.png,Images/TMTstop-A_1_3.png,Images/TMTstop-A_1_3.png,TMT_A,A3,51,None,2,451,,,,,,,,,0,2,2,2,0,0,0,0,,,,,,,,,,,,,,,,,,,,,,,,,,,,,,,,,,,,,,,,,,,,,,,,,,,,,,,,,1,1,77.1638919999823,117.48841799999354,None,['1'],1,[0.32252669997978956],117.48841799999354,None,,,,001,2022_Dec_20_1655,TMT_fmri,2021.2.3,59.88583364190807,
A3,468:494,2,['3'],3,Images/TMTstop-A_1_3.png,Images/TMTstop-A_1_3firstgreen.png,Images/TMTstop-A_1_3firstred.png,TMT_A,A3,52,None,2,452,,,,,,,,,0,2,2,2,0,1,1,1,,,,,,,,,,,,,,,,,,,,,,,,,,,,,,,,,,,,,,,,,,,,,,,,,,,,,,,,,2,0,77.32495570002357,117.87997980002547,None,"['2', '3']",1,"[-0.028637700015679002, 0.09032509999815375]",117.87997980002547,None,,,,001,2022_Dec_20_1655,TMT_fmri,2021.2.3,59.88583364190807,
A3,468:494,3,['2'],2,Images/TMTstop-A_1_3linestimulus0.png,Images/TMTstop-A_1_3greenlinestimulus0.png,Images/TMTstop-A_1_3redlinestimulus0.png,TMT_A,A3,53,None,2,453,,,,,,,,,0,2,2,2,0,2,2,2,,,,,,,,,,,,,,,,,,,,,,,,,,,,,,,,,,,,,,,,,,,,,,,,,,,,,,,,,2,0,77.53291190002346,118.04048200004036,None,"['1', '2']",1,"[0.09160680003697053, 0.1398744000471197]",118.04048200004036,None,,,,001,2022_Dec_20_1655,TMT_fmri,2021.2.3,59.88583364190807,
A3,468:494,4,['3'],3,Images/TMTstop-A_1_3linestimulus1.png,Images/TMTstop-A_1_3greenlinestimulus1.png,Images/TMTstop-A_1_3redlinestimulus1.png,TMT_A,A3,54,None,2,454,,,,,,,,,0,2,2,2,0,3,3,3,,,,,,,,,,,,,,,,,,,,,,,,,,,,,,,,,,,,,,,,,,,,,,,,,,,,,,,,,1,1,77.63291330001084,118.24087939999299,None,['3'],1,[0.04744880000362173],118.24087939999299,None,,,,001,2022_Dec_20_1655,TMT_fmri,2021.2.3,59.88583364190807,
A3,468:494,5,['2'],2,Images/TMTstop-A_1_3linestimulus2.png,Images/TMTstop-A_1_3greenlinestimulus2.png,Images/TMTstop-A_1_3redlinestimulus2.png,TMT_A,A3,55,None,2,455,,,,,,,,,0,2,2,2,0,4,4,4,,,,,,,,,,,,,,,,,,,,,,,,,,,,,,,,,,,,,,,,,,,,,,,,,,,,,,,,,2,0,77.81678470002953,118.34104200004367,None,"['1', '2']",1,"[0.08331220003310591, 0.12741290003759786]",118.34104200004367,None,,,,001,2022_Dec_20_1655,TMT_fmri,2021.2.3,59.88583364190807,
A3,468:494,6,['1'],1,Images/TMTstop-A_1_3linestimulus3.png,Images/TMTstop-A_1_3greenlinestimulus3.png,Images/TMTstop-A_1_3redlinestimulus3.png,TMT_A,A3,56,None,2,456,,,,,,,,,0,2,2,2,0,5,5,5,,,,,,,,,,,,,,,,,,,,,,,,,,,,,,,,,,,,,,,,,,,,,,,,,,,,,,,,,5,0,78.37786040001083,118.52436580002541,None,"['3', '1', '2', '3', '1']",1,"[0.03669239999726415, 0.1740707000135444, 0.18078799999784678, 0.3264513000031002, 0.478948500007391]",118.52436580002541,None,,,,001,2022_Dec_20_1655,TMT_fmri,2021.2.3,59.88583364190807,
A3,468:494,7,['3'],3,Images/TMTstop-A_1_3linestimulus4.png,Images/TMTstop-A_1_3greenlinestimulus4.png,Images/TMTstop-A_1_3redlinestimulus4.png,TMT_A,A3,57,None,2,457,,,,,,,,,0,2,2,2,0,6,6,6,,,,,,,,,,,,,,,,,,,,,,,,,,,,,,,,,,,,,,,,,,,,,,,,,,,,,,,,,2,0,78.52818199998,119.08595610002521,None,"['2', '3']",1,"[-0.02085640002042055, 0.07687559997430071]",119.08595610002521,None,,,,001,2022_Dec_20_1655,TMT_fmri,2021.2.3,59.88583364190807,
A3,468:494,8,['1'],1,Images/TMTstop-A_1_3linestimulus5.png,Images/TMTstop-A_1_3greenlinestimulus5.png,Images/TMTstop-A_1_3redlinestimulus5.png,TMT_A,A3,58,None,2,458,,,,,,,,,0,2,2,2,0,7,7,7,,,,,,,,,,,,,,,,,,,,,,,,,,,,,,,,,,,,,,,,,,,,,,,,,,,,,,,,,1,1,78.8792126000044,119.23680740001146,None,['1'],1,[0.2956162000191398],119.23680740001146,None,,,,001,2022_Dec_20_1655,TMT_fmri,2021.2.3,59.88583364190807,
A3,468:494,9,['3'],3,Images/TMTstop-A_1_3linestimulus6.png,Images/TMTstop-A_1_3greenlinestimulus6.png,Images/TMTstop-A_1_3redlinestimulus6.png,TMT_A,A3,59,None,2,459,,,,,,,,,0,2,2,2,0,8,8,8,,,,,,,,,,,,,,,,,,,,,,,,,,,,,,,,,,,,,,,,,,,,,,,,,,,,,,,,,2,0,79.04207000002498,119.5947562000365,None,"['2', '3']",1,"[-0.013405699981376529, 0.06952319998526946]",119.5947562000365,None,,,,001,2022_Dec_20_1655,TMT_fmri,2021.2.3,59.88583364190807,
A3,468:494,10,['2'],2,Images/TMTstop-A_1_3linestimulus7.png,Images/TMTstop-A_1_3greenlinestimulus7.png,Images/TMTstop-A_1_3redlinestimulus7.png,TMT_A,A3,60,None,2,460,,,,,,,,,0,2,2,2,0,9,9,9,,,,,,,,,,,,,,,,,,,,,,,,,,,,,,,,,,,,,,,,,,,,,,,,,,,,,,,,,2,0,79.24920620000921,119.75771570001962,None,"['1', '2']",1,"[0.09143959998618811, 0.1342776999808848]",119.75771570001962,None,,,,001,2022_Dec_20_1655,TMT_fmri,2021.2.3,59.88583364190807,
A3,468:494,11,['3'],3,Images/TMTstop-A_1_3linestimulus8.png,Images/TMTstop-A_1_3greenlinestimulus8.png,Images/TMTstop-A_1_3redlinestimulus8.png,TMT_A,A3,61,None,2,461,,,,,,,,,0,2,2,2,0,10,10,10,,,,,,,,,,,,,,,,,,,,,,,,,,,,,,,,,,,,,,,,,,,,,,,,,,,,,,,,,1,1,79.34921850002138,119.95797079999465,None,['3'],1,[0.037406900024507195],119.95797079999465,None,,,,001,2022_Dec_20_1655,TMT_fmri,2021.2.3,59.88583364190807,
A3,468:494,12,['2'],2,Images/TMTstop-A_1_3linestimulus9.png,Images/TMTstop-A_1_3greenlinestimulus9.png,Images/TMTstop-A_1_3redlinestimulus9.png,TMT_A,A3,62,None,2,462,,,,,,,,,0,2,2,2,0,11,11,11,,,,,,,,,,,,,,,,,,,,,,,,,,,,,,,,,,,,,,,,,,,,,,,,,,,,,,,,,2,0,79.64021819998743,120.05809780000709,None,"['1', '2']",1,"[0.1451729999971576, 0.22870049998164177]",120.05809780000709,None,,,,001,2022_Dec_20_1655,TMT_fmri,2021.2.3,59.88583364190807,
A3,468:494,13,['1'],1,Images/TMTstop-A_1_3linestimulus10.png,Images/TMTstop-A_1_3greenlinestimulus10.png,Images/TMTstop-A_1_3redlinestimulus10.png,TMT_A,A3,63,None,2,463,,,,,,,,,0,2,2,2,0,12,12,12,,,,,,,,,,,,,,,,,,,,,,,,,,,,,,,,,,,,,,,,,,,,,,,,,,,,,,,,,2,0,79.85519979998935,120.3490557000041,None,"['3', '1']",1,"[-0.0039530000067316, 0.15722299995832145]",120.3490557000041,None,,,,001,2022_Dec_20_1655,TMT_fmri,2021.2.3,59.88583364190807,
A3,468:494,14,['2'],2,Images/TMTstop-A_1_3linestimulus11.png,Images/TMTstop-A_1_3greenlinestimulus11.png,Images/TMTstop-A_1_3redlinestimulus11.png,TMT_A,A3,64,None,2,464,,,,,,,,,0,2,2,2,0,13,13,13,,,,,,,,,,,,,,,,,,,,,,,,,,,,,,,,,,,,,,,,,,,,,,,,,,,,,,,,,1,1,79.90418230002979,120.56281630002195,None,['2'],1,[-0.013502600020729005],120.56281630002195,None,,,,001,2022_Dec_20_1655,TMT_fmri,2021.2.3,59.88583364190807,
A3,468:494,15,['3'],3,Images/TMTstop-A_1_3linestimulus12.png,Images/TMTstop-A_1_3greenlinestimulus12.png,Images/TMTstop-A_1_3redlinestimulus12.png,TMT_A,A3,65,None,2,465,,,,,,,,,0,2,2,2,0,14,14,14,,,,,,,,,,,,,,,,,,,,,,,,,,,,,,,,,,,,,,,,,,,,,,,,,,,,,,,,,1,1,80.00625410000794,120.61415949999355,None,['3'],1,[0.03333310002926737],120.61415949999355,None,,,,001,2022_Dec_20_1655,TMT_fmri,2021.2.3,59.88583364190807,
A3,468:494,16,['2'],2,Images/TMTstop-A_1_3linestimulus13.png,Images/TMTstop-A_1_3greenlinestimulus13.png,Images/TMTstop-A_1_3redlinestimulus13.png,TMT_A,A3,66,None,2,466,,,,,,,,,0,2,2,2,0,15,15,15,,,,,,,,,,,,,,,,,,,,,,,,,,,,,,,,,,,,,,,,,,,,,,,,,,,,,,,,,2,0,80.20618390000891,120.71427190001123,None,"['1', '2']",1,"[0.08554800000274554, 0.13018929999088868]",120.71427190001123,None,,,,001,2022_Dec_20_1655,TMT_fmri,2021.2.3,59.88583364190807,
A3,468:494,17,['3'],3,Images/TMTstop-A_1_3linestimulus14.png,Images/TMTstop-A_1_3greenlinestimulus14.png,Images/TMTstop-A_1_3redlinestimulus14.png,TMT_A,A3,67,None,2,467,,,,,,,,,0,2,2,2,0,16,16,16,,,,,,,,,,,,,,,,,,,,,,,,,,,,,,,,,,,,,,,,,,,,,,,,,,,,,,,,,1,1,80.30621950002387,120.91445000004023,None,['3'],1,[0.050096800026949495],120.91445000004023,None,,,,001,2022_Dec_20_1655,TMT_fmri,2021.2.3,59.88583364190807,
A3,468:494,18,['2'],2,Images/TMTstop-A_1_3linestimulus15.png,Images/TMTstop-A_1_3greenlinestimulus15.png,Images/TMTstop-A_1_3redlinestimulus15.png,TMT_A,A3,68,None,2,468,,,,,,,,,0,2,2,2,0,17,17,17,,,,,,,,,,,,,,,,,,,,,,,,,,,,,,,,,,,,,,,,,,,,,,,,,,,,,,,,,6,0,81.05716189998202,121.0146201000316,None,"['2', '1', '2', '3', '1', '2']",1,"[0.07567099999869242, 0.08449549996294081, 0.3157904999679886, 0.31656979996478185, 0.6037372999708168, 0.688393399992492]",121.0146201000316,None,,,,001,2022_Dec_20_1655,TMT_fmri,2021.2.3,59.88583364190807,
A3,468:494,19,['3'],3,Images/TMTstop-A_1_3linestimulus16.png,Images/TMTstop-A_1_3greenlinestimulus16.png,Images/TMTstop-A_1_3redlinestimulus16.png,TMT_A,A3,69,None,2,469,,,,,,,,,0,2,2,2,0,18,18,18,,,,,,,,,,,,,,,,,,,,,,,,,,,,,,,,,,,,,,,,,,,,,,,,,,,,,,,,,1,1,81.10707470000489,121.76571820001118,None,['3'],1,[-0.0016539000207558274],121.76571820001118,None,,,,001,2022_Dec_20_1655,TMT_fmri,2021.2.3,59.88583364190807,
A3,468:494,20,['1'],1,Images/TMTstop-A_1_3linestimulus17.png,Images/TMTstop-A_1_3greenlinestimulus17.png,Images/TMTstop-A_1_3redlinestimulus17.png,TMT_A,A3,70,None,2,470,,,,,,,,,0,2,2,2,0,19,19,19,,,,,,,,,,,,,,,,,,,,,,,,,,,,,,,,,,,,,,,,,,,,,,,,,,,,,,,,,1,1,81.27616080001462,121.8175255000242,None,['1'],1,[0.10954430000856519],121.8175255000242,None,,,,001,2022_Dec_20_1655,TMT_fmri,2021.2.3,59.88583364190807,
A3,468:494,21,['2'],2,Images/TMTstop-A_1_3linestimulus18.png,Images/TMTstop-A_1_3greenlinestimulus18.png,Images/TMTstop-A_1_3redlinestimulus18.png,TMT_A,A3,71,None,2,471,,,,,,,,,0,2,2,2,0,20,20,20,,,,,,,,,,,,,,,,,,,,,,,,,,,,,,,,,,,,,,,,,,,,,,,,,,,,,,,,,1,1,81.32611510000424,121.9842278000433,None,['2'],1,[-0.012064500013366342],121.9842278000433,None,,,,001,2022_Dec_20_1655,TMT_fmri,2021.2.3,59.88583364190807,
A3,468:494,22,['3'],3,Images/TMTstop-A_1_3linestimulus19.png,Images/TMTstop-A_1_3greenlinestimulus19.png,Images/TMTstop-A_1_3redlinestimulus19.png,TMT_A,A3,72,None,2,472,,,,,,,,,0,2,2,2,0,21,21,21,,,,,,,,,,,,,,,,,,,,,,,,,,,,,,,,,,,,,,,,,,,,,,,,,,,,,,,,,1,1,81.41612559999339,122.03869820002001,None,['3'],1,[0.02314840001054108],122.03869820002001,None,,,,001,2022_Dec_20_1655,TMT_fmri,2021.2.3,59.88583364190807,
A3,468:494,23,['2'],2,Images/TMTstop-A_1_3linestimulus20.png,Images/TMTstop-A_1_3greenlinestimulus20.png,Images/TMTstop-A_1_3redlinestimulus20.png,TMT_A,A3,73,None,2,473,,,,,,,,,0,2,2,2,0,22,22,22,,,,,,,,,,,,,,,,,,,,,,,,,,,,,,,,,,,,,,,,,,,,,,,,,,,,,,,,,2,0,81.6210508000222,122.1290439000004,None,"['1', '2']",1,"[0.09320339997066185, 0.12783879996277392]",122.1290439000004,None,,,,001,2022_Dec_20_1655,TMT_fmri,2021.2.3,59.88583364190807,
A3,468:494,24,['1'],1,Images/TMTstop-A_1_3linestimulus21.png,Images/TMTstop-A_1_3greenlinestimulus21.png,Images/TMTstop-A_1_3redlinestimulus21.png,TMT_A,A3,74,None,2,474,,,,,,,,,0,2,2,2,0,23,23,23,,,,,,,,,,,,,,,,,,,,,,,,,,,,,,,,,,,,,,,,,,,,,,,,,,,,,,,,,2,0,81.88408160000108,122.32927710004151,None,"['3', '1']",1,"[0.03873979998752475, 0.1969558999990113]",122.32927710004151,None,,,,001,2022_Dec_20_1655,TMT_fmri,2021.2.3,59.88583364190807,
A3,468:494,25,['2'],2,Images/TMTstop-A_1_3linestimulus22.png,Images/TMTstop-A_1_3greenlinestimulus22.png,Images/TMTstop-A_1_3redlinestimulus22.png,TMT_A,A3,75,None,2,475,,,,,,,,,0,2,2,2,0,24,24,24,,,,,,,,,,,,,,,,,,,,,,,,,,,,,,,,,,,,,,,,,,,,,,,,,,,,,,,,,1,1,81.93405069998698,122.59272670000792,None,['2'],1,[-0.011480400047730654],122.59272670000792,None,,,,001,2022_Dec_20_1655,TMT_fmri,2021.2.3,59.88583364190807,
A3,468:494,None,None,None,Images/TMTstop-A_1_3linestimulus23.png,Images/TMTstop-A_1_3greenlinestimulus23.png,Images/TMTstop-A_1_3redlinestimulus23.png,TMT_A,A3,Feedback_last,None,2,Feedback_last,,,,,,,,,0,2,2,2,0,25,25,25,,,,,,,,,,,,,,,,,,,,,,,,,,,,,,,,,,,,,,,,,,,,,,,,,,,,,,,,,3,0,,122.64286560000619,None,"['3', '1', '2']",0,"[0.02398579998407513, 0.16930059995502234, 0.22112139995442703]",122.64286560000619,None,,,,001,2022_Dec_20_1655,TMT_fmri,2021.2.3,59.88583364190807,
A4,494:520,1,['2'],2,Images/TMTstop-A_1_4.png,Images/TMTstop-A_1_4.png,Images/TMTstop-A_1_4.png,TMT_A,A4,76,None,2.0,476,,,,,,,,,0,3,3,3,0,0,0,0,,,,,,,,,,,,,,,,,,,,,,,,,,,,,,,,,,,,,,,,,,,,,,,,,,,,,,,,,2,0,87.0630572999944,127.04616990004433,None,"['1', '2']",1,"[0.5649418999673799, 0.6531806999701075]",127.04616990004433,None,,,,001,2022_Dec_20_1655,TMT_fmri,2021.2.3,59.88583364190807,
A4,494:520,2,['3'],3,Images/TMTstop-A_1_4.png,Images/TMTstop-A_1_4firstgreen.png,Images/TMTstop-A_1_4firstred.png,TMT_A,A4,77,None,2.0,477,,,,,,,,,0,3,3,3,0,1,1,1,,,,,,,,,,,,,,,,,,,,,,,,,,,,,,,,,,,,,,,,,,,,,,,,,,,,,,,,,1,1,87.1200515999808,127.7784625000204,None,['3'],1,[-0.024275800038594753],127.7784625000204,None,,,,001,2022_Dec_20_1655,TMT_fmri,2021.2.3,59.88583364190807,
A4,494:520,3,['1'],1,Images/TMTstop-A_1_4linestimulus0.png,Images/TMTstop-A_1_4greenlinestimulus0.png,Images/TMTstop-A_1_4redlinestimulus0.png,TMT_A,A4,78,None,2.0,478,,,,,,,,,0,3,3,3,0,2,2,2,,,,,,,,,,,,,,,,,,,,,,,,,,,,,,,,,,,,,,,,,,,,,,,,,,,,,,,,,1,1,87.27607660001377,127.83435330004431,None,['1'],1,[0.09269969997694716],127.83435330004431,None,,,,001,2022_Dec_20_1655,TMT_fmri,2021.2.3,59.88583364190807,
A4,494:520,4,['3'],3,Images/TMTstop-A_1_4linestimulus1.png,Images/TMTstop-A_1_4greenlinestimulus1.png,Images/TMTstop-A_1_4redlinestimulus1.png,TMT_A,A4,79,None,2.0,479,,,,,,,,,0,3,3,3,0,3,3,3,,,,,,,,,,,,,,,,,,,,,,,,,,,,,,,,,,,,,,,,,,,,,,,,,,,,,,,,,2,0,87.41612579999492,127.98396430001594,None,"['2', '3']",1,"[-0.004381799953989685, 0.08215700002619997]",127.98396430001594,None,,,,001,2022_Dec_20_1655,TMT_fmri,2021.2.3,59.88583364190807,
A4,494:520,5,['2'],2,Images/TMTstop-A_1_4linestimulus2.png,Images/TMTstop-A_1_4greenlinestimulus2.png,Images/TMTstop-A_1_4redlinestimulus2.png,TMT_A,A4,80,None,2.0,480,,,,,,,,,0,3,3,3,0,4,4,4,,,,,,,,,,,,,,,,,,,,,,,,,,,,,,,,,,,,,,,,,,,,,,,,,,,,,,,,,2,0,87.60610069998074,128.13152190000983,None,"['1', '2']",1,"[0.08209709997754544, 0.1328539999667555]",128.13152190000983,None,,,,001,2022_Dec_20_1655,TMT_fmri,2021.2.3,59.88583364190807,
A4,494:520,6,['1'],1,Images/TMTstop-A_1_4linestimulus3.png,Images/TMTstop-A_1_4greenlinestimulus3.png,Images/TMTstop-A_1_4redlinestimulus3.png,TMT_A,A4,81,None,2.0,481,,,,,,,,,0,3,3,3,0,5,5,5,,,,,,,,,,,,,,,,,,,,,,,,,,,,,,,,,,,,,,,,,,,,,,,,,,,,,,,,,5,0,88.14130279998062,128.31504060002044,None,"['3', '1', '2', '3', '1']",1,"[0.026830999995581806, 0.18652109999675304, 0.22325699997600168, 0.31346699997084215, 0.4722596000065096]",128.31504060002044,None,,,,001,2022_Dec_20_1655,TMT_fmri,2021.2.3,59.88583364190807,
A4,494:520,7,['2'],2,Images/TMTstop-A_1_4linestimulus4.png,Images/TMTstop-A_1_4greenlinestimulus4.png,Images/TMTstop-A_1_4redlinestimulus4.png,TMT_A,A4,82,None,2.0,482,,,,,,,,,0,3,3,3,0,6,6,6,,,,,,,,,,,,,,,,,,,,,,,,,,,,,,,,,,,,,,,,,,,,,,,,,,,,,,,,,1,1,88.19120260002092,128.8489721000078,None,['2'],1,[-0.010252600011881441],128.8489721000078,None,,,,001,2022_Dec_20_1655,TMT_fmri,2021.2.3,59.88583364190807,
A4,494:520,8,['1'],1,Images/TMTstop-A_1_4linestimulus5.png,Images/TMTstop-A_1_4greenlinestimulus5.png,Images/TMTstop-A_1_4redlinestimulus5.png,TMT_A,A4,83,None,2.0,483,,,,,,,,,0,3,3,3,0,7,7,7,,,,,,,,,,,,,,,,,,,,,,,,,,,,,,,,,,,,,,,,,,,,,,,,,,,,,,,,,2,0,88.43122159998165,128.90152549999766,None,"['3', '1']",1,"[0.01382930000545457, 0.18182930001057684]",128.90152549999766,None,,,,001,2022_Dec_20_1655,TMT_fmri,2021.2.3,59.88583364190807,
A4,494:520,9,['3'],3,Images/TMTstop-A_1_4linestimulus6.png,Images/TMTstop-A_1_4greenlinestimulus6.png,Images/TMTstop-A_1_4redlinestimulus6.png,TMT_A,A4,84,None,2.0,484,,,,,,,,,0,3,3,3,0,8,8,8,,,,,,,,,,,,,,,,,,,,,,,,,,,,,,,,,,,,,,,,,,,,,,,,,,,,,,,,,2,0,88.58418350003194,129.13938270002836,None,"['2', '3']",1,"[-0.005481699947267771, 0.0743030000012368]",129.13938270002836,None,,,,001,2022_Dec_20_1655,TMT_fmri,2021.2.3,59.88583364190807,
A4,494:520,10,['2'],2,Images/TMTstop-A_1_4linestimulus7.png,Images/TMTstop-A_1_4greenlinestimulus7.png,Images/TMTstop-A_1_4redlinestimulus7.png,TMT_A,A4,85,None,2.0,485,,,,,,,,,0,3,3,3,0,9,9,9,,,,,,,,,,,,,,,,,,,,,,,,,,,,,,,,,,,,,,,,,,,,,,,,,,,,,,,,,2,0,88.79506279999623,129.3376578000025,None,"['1', '2']",1,"[0.03721629997016862, 0.09653399995295331]",129.3376578000025,None,,,,001,2022_Dec_20_1655,TMT_fmri,2021.2.3,59.88583364190807,
A4,494:520,11,['3'],3,Images/TMTstop-A_1_4linestimulus8.png,Images/TMTstop-A_1_4greenlinestimulus8.png,Images/TMTstop-A_1_4redlinestimulus8.png,TMT_A,A4,86,None,2.0,486,,,,,,,,,0,3,3,3,0,10,10,10,,,,,,,,,,,,,,,,,,,,,,,,,,,,,,,,,,,,,,,,,,,,,,,,,,,,,,,,,1,1,88.86223820003215,129.5039332000306,None,['3'],1,[0.014400299987755716],129.5039332000306,None,,,,001,2022_Dec_20_1655,TMT_fmri,2021.2.3,59.88583364190807,
A4,494:520,12,['1'],1,Images/TMTstop-A_1_4linestimulus9.png,Images/TMTstop-A_1_4greenlinestimulus9.png,Images/TMTstop-A_1_4redlinestimulus9.png,TMT_A,A4,87,None,2.0,487,,,,,,,,,0,3,3,3,0,11,11,11,,,,,,,,,,,,,,,,,,,,,,,,,,,,,,,,,,,,,,,,,,,,,,,,,,,,,,,,,1,1,89.03814399999101,129.57622940000147,None,['1'],1,[0.11912649997975677],129.57622940000147,None,,,,001,2022_Dec_20_1655,TMT_fmri,2021.2.3,59.88583364190807,
A4,494:520,13,['3'],3,Images/TMTstop-A_1_4linestimulus10.png,Images/TMTstop-A_1_4greenlinestimulus10.png,Images/TMTstop-A_1_4redlinestimulus10.png,TMT_A,A4,88,None,2.0,488,,,,,,,,,0,3,3,3,0,12,12,12,,,,,,,,,,,,,,,,,,,,,,,,,,,,,,,,,,,,,,,,,,,,,,,,,,,,,,,,,4,0,89.46722370001953,129.7469690000289,None,"['2', '2', '1', '3']",1,"[0.013453999999910593, 0.33676049998030066, 0.3376367000164464, 0.351967099995818]",129.7469690000289,None,,,,001,2022_Dec_20_1655,TMT_fmri,2021.2.3,59.88583364190807,
A4,494:520,14,['1'],1,Images/TMTstop-A_1_4linestimulus11.png,Images/TMTstop-A_1_4greenlinestimulus11.png,Images/TMTstop-A_1_4redlinestimulus11.png,TMT_A,A4,89,None,2.0,489,,,,,,,,,0,3,3,3,0,13,13,13,,,,,,,,,,,,,,,,,,,,,,,,,,,,,,,,,,,,,,,,,,,,,,,,,,,,,,,,,1,1,89.72021649999078,130.17553350003436,None,['1'],1,[0.19486789999064058],130.17553350003436,None,,,,001,2022_Dec_20_1655,TMT_fmri,2021.2.3,59.88583364190807,
A4,494:520,15,['2'],2,Images/TMTstop-A_1_4linestimulus12.png,Images/TMTstop-A_1_4greenlinestimulus12.png,Images/TMTstop-A_1_4redlinestimulus12.png,TMT_A,A4,90,None,2.0,490,,,,,,,,,0,3,3,3,0,14,14,14,,,,,,,,,,,,,,,,,,,,,,,,,,,,,,,,,,,,,,,,,,,,,,,,,,,,,,,,,1,1,89.7792062999797,130.43713810003828,None,['2'],1,[-0.017948599997907877],130.43713810003828,None,,,,001,2022_Dec_20_1655,TMT_fmri,2021.2.3,59.88583364190807,
A4,494:520,16,['1'],1,Images/TMTstop-A_1_4linestimulus13.png,Images/TMTstop-A_1_4greenlinestimulus13.png,Images/TMTstop-A_1_4redlinestimulus13.png,TMT_A,A4,91,None,2.0,491,,,,,,,,,0,3,3,3,0,15,15,15,,,,,,,,,,,,,,,,,,,,,,,,,,,,,,,,,,,,,,,,,,,,,,,,,,,,,,,,,2,0,90.10320210002828,130.48718160000863,None,"['3', '1']",1,"[0.019243900023866445, 0.26300629996694624]",130.48718160000863,None,,,,001,2022_Dec_20_1655,TMT_fmri,2021.2.3,59.88583364190807,
A4,494:520,17,['3'],3,Images/TMTstop-A_1_4linestimulus14.png,Images/TMTstop-A_1_4greenlinestimulus14.png,Images/TMTstop-A_1_4redlinestimulus14.png,TMT_A,A4,92,None,2.0,492,,,,,,,,,0,3,3,3,0,16,16,16,,,,,,,,,,,,,,,,,,,,,,,,,,,,,,,,,,,,,,,,,,,,,,,,,,,,,,,,,2,0,90.30309990001842,130.8111197000253,None,"['2', '3']",1,"[-0.023743500001728535, 0.11938479996751994]",130.8111197000253,None,,,,001,2022_Dec_20_1655,TMT_fmri,2021.2.3,59.88583364190807,
A4,494:520,18,['2'],2,Images/TMTstop-A_1_4linestimulus15.png,Images/TMTstop-A_1_4greenlinestimulus15.png,Images/TMTstop-A_1_4redlinestimulus15.png,TMT_A,A4,93,None,2.0,493,,,,,,,,,0,3,3,3,0,17,17,17,,,,,,,,,,,,,,,,,,,,,,,,,,,,,,,,,,,,,,,,,,,,,,,,,,,,,,,,,2,0,90.52321220003068,131.01138959999662,None,"['1', '2']",1,"[0.11450610001338646, 0.15685979998670518]",131.01138959999662,None,,,,001,2022_Dec_20_1655,TMT_fmri,2021.2.3,59.88583364190807,
A4,494:520,19,['3'],3,Images/TMTstop-A_1_4linestimulus16.png,Images/TMTstop-A_1_4greenlinestimulus16.png,Images/TMTstop-A_1_4redlinestimulus16.png,TMT_A,A4,94,None,2.0,494,,,,,,,,,0,3,3,3,0,18,18,18,,,,,,,,,,,,,,,,,,,,,,,,,,,,,,,,,,,,,,,,,,,,,,,,,,,,,,,,,1,1,90.665204000019,131.23664670001017,None,['3'],1,[0.0637290999875404],131.23664670001017,None,,,,001,2022_Dec_20_1655,TMT_fmri,2021.2.3,59.88583364190807,
A4,494:520,20,['2'],2,Images/TMTstop-A_1_4linestimulus17.png,Images/TMTstop-A_1_4greenlinestimulus17.png,Images/TMTstop-A_1_4redlinestimulus17.png,TMT_A,A4,95,None,2.0,495,,,,,,,,,0,3,3,3,0,19,19,19,,,,,,,,,,,,,,,,,,,,,,,,,,,,,,,,,,,,,,,,,,,,,,,,,,,,,,,,,2,0,90.90021980000893,131.37351900001522,None,"['1', '2']",1,"[0.12036940001416951, 0.1802033999701962]",131.37351900001522,None,,,,001,2022_Dec_20_1655,TMT_fmri,2021.2.3,59.88583364190807,
A4,494:520,21,['1'],1,Images/TMTstop-A_1_4linestimulus18.png,Images/TMTstop-A_1_4greenlinestimulus18.png,Images/TMTstop-A_1_4redlinestimulus18.png,TMT_A,A4,96,None,2.0,496,,,,,,,,,0,3,3,3,0,20,20,20,,,,,,,,,,,,,,,,,,,,,,,,,,,,,,,,,,,,,,,,,,,,,,,,,,,,,,,,,2,0,92.1162341000163,131.60888830001932,None,"['2', '1']",1,"[0.6474778999690898, 1.1645063000032678]",131.60888830001932,None,,,,001,2022_Dec_20_1655,TMT_fmri,2021.2.3,59.88583364190807,
A4,494:520,22,['3'],3,Images/TMTstop-A_1_4linestimulus19.png,Images/TMTstop-A_1_4greenlinestimulus19.png,Images/TMTstop-A_1_4redlinestimulus19.png,TMT_A,A4,97,None,2.0,497,,,,,,,,,0,3,3,3,0,21,21,21,,,,,,,,,,,,,,,,,,,,,,,,,,,,,,,,,,,,,,,,,,,,,,,,,,,,,,,,,1,1,93.0171827999875,132.82488100003684,None,['3'],1,[0.8367999999900348],132.82488100003684,None,,,,001,2022_Dec_20_1655,TMT_fmri,2021.2.3,59.88583364190807,
A4,494:520,23,['1'],1,Images/TMTstop-A_1_4linestimulus20.png,Images/TMTstop-A_1_4greenlinestimulus20.png,Images/TMTstop-A_1_4redlinestimulus20.png,TMT_A,A4,98,None,2.0,498,,,,,,,,,0,3,3,3,0,22,22,22,,,,,,,,,,,,,,,,,,,,,,,,,,,,,,,,,,,,,,,,,,,,,,,,,,,,,,,,,1,1,93.37530670000706,133.71634210000047,None,['1'],1,[0.30605189997004345],133.71634210000047,None,,,,001,2022_Dec_20_1655,TMT_fmri,2021.2.3,59.88583364190807,
A4,494:520,24,['2'],2,Images/TMTstop-A_1_4linestimulus21.png,Images/TMTstop-A_1_4greenlinestimulus21.png,Images/TMTstop-A_1_4redlinestimulus21.png,TMT_A,A4,99,None,2.0,499,,,,,,,,,0,3,3,3,0,23,23,23,,,,,,,,,,,,,,,,,,,,,,,,,,,,,,,,,,,,,,,,,,,,,,,,,,,,,,,,,1,1,93.72110010002507,134.0916127000237,None,['2'],1,[0.28697890002513304],134.0916127000237,None,,,,001,2022_Dec_20_1655,TMT_fmri,2021.2.3,59.88583364190807,
A4,494:520,25,['3'],3,Images/TMTstop-A_1_4linestimulus22.png,Images/TMTstop-A_1_4greenlinestimulus22.png,Images/TMTstop-A_1_4redlinestimulus22.png,TMT_A,A4,100,None,2.0,500,,,,,,,,,0,3,3,3,0,24,24,24,,,,,,,,,,,,,,,,,,,,,,,,,,,,,,,,,,,,,,,,,,,,,,,,,,,,,,,,,1,1,94.04522840003483,134.43692880001618,None,['3'],1,[0.26169109996408224],134.43692880001618,None,,,,001,2022_Dec_20_1655,TMT_fmri,2021.2.3,59.88583364190807,
A4,494:520,None,None,None,Images/TMTstop-A_1_4linestimulus23.png,Images/TMTstop-A_1_4greenlinestimulus23.png,Images/TMTstop-A_1_4redlinestimulus23.png,TMT_A,A4,Feedback_last,None,2.0,Feedback_last,,,,,,,,,0,3,3,3,0,25,25,25,,,,,,,,,,,,,,,,,,,,,,,,,,,,,,,,,,,,,,,,,,,,,,,,,,,,,,,,,0,0,,134.7615943000419,None,None,1,,134.7615943000419,None,,,,001,2022_Dec_20_1655,TMT_fmri,2021.2.3,59.88583364190807,
C5,104:130,1,['3'],3,Images/TMTstop-control_1_5.png,Images/TMTstop-control_1_5.png,Images/TMTstop-control_1_5.png,TMT_Control,C5,101,3.0,3.0,101,,,,,,,,,,,,,,,,,0,0,0,0,0,0,0,0,,,,,,,,,,,,,,,,,,,,,,,,,,,,,,,,,,,,,,,,,,,,,,,,,3,0,153.44521199999144,193.01583570003277,None,"['1', '2', '3']",1,"[0.8532838000101037, 0.9649756000144407, 1.0764248999767005]",193.01583570003277,None,,,,001,2022_Dec_20_1655,TMT_fmri,2021.2.3,59.88583364190807,
C5,104:130,2,['2'],2,Images/TMTstop-control_1_5.png,Images/TMTstop-control_1_5firstgreen.png,Images/TMTstop-control_1_5firstred.png,TMT_Control,C5,102,None,3.0,102,,,,,,,,,,,,,,,,,0,0,0,0,0,1,1,1,,,,,,,,,,,,,,,,,,,,,,,,,,,,,,,,,,,,,,,,,,,,,,,,,2,0,153.63318439997965,194.15421350003453,None,"['1', '2']",1,"[0.08548229996813461, 0.11081559996819124]",194.15421350003453,None,,,,001,2022_Dec_20_1655,TMT_fmri,2021.2.3,59.88583364190807,
C5,104:130,3,['1'],1,Images/TMTstop-control_1_5linestimulus0.png,Images/TMTstop-control_1_5greenlinestimulus0.png,Images/TMTstop-control_1_5redlinestimulus0.png,TMT_Control,C5,103,None,3.0,103,,,,,,,,,,,,,,,,,0,0,0,0,0,2,2,2,,,,,,,,,,,,,,,,,,,,,,,,,,,,,,,,,,,,,,,,,,,,,,,,,2,0,153.89102280000225,194.34892200003378,None,"['3', '1']",1,"[0.021870600001420826, 0.16743449994828552]",194.34892200003378,None,,,,001,2022_Dec_20_1655,TMT_fmri,2021.2.3,59.88583364190807,
C5,104:130,4,['3'],3,Images/TMTstop-control_1_5linestimulus1.png,Images/TMTstop-control_1_5greenlinestimulus1.png,Images/TMTstop-control_1_5redlinestimulus1.png,TMT_Control,C5,104,None,3.0,104,,,,,,,,,,,,,,,,,0,0,0,0,0,3,3,3,,,,,,,,,,,,,,,,,,,,,,,,,,,,,,,,,,,,,,,,,,,,,,,,,2,0,154.04115340003045,194.5986031999928,None,"['2', '3']",1,"[-0.04306269995868206, 0.06990440003573895]",194.5986031999928,None,,,,001,2022_Dec_20_1655,TMT_fmri,2021.2.3,59.88583364190807,
C5,104:130,5,['1'],1,Images/TMTstop-control_1_5linestimulus2.png,Images/TMTstop-control_1_5greenlinestimulus2.png,Images/TMTstop-control_1_5redlinestimulus2.png,TMT_Control,C5,105,None,3.0,105,,,,,,,,,,,,,,,,,0,0,0,0,0,4,4,4,,,,,,,,,,,,,,,,,,,,,,,,,,,,,,,,,,,,,,,,,,,,,,,,,1,1,154.17417970002862,194.74921290000202,None,['1'],1,[0.07858199998736382],194.74921290000202,None,,,,001,2022_Dec_20_1655,TMT_fmri,2021.2.3,59.88583364190807,
C5,104:130,6,['2'],2,Images/TMTstop-control_1_5linestimulus3.png,Images/TMTstop-control_1_5greenlinestimulus3.png,Images/TMTstop-control_1_5redlinestimulus3.png,TMT_Control,C5,106,None,3.0,106,,,,,,,,,,,,,,,,,0,0,0,0,0,5,5,5,,,,,,,,,,,,,,,,,,,,,,,,,,,,,,,,,,,,,,,,,,,,,,,,,1,1,154.2240213000332,194.88263960002223,None,['2'],1,[-0.03183990000979975],194.88263960002223,None,,,,001,2022_Dec_20_1655,TMT_fmri,2021.2.3,59.88583364190807,
C5,104:130,7,['3'],3,Images/TMTstop-control_1_5linestimulus4.png,Images/TMTstop-control_1_5greenlinestimulus4.png,Images/TMTstop-control_1_5redlinestimulus4.png,TMT_Control,C5,107,None,3.0,107,,,,,,,,,,,,,,,,,0,0,0,0,0,6,6,6,,,,,,,,,,,,,,,,,,,,,,,,,,,,,,,,,,,,,,,,,,,,,,,,,1,1,154.31520050001564,194.9372661000234,None,['3'],1,[0.036182899959385395],194.9372661000234,None,,,,001,2022_Dec_20_1655,TMT_fmri,2021.2.3,59.88583364190807,
C5,104:130,8,['2'],2,Images/TMTstop-control_1_5linestimulus4.png,Images/TMTstop-control_1_5greenlinestimulus5.png,Images/TMTstop-control_1_5redlinestimulus5.png,TMT_Control,C5,108,None,3.0,108,,,,,,,,,,,,,,,,,0,0,0,0,0,7,7,7,,,,,,,,,,,,,,,,,,,,,,,,,,,,,,,,,,,,,,,,,,,,,,,,,2,0,154.53615280002123,195.02748869999778,None,"['1', '2']",1,"[0.1105595999979414, 0.13937190000433475]",195.02748869999778,None,,,,001,2022_Dec_20_1655,TMT_fmri,2021.2.3,59.88583364190807,
C5,104:130,9,['1'],1,Images/TMTstop-control_1_5linestimulus6.png,Images/TMTstop-control_1_5greenlinestimulus6.png,Images/TMTstop-control_1_5redlinestimulus6.png,TMT_Control,C5,109,None,3.0,109,,,,,,,,,,,,,,,,,0,0,0,0,0,8,8,8,,,,,,,,,,,,,,,,,,,,,,,,,,,,,,,,,,,,,,,,,,,,,,,,,2,0,154.92824490001658,195.2442194999894,None,"['3', '1']",1,"[0.05133909999858588, 0.33023590000811964]",195.2442194999894,None,,,,001,2022_Dec_20_1655,TMT_fmri,2021.2.3,59.88583364190807,
C5,104:130,10,['2'],2,Images/TMTstop-control_1_5linestimulus7.png,Images/TMTstop-control_1_5greenlinestimulus7.png,Images/TMTstop-control_1_5redlinestimulus7.png,TMT_Control,C5,110,None,3.0,110,,,,,,,,,,,,,,,,,0,0,0,0,0,9,9,9,,,,,,,,,,,,,,,,,,,,,,,,,,,,,,,,,,,,,,,,,,,,,,,,,1,1,155.17918600002304,195.63727210002253,None,['2'],1,[0.1965461999643594],195.63727210002253,None,,,,001,2022_Dec_20_1655,TMT_fmri,2021.2.3,59.88583364190807,
C5,104:130,11,['1'],1,Images/TMTstop-control_1_5linestimulus8.png,Images/TMTstop-control_1_5greenlinestimulus8.png,Images/TMTstop-control_1_5redlinestimulus8.png,TMT_Control,C5,111,None,3.0,111,,,,,,,,,,,,,,,,,0,0,0,0,0,10,10,10,,,,,,,,,,,,,,,,,,,,,,,,,,,,,,,,,,,,,,,,,,,,,,,,,2,0,155.2871844000183,195.89530600002035,None,"['3', '1']",1,"[-0.03602560004219413, 0.020664799958467484]",195.89530600002035,None,,,,001,2022_Dec_20_1655,TMT_fmri,2021.2.3,59.88583364190807,
C5,104:130,12,['3'],3,Images/TMTstop-control_1_5linestimulus9.png,Images/TMTstop-control_1_5greenlinestimulus9.png,Images/TMTstop-control_1_5redlinestimulus9.png,TMT_Control,C5,112,None,3.0,112,,,,,,,,,,,,,,,,,0,0,0,0,0,11,11,11,,,,,,,,,,,,,,,,,,,,,,,,,,,,,,,,,,,,,,,,,,,,,,,,,1,1,155.39519650000148,196.00208420003764,None,['3'],1,[0.048569400038104504],196.00208420003764,None,,,,001,2022_Dec_20_1655,TMT_fmri,2021.2.3,59.88583364190807,
C5,104:130,13,['2'],2,Images/TMTstop-control_1_5linestimulus10.png,Images/TMTstop-control_1_5greenlinestimulus10.png,Images/TMTstop-control_1_5redlinestimulus10.png,TMT_Control,C5,113,None,3.0,113,,,,,,,,,,,,,,,,,0,0,0,0,0,12,12,12,,,,,,,,,,,,,,,,,,,,,,,,,,,,,,,,,,,,,,,,,,,,,,,,,2,0,155.66025260003516,196.11043540004175,None,"['1', '2']",1,"[0.10141649999422953, 0.15656420000595972]",196.11043540004175,None,,,,001,2022_Dec_20_1655,TMT_fmri,2021.2.3,59.88583364190807,
C5,104:130,14,['3'],3,Images/TMTstop-control_1_5linestimulus11.png,Images/TMTstop-control_1_5greenlinestimulus11.png,Images/TMTstop-control_1_5redlinestimulus11.png,TMT_Control,C5,114,None,3.0,114,,,,,,,,,,,,,,,,,0,0,0,0,0,13,13,13,,,,,,,,,,,,,,,,,,,,,,,,,,,,,,,,,,,,,,,,,,,,,,,,,1,1,155.7321809999994,196.37373180000577,None,['3'],1,[0.0017465000273659825],196.37373180000577,None,,,,001,2022_Dec_20_1655,TMT_fmri,2021.2.3,59.88583364190807,
C5,104:130,15,['1'],1,Images/TMTstop-control_1_5linestimulus12.png,Images/TMTstop-control_1_5greenlinestimulus12.png,Images/TMTstop-control_1_5redlinestimulus12.png,TMT_Control,C5,115,None,3.0,115,,,,,,,,,,,,,,,,,0,0,0,0,0,14,14,14,,,,,,,,,,,,,,,,,,,,,,,,,,,,,,,,,,,,,,,,,,,,,,,,,1,1,155.90618069999618,196.44737180002267,None,['1'],1,[0.1040184999583289],196.44737180002267,None,,,,001,2022_Dec_20_1655,TMT_fmri,2021.2.3,59.88583364190807,
