NumberLetter,corrAns,Correct,StimFile,Correct_StimFile,False_StimFile,Version,Paper,TrialNumber_Version,Round,Block,n,Stim.started_mean,Stim.started_raw,Stim.started_std,Stim.stopped_raw,key_resp_2.corr_mean,key_resp_2.corr_raw,key_resp_2.corr_std,key_resp_2.keys_raw,key_resp_2.rt_raw,key_resp_2.started_mean,key_resp_2.started_raw,key_resp_2.started_std,key_resp_2.stopped_raw,order
1,['1'],1,TMTstop-A_1_1.png,TMTstop-A_1_1.png,TMTstop-A_1_1.png,TMT_A,A1,1,1,2,1.0,86.49530029296875,86.49530029296875,0.0,,1.0,1.0,0.0,3,2,1,7.35927939999965,7.384393300002557,7.50353339999856,86.49530029296875,86.49530029296875,0.0,,0.0
2,['3'],3,TMTstop-A_1_1.png,TMTstop-A_1_1firstgreen.png,TMTstop-A_1_1firstred.png,TMT_A,A1,2,None,2,1.0,94.0720443725586,94.0720443725586,0.0,,1.0,1.0,0.0,3,0.09504030000243802,94.0720443725586,94.0720443725586,0.0,,1.0
3,['1'],1,TMTstop-A_1_1linestimulus0.png,TMTstop-A_1_1greenlinestimulus0.png,TMTstop-A_1_1redlinestimulus0.png,TMT_A,A1,3,None,2,1.0,94.22212219238281,94.22212219238281,0.0,,1.0,1.0,0.0,2,1,0.004346100002294406,0.0841979000106221,94.22212219238281,94.22212219238281,0.0,,2.0
4,['3'],3,TMTstop-A_1_1linestimulus1.png,TMTstop-A_1_1greenlinestimulus1.png,TMTstop-A_1_1redlinestimulus1.png,TMT_A,A1,4,None,2,1.0,94.39525604248047,94.39525604248047,0.0,,1.0,1.0,0.0,3,0.06971890000568237,94.39525604248047,94.39525604248047,0.0,,3.0
5,['1'],1,TMTstop-A_1_1linestimulus2.png,TMTstop-A_1_1greenlinestimulus2.png,TMTstop-A_1_1redlinestimulus2.png,TMT_A,A1,5,None,2,1.0,94.52851104736328,94.52851104736328,0.0,,1.0,1.0,0.0,2,1,-0.01846799999475479,0.07505650000530295,94.52851104736328,94.52851104736328,0.0,,4.0
6,['3'],3,TMTstop-A_1_1linestimulus3.png,TMTstop-A_1_1greenlinestimulus3.png,TMTstop-A_1_1redlinestimulus3.png,TMT_A,A1,6,None,2,1.0,94.68968963623047,94.68968963623047,0.0,,1.0,1.0,0.0,3,0.07482589999563061,94.68968963623047,94.68968963623047,0.0,,5.0
7,['1'],1,TMTstop-A_1_1linestimulus4.png,TMTstop-A_1_1greenlinestimulus4.png,TMTstop-A_1_1redlinestimulus4.png,TMT_A,A1,7,None,2,1.0,94.82333374023438,94.82333374023438,0.0,,1.0,1.0,0.0,2,1,-0.0057560999994166195,0.07701029999589082,94.82333374023438,94.82333374023438,0.0,,6.0
8,['2'],2,TMTstop-A_1_1linestimulus5.png,TMTstop-A_1_1greenlinestimulus5.png,TMTstop-A_1_1redlinestimulus5.png,TMT_A,A1,8,None,2,1.0,94.98336791992188,94.98336791992188,0.0,,1.0,1.0,0.0,3,2,0.08316290000220761,0.13617969999904744,94.98336791992188,94.98336791992188,0.0,,7.0
9,['3'],3,TMTstop-A_1_1linestimulus6.png,TMTstop-A_1_1greenlinestimulus6.png,TMTstop-A_1_1redlinestimulus6.png,TMT_A,A1,9,None,2,1.0,95.22698974609375,95.22698974609375,0.0,,1.0,1.0,0.0,1,3,-0.01340570001048036,0.15635579999070615,95.22698974609375,95.22698974609375,0.0,,8.0
10,['1'],1,TMTstop-A_1_1linestimulus7.png,TMTstop-A_1_1greenlinestimulus7.png,TMTstop-A_1_1redlinestimulus7.png,TMT_A,A1,10,None,2,1.0,95.47872161865234,95.47872161865234,0.0,,1.0,1.0,0.0,2,1,-0.039370600003167056,0.014835100009804592,95.47872161865234,95.47872161865234,0.0,,9.0
11,['3'],3,TMTstop-A_1_1linestimulus8.png,TMTstop-A_1_1greenlinestimulus8.png,TMTstop-A_1_1redlinestimulus8.png,TMT_A,A1,11,None,2,1.0,95.57952880859375,95.57952880859375,0.0,,1.0,1.0,0.0,3,1.3536078999895835,95.57952880859375,95.57952880859375,0.0,,10.0
12,['2'],2,TMTstop-A_1_1linestimulus9.png,TMTstop-A_1_1greenlinestimulus9.png,TMTstop-A_1_1redlinestimulus9.png,TMT_A,A1,12,None,2,1.0,97.00663757324219,97.00663757324219,0.0,,1.0,1.0,0.0,2,-0.03566059999866411,97.00663757324219,97.00663757324219,0.0,,11.0
13,['1'],1,TMTstop-A_1_1linestimulus10.png,TMTstop-A_1_1greenlinestimulus10.png,TMTstop-A_1_1redlinestimulus10.png,TMT_A,A1,13,None,2,1.0,97.07302856445312,97.07302856445312,0.0,,1.0,1.0,0.0,1,-0.008729399996809661,97.07302856445312,97.07302856445312,0.0,,12.0
14,['2'],2,TMTstop-A_1_1linestimulus11.png,TMTstop-A_1_1greenlinestimulus11.png,TMTstop-A_1_1redlinestimulus11.png,TMT_A,A1,14,None,2,1.0,97.12950897216797,97.12950897216797,0.0,,1.0,1.0,0.0,3,2,0.10889060000772588,0.14314610000292305,97.12950897216797,97.12950897216797,0.0,,13.0
15,['1'],1,TMTstop-A_1_1linestimulus12.png,TMTstop-A_1_1greenlinestimulus12.png,TMTstop-A_1_1redlinestimulus12.png,TMT_A,A1,15,None,2,1.0,97.36334991455078,97.36334991455078,0.0,,1.0,1.0,0.0,1,-0.00400919999810867,97.36334991455078,97.36334991455078,0.0,,14.0
16,['2'],2,TMTstop-A_1_1linestimulus13.png,TMTstop-A_1_1greenlinestimulus13.png,TMTstop-A_1_1redlinestimulus13.png,TMT_A,A1,16,None,2,1.0,97.41322326660156,97.41322326660156,0.0,,1.0,1.0,0.0,3,2,0.09230679999745917,0.1408413000026485,97.41322326660156,97.41322326660156,0.0,,15.0
17,['1'],1,TMTstop-A_1_1linestimulus14.png,TMTstop-A_1_1greenlinestimulus14.png,TMTstop-A_1_1redlinestimulus14.png,TMT_A,A1,17,None,2,1.0,97.62120819091797,97.62120819091797,0.0,,1.0,1.0,0.0,1,0.010386399997514673,97.62120819091797,97.62120819091797,0.0,,16.0
18,['3'],3,TMTstop-A_1_1linestimulus15.png,TMTstop-A_1_1greenlinestimulus15.png,TMTstop-A_1_1redlinestimulus15.png,TMT_A,A1,18,None,2,1.0,97.70515441894531,97.70515441894531,0.0,,1.0,1.0,0.0,3,0.07261620000645053,97.70515441894531,97.70515441894531,0.0,,17.0
19,['2'],2,TMTstop-A_1_1linestimulus16.png,TMTstop-A_1_1greenlinestimulus16.png,TMTstop-A_1_1redlinestimulus16.png,TMT_A,A1,19,None,2,1.0,97.83824157714844,97.83824157714844,0.0,,1.0,1.0,0.0,2,-0.013817200000630692,97.83824157714844,97.83824157714844,0.0,,18.0
20,['3'],3,TMTstop-A_1_1linestimulus17.png,TMTstop-A_1_1greenlinestimulus17.png,TMTstop-A_1_1redlinestimulus17.png,TMT_A,A1,20,None,2,1.0,97.88837432861328,97.88837432861328,0.0,,1.0,1.0,0.0,1,3,0.012920100009068847,0.15427539999654982,97.88837432861328,97.88837432861328,0.0,,19.0
21,['1'],1,TMTstop-A_1_1linestimulus18.png,TMTstop-A_1_1greenlinestimulus18.png,TMTstop-A_1_1redlinestimulus18.png,TMT_A,A1,21,None,2,1.0,98.12213897705078,98.12213897705078,0.0,,1.0,1.0,0.0,2,1,-0.029635400002007373,0.04745909999473952,98.12213897705078,98.12213897705078,0.0,,20.0
22,['3'],3,TMTstop-A_1_1linestimulus19.png,TMTstop-A_1_1greenlinestimulus19.png,TMTstop-A_1_1redlinestimulus19.png,TMT_A,A1,22,None,2,1.0,98.22225952148438,98.22225952148438,0.0,,1.0,1.0,0.0,3,0.10404340000241064,98.22225952148438,98.22225952148438,0.0,,21.0
23,['1'],1,TMTstop-A_1_1linestimulus20.png,TMTstop-A_1_1greenlinestimulus20.png,TMTstop-A_1_1redlinestimulus20.png,TMT_A,A1,23,None,2,1.0,98.38919067382812,98.38919067382812,0.0,,1.0,1.0,0.0,2,1,-0.017393699992680922,0.05798430000140797,98.38919067382812,98.38919067382812,0.0,,22.0
24,['3'],3,TMTstop-A_1_1linestimulus21.png,TMTstop-A_1_1greenlinestimulus21.png,TMTstop-A_1_1redlinestimulus21.png,TMT_A,A1,24,None,2,1.0,98.55231475830078,98.55231475830078,0.0,,1.0,1.0,0.0,3,0.061230999999679625,98.55231475830078,98.55231475830078,0.0,,23.0
25,['1'],1,TMTstop-A_1_1linestimulus22.png,TMTstop-A_1_1greenlinestimulus22.png,TMTstop-A_1_1redlinestimulus22.png,TMT_A,A1,25,None,2,1.0,98.6861572265625,98.6861572265625,0.0,,1.0,1.0,0.0,2,1,-0.028468100004829466,0.045799200001056306,98.6861572265625,98.6861572265625,0.0,,24.0
None,None,None,TMTstop-A_1_1linestimulus23.png,TMTstop-A_1_1greenlinestimulus23.png,TMTstop-A_1_1redlinestimulus23.png,TMT_A,A1,Feedback_last,None,2,1.0,98.80986785888672,98.80986785888672,0.0,,0.0,0.0,0.0,3,2,1,0.09101209999062121,0.12816429999656975,0.21858079999219626,98.80986785888672,98.80986785888672,0.0,,25.0

extraInfo
participant,
session,001
date,2022_Nov_18_0015
expName,TMT_fmri
psychopyVersion,2021.2.3
frameRate,59.9428025783916
﻿NumberLetter,corrAns,Correct,StimFile,Correct_StimFile,False_StimFile,Version,Paper,TrialNumber_Version,Round,Block,n,Stim.started_mean,Stim.started_raw,Stim.started_std,Stim.stopped_raw,key_resp_2.corr_mean,key_resp_2.corr_raw,key_resp_2.corr_std,key_resp_2.keys_raw,key_resp_2.rt_raw,key_resp_2.started_mean,key_resp_2.started_raw,key_resp_2.started_std,key_resp_2.stopped_raw,order
1,['1'],1,TMTstop-A_1_2.png,TMTstop-A_1_2.png,TMTstop-A_1_2.png,TMT_A,A2,26,None,2,1.0,103.06563568115234,103.06563568115234,0.0,,1.0,1.0,0.0,1,0.9186473999870941,103.06563568115234,103.06563568115234,0.0,,0.0
2,['3'],3,TMTstop-A_1_2.png,TMTstop-A_1_2firstgreen.png,TMTstop-A_1_2firstred.png,TMT_A,A2,27,None,2,1.0,104.04850769042969,104.04850769042969,0.0,,1.0,1.0,0.0,3,0.2150038000108907,104.04850769042969,104.04850769042969,0.0,,1.0
3,['1'],1,TMTstop-A_1_2linestimulus0.png,TMTstop-A_1_2greenlinestimulus0.png,TMTstop-A_1_2redlinestimulus0.png,TMT_A,A2,28,None,2,1.0,104.32286071777344,104.32286071777344,0.0,,1.0,1.0,0.0,2,1,-0.04942450000089593,0.07344880000164267,104.32286071777344,104.32286071777344,0.0,,2.0
4,['2'],2,TMTstop-A_1_2linestimulus1.png,TMTstop-A_1_2greenlinestimulus1.png,TMTstop-A_1_2redlinestimulus1.png,TMT_A,A2,29,None,2,1.0,104.48416137695312,104.48416137695312,0.0,,1.0,1.0,0.0,3,2,0.07966440000745934,0.13755480000691023,104.48416137695312,104.48416137695312,0.0,,3.0
5,['1'],1,TMTstop-A_1_2linestimulus2.png,TMTstop-A_1_2greenlinestimulus2.png,TMTstop-A_1_2redlinestimulus2.png,TMT_A,A2,30,None,2,1.0,104.7288818359375,104.7288818359375,0.0,,1.0,1.0,0.0,3,2,1,0.2967248000059044,0.35023199999704957,0.37050859999726526,104.7288818359375,104.7288818359375,0.0,,4.0
6,['3'],3,TMTstop-A_1_2linestimulus3.png,TMTstop-A_1_2greenlinestimulus3.png,TMTstop-A_1_2redlinestimulus3.png,TMT_A,A2,31,None,2,1.0,105.19104766845703,105.19104766845703,0.0,,0.0,0.0,0.0,,'--',105.19104766845703,105.19104766845703,0.0,,5.0
7,['2'],2,TMTstop-A_1_2linestimulus4.png,TMTstop-A_1_2greenlinestimulus4.png,TMTstop-A_1_2redlinestimulus4.png,TMT_A,A2,32,None,2,0.0,,,,'--',,,,'--','--',,,,'--',
8,['1'],1,TMTstop-A_1_2linestimulus5.png,TMTstop-A_1_2greenlinestimulus5.png,TMTstop-A_1_2redlinestimulus5.png,TMT_A,A2,33,None,2,0.0,,,,'--',,,,'--','--',,,,'--',
9,['3'],3,TMTstop-A_1_2linestimulus6.png,TMTstop-A_1_2greenlinestimulus6.png,TMTstop-A_1_2redlinestimulus6.png,TMT_A,A2,34,None,2,0.0,,,,'--',,,,'--','--',,,,'--',
10,['2'],2,TMTstop-A_1_2linestimulus7.png,TMTstop-A_1_2greenlinestimulus7.png,TMTstop-A_1_2redlinestimulus7.png,TMT_A,A2,35,None,2,0.0,,,,'--',,,,'--','--',,,,'--',
11,['1'],1,TMTstop-A_1_2linestimulus8.png,TMTstop-A_1_2greenlinestimulus8.png,TMTstop-A_1_2redlinestimulus8.png,TMT_A,A2,36,None,2,0.0,,,,'--',,,,'--','--',,,,'--',
12,['2'],2,TMTstop-A_1_2linestimulus9.png,TMTstop-A_1_2greenlinestimulus9.png,TMTstop-A_1_2redlinestimulus9.png,TMT_A,A2,37,None,2,0.0,,,,'--',,,,'--','--',,,,'--',
13,['1'],1,TMTstop-A_1_2linestimulus10.png,TMTstop-A_1_2greenlinestimulus10.png,TMTstop-A_1_2redlinestimulus10.png,TMT_A,A2,38,None,2,0.0,,,,'--',,,,'--','--',,,,'--',
14,['3'],3,TMTstop-A_1_2linestimulus11.png,TMTstop-A_1_2greenlinestimulus11.png,TMTstop-A_1_2redlinestimulus11.png,TMT_A,A2,39,None,2,0.0,,,,'--',,,,'--','--',,,,'--',
15,['1'],1,TMTstop-A_1_2linestimulus12.png,TMTstop-A_1_2greenlinestimulus12.png,TMTstop-A_1_2redlinestimulus12.png,TMT_A,A2,40,None,2,0.0,,,,'--',,,,'--','--',,,,'--',
16,['3'],3,TMTstop-A_1_2linestimulus13.png,TMTstop-A_1_2greenlinestimulus13.png,TMTstop-A_1_2redlinestimulus13.png,TMT_A,A2,41,None,2,0.0,,,,'--',,,,'--','--',,,,'--',
17,['1'],1,TMTstop-A_1_2linestimulus14.png,TMTstop-A_1_2greenlinestimulus14.png,TMTstop-A_1_2redlinestimulus14.png,TMT_A,A2,42,None,2,0.0,,,,'--',,,,'--','--',,,,'--',
18,['2'],2,TMTstop-A_1_2linestimulus15.png,TMTstop-A_1_2greenlinestimulus15.png,TMTstop-A_1_2redlinestimulus15.png,TMT_A,A2,43,None,2,0.0,,,,'--',,,,'--','--',,,,'--',
19,['1'],1,TMTstop-A_1_2linestimulus16.png,TMTstop-A_1_2greenlinestimulus16.png,TMTstop-A_1_2redlinestimulus16.png,TMT_A,A2,44,None,2,0.0,,,,'--',,,,'--','--',,,,'--',
20,['2'],2,TMTstop-A_1_2linestimulus17.png,TMTstop-A_1_2greenlinestimulus17.png,TMTstop-A_1_2redlinestimulus17.png,TMT_A,A2,45,None,2,0.0,,,,'--',,,,'--','--',,,,'--',
21,['3'],3,TMTstop-A_1_2linestimulus18.png,TMTstop-A_1_2greenlinestimulus18.png,TMTstop-A_1_2redlinestimulus18.png,TMT_A,A2,46,None,2,0.0,,,,'--',,,,'--','--',,,,'--',
22,['2'],2,TMTstop-A_1_2linestimulus19.png,TMTstop-A_1_2greenlinestimulus19.png,TMTstop-A_1_2redlinestimulus19.png,TMT_A,A2,47,None,2,0.0,,,,'--',,,,'--','--',,,,'--',
23,['3'],3,TMTstop-A_1_2linestimulus20.png,TMTstop-A_1_2greenlinestimulus20.png,TMTstop-A_1_2redlinestimulus20.png,TMT_A,A2,48,None,2,0.0,,,,'--',,,,'--','--',,,,'--',
24,['2'],2,TMTstop-A_1_2linestimulus21.png,TMTstop-A_1_2greenlinestimulus21.png,TMTstop-A_1_2redlinestimulus21.png,TMT_A,A2,49,None,2,0.0,,,,'--',,,,'--','--',,,,'--',
25,['3'],3,TMTstop-A_1_2linestimulus22.png,TMTstop-A_1_2greenlinestimulus22.png,TMTstop-A_1_2redlinestimulus22.png,TMT_A,A2,50,None,2,0.0,,,,'--',,,,'--','--',,,,'--',
None,None,None,TMTstop-A_1_2linestimulus23.png,TMTstop-A_1_2greenlinestimulus23.png,TMTstop-A_1_2redlinestimulus23.png,TMT_A,A2,Feedback_last,None,2,0.0,,,,'--',,,,'--','--',,,,'--',

extraInfo
participant,
session,001
date,2022_Nov_18_0015
expName,TMT_fmri
psychopyVersion,2021.2.3
frameRate,59.9428025783916
