NumberLetter,corrAns,Correct,StimFile,Correct_StimFile,False_StimFile,Version,Block,TrialNumber_session,n,Stim.started_mean,Stim.started_raw,Stim.started_std,Stim.stopped_raw,key_resp_2.corr_mean,key_resp_2.corr_raw,key_resp_2.corr_std,key_resp_2.keys_raw,key_resp_2.rt_raw,key_resp_2.started_mean,key_resp_2.started_raw,key_resp_2.started_std,key_resp_2.stopped_raw,order
1,['2'],2,TMTstop-control_1_1.png,TMTstop-control_1_1.png,TMTstop-control_1_1.png,TMT_Control,1,1,1.0,11.483355522155762,11.483355522155762,0.0,,1.0,1.0,0.0,2,0.5198772000003373,11.483355522155762,11.483355522155762,0.0,,0.0
2,['1'],1,TMTstop-control_1_1.png,TMTstop-control_1_1firstgreen.png,TMTstop-control_1_1firstred.png,TMT_Control,1,2,1.0,12.20943546295166,12.20943546295166,0.0,,1.0,1.0,0.0,1,-0.02268339999136515,12.20943546295166,12.20943546295166,0.0,,1.0
3,['3'],3,TMTstop-control_1_1linestimulus0.png,TMTstop-control_1_1greenlinestimulus0.png,TMTstop-control_1_1redlinestimulus0.png,TMT_Control,1,3,1.0,12.337367057800293,12.337367057800293,0.0,,1.0,1.0,0.0,3,0.017000199994072318,12.337367057800293,12.337367057800293,0.0,,2.0
4,['1'],1,TMTstop-control_1_1linestimulus1.png,TMTstop-control_1_1greenlinestimulus1.png,TMTstop-control_1_1redlinestimulus1.png,TMT_Control,1,4,1.0,12.477398872375488,12.477398872375488,0.0,,1.0,1.0,0.0,2,3,2,3,1,0.07154150000133086,0.18097989998932462,0.7720977999997558,0.7824891999916872,1.6075631999992765,12.477398872375488,12.477398872375488,0.0,,3.0
5,['3'],3,TMTstop-control_1_1linestimulus2.png,TMTstop-control_1_1greenlinestimulus2.png,TMTstop-control_1_1redlinestimulus2.png,TMT_Control,1,5,1.0,14.245150566101074,14.245150566101074,0.0,,1.0,1.0,0.0,2,3,-0.027619000000413507,0.042267400000127964,14.245150566101074,14.245150566101074,0.0,,4.0
6,['1'],1,TMTstop-control_1_1linestimulus3.png,TMTstop-control_1_1greenlinestimulus3.png,TMTstop-control_1_1redlinestimulus3.png,TMT_Control,1,6,1.0,14.369972229003906,14.369972229003906,0.0,,1.0,1.0,0.0,2,3,1,0.1365968000027351,0.2335830999945756,0.37456399999791756,14.369972229003906,14.369972229003906,0.0,,5.0
7,['2'],2,TMTstop-control_1_1linestimulus4.png,TMTstop-control_1_1greenlinestimulus4.png,TMTstop-control_1_1redlinestimulus4.png,TMT_Control,1,7,1.0,14.9368896484375,14.9368896484375,0.0,,1.0,1.0,0.0,2,3,1,2,-0.12200039999152068,-0.02694609999889508,0.12953320000087842,0.18369370000436902,14.9368896484375,14.9368896484375,0.0,,6.0
8,['1'],1,TMTstop-control_1_1linestimulus4.png,TMTstop-control_1_1greenlinestimulus5.png,TMTstop-control_1_1redlinestimulus5.png,TMT_Control,1,8,1.0,15.326709747314453,15.326709747314453,0.0,,1.0,1.0,0.0,3,1,-0.09695920000376645,0.06322359999467153,15.326709747314453,15.326709747314453,0.0,,7.0
9,['3'],3,TMTstop-control_1_1linestimulus6.png,TMTstop-control_1_1greenlinestimulus6.png,TMTstop-control_1_1redlinestimulus6.png,TMT_Control,1,9,1.0,15.57674503326416,15.57674503326416,0.0,,1.0,1.0,0.0,2,3,-0.034490999998524785,-0.026435799998580478,15.57674503326416,15.57674503326416,0.0,,8.0
10,['2'],2,TMTstop-control_1_1linestimulus7.png,TMTstop-control_1_1greenlinestimulus7.png,TMTstop-control_1_1redlinestimulus7.png,TMT_Control,1,10,1.0,15.702203750610352,15.702203750610352,0.0,,1.0,1.0,0.0,1,2,0.02900439999939408,0.10970939999970142,15.702203750610352,15.702203750610352,0.0,,9.0
11,['1'],1,TMTstop-control_1_1linestimulus8.png,TMTstop-control_1_1greenlinestimulus8.png,TMTstop-control_1_1redlinestimulus8.png,TMT_Control,1,11,1.0,15.981148719787598,15.981148719787598,0.0,,1.0,1.0,0.0,3,1,2,3,1,2,3,1,-0.08615760000247974,0.05717499999445863,0.12958449999860022,0.21309089999704156,0.346488600000157,0.4008098000049358,0.49292619999323506,0.6237856999941869,15.981148719787598,15.981148719787598,0.0,,10.0
12,['2'],2,TMTstop-control_1_1linestimulus9.png,TMTstop-control_1_1greenlinestimulus9.png,TMTstop-control_1_1redlinestimulus9.png,TMT_Control,1,12,1.0,16.77179718017578,16.77179718017578,0.0,,1.0,1.0,0.0,2,3,1,2,-0.08341759999166243,-0.008017899992410094,0.254409700006363,0.423655200007488,16.77179718017578,16.77179718017578,0.0,,11.0
13,['3'],3,TMTstop-control_1_1linestimulus10.png,TMTstop-control_1_1greenlinestimulus10.png,TMTstop-control_1_1redlinestimulus10.png,TMT_Control,1,13,1.0,17.295101165771484,17.295101165771484,0.0,,1.0,1.0,0.0,1,2,2,3,0.10380810000060592,0.1218516999942949,0.19451030000345781,0.2667803999938769,17.295101165771484,17.295101165771484,0.0,,12.0
14,['2'],2,TMTstop-control_1_1linestimulus11.png,TMTstop-control_1_1greenlinestimulus11.png,TMTstop-control_1_1redlinestimulus11.png,TMT_Control,1,14,1.0,17.684795379638672,17.684795379638672,0.0,,1.0,1.0,0.0,1,2,-0.00789390000863932,0.11233109999739099,17.684795379638672,17.684795379638672,0.0,,13.0
15,['3'],3,TMTstop-control_1_1linestimulus12.png,TMTstop-control_1_1greenlinestimulus12.png,TMTstop-control_1_1redlinestimulus12.png,TMT_Control,1,15,1.0,17.940834045410156,17.940834045410156,0.0,,1.0,1.0,0.0,3,-0.11270100000547245,17.940834045410156,17.940834045410156,0.0,,14.0
16,['2'],2,TMTstop-control_1_1linestimulus13.png,TMTstop-control_1_1greenlinestimulus13.png,TMTstop-control_1_1redlinestimulus13.png,TMT_Control,1,16,1.0,18.08258056640625,18.08258056640625,0.0,,1.0,1.0,0.0,1,2,-0.13421390000439715,-0.03750700000091456,18.08258056640625,18.08258056640625,0.0,,15.0
17,['3'],3,TMTstop-control_1_1linestimulus14.png,TMTstop-control_1_1greenlinestimulus14.png,TMTstop-control_1_1redlinestimulus14.png,TMT_Control,1,17,1.0,18.204017639160156,18.204017639160156,0.0,,1.0,1.0,0.0,3,-0.06492920000164304,18.204017639160156,18.204017639160156,0.0,,16.0
18,['2'],2,TMTstop-control_1_1linestimulus15.png,TMTstop-control_1_1greenlinestimulus15.png,TMTstop-control_1_1redlinestimulus15.png,TMT_Control,1,18,1.0,18.329689025878906,18.329689025878906,0.0,,1.0,1.0,0.0,1,3,1,2,-0.03875620001053903,0.12611319999268744,0.2648880999913672,0.3779521999967983,18.329689025878906,18.329689025878906,0.0,,17.0
19,['1'],1,TMTstop-control_1_1linestimulus16.png,TMTstop-control_1_1greenlinestimulus16.png,TMTstop-control_1_1redlinestimulus16.png,TMT_Control,1,19,1.0,18.851673126220703,18.851673126220703,0.0,,1.0,1.0,0.0,3,1,-0.01398029999108985,0.12606150000647176,18.851673126220703,18.851673126220703,0.0,,18.0
20,['3'],3,TMTstop-control_1_1linestimulus17.png,TMTstop-control_1_1greenlinestimulus17.png,TMTstop-control_1_1redlinestimulus17.png,TMT_Control,1,20,1.0,19.132917404174805,19.132917404174805,0.0,,1.0,1.0,0.0,3,0.033314899992547,19.132917404174805,19.132917404174805,0.0,,19.0
21,['1'],1,TMTstop-control_1_1linestimulus18.png,TMTstop-control_1_1greenlinestimulus18.png,TMTstop-control_1_1redlinestimulus18.png,TMT_Control,1,21,1.0,19.272029876708984,19.272029876708984,0.0,,1.0,1.0,0.0,1,0.04145259999495465,19.272029876708984,19.272029876708984,0.0,,20.0
22,['2'],2,TMTstop-control_1_1linestimulus19.png,TMTstop-control_1_1greenlinestimulus19.png,TMTstop-control_1_1redlinestimulus19.png,TMT_Control,1,22,1.0,19.400056838989258,19.400056838989258,0.0,,1.0,1.0,0.0,2,-0.01329750000149943,19.400056838989258,19.400056838989258,0.0,,21.0
23,['3'],3,TMTstop-control_1_1linestimulus20.png,TMTstop-control_1_1greenlinestimulus20.png,TMTstop-control_1_1redlinestimulus20.png,TMT_Control,1,23,1.0,19.52711296081543,19.52711296081543,0.0,,1.0,1.0,0.0,3,-0.021999200005666353,19.52711296081543,19.52711296081543,0.0,,22.0
24,['2'],2,TMTstop-control_1_1linestimulus21.png,TMTstop-control_1_1greenlinestimulus21.png,TMTstop-control_1_1redlinestimulus21.png,TMT_Control,1,24,1.0,19.668933868408203,19.668933868408203,0.0,,1.0,1.0,0.0,1,2,-0.03801160000148229,0.04916179999418091,19.668933868408203,19.668933868408203,0.0,,23.0
25,['1'],1,TMTstop-control_1_1linestimulus22.png,TMTstop-control_1_1greenlinestimulus22.png,TMTstop-control_1_1redlinestimulus22.png,TMT_Control,1,25,1.0,19.935165405273438,19.935165405273438,0.0,,1.0,1.0,0.0,3,1,-0.11760430000140332,0.006937699989066459,19.935165405273438,19.935165405273438,0.0,,24.0
None,None,None,TMTstop-control_1_1linestimulus23.png,TMTstop-control_1_1greenlinestimulus23.png,TMTstop-control_1_1redlinestimulus23.png,TMT_Control,1,Feedback_last,1.0,20.069934844970703,20.069934844970703,0.0,,0.0,0.0,0.0,2,3,1,-0.06085890000395011,0.03549599999678321,0.18270279999705963,20.069934844970703,20.069934844970703,0.0,,25.0

extraInfo
participant,
session,001
date,2022_May_10_1109
expName,TMT_fmri
psychopyVersion,2021.2.3
frameRate,122.71384113973052
﻿NumberLetter,corrAns,Correct,StimFile,Correct_StimFile,False_StimFile,Version,Block,TrialNumber_session,n,Stim.started_mean,Stim.started_raw,Stim.started_std,Stim.stopped_raw,key_resp_2.corr_mean,key_resp_2.corr_raw,key_resp_2.corr_std,key_resp_2.keys_raw,key_resp_2.rt_raw,key_resp_2.started_mean,key_resp_2.started_raw,key_resp_2.started_std,key_resp_2.stopped_raw,order
1,['2'],2,TMTstop-control_1_2.png,TMTstop-control_1_2.png,TMTstop-control_1_2.png,TMT_Control,2,26,1.0,24.287757873535156,24.287757873535156,0.0,,1.0,1.0,0.0,1,2,0.40587000000232365,0.5436438000033377,24.287757873535156,24.287757873535156,0.0,,0.0
2,['3'],3,TMTstop-control_1_2.png,TMTstop-control_1_2firstgreen.png,TMTstop-control_1_2firstred.png,TMT_Control,2,27,1.0,24.961925506591797,24.961925506591797,0.0,,1.0,1.0,0.0,3,-0.047120899995206855,24.961925506591797,24.961925506591797,0.0,,1.0
3,['2'],2,TMTstop-control_1_2linestimulus0.png,TMTstop-control_1_2greenlinestimulus0.png,TMTstop-control_1_2redlinestimulus0.png,TMT_Control,2,28,1.0,25.085582733154297,25.085582733154297,0.0,,1.0,1.0,0.0,1,2,-0.03736850000859704,0.0415727999934461,25.085582733154297,25.085582733154297,0.0,,2.0
4,['3'],3,TMTstop-control_1_2linestimulus1.png,TMTstop-control_1_2greenlinestimulus1.png,TMTstop-control_1_2redlinestimulus1.png,TMT_Control,2,29,1.0,25.227243423461914,25.227243423461914,0.0,,1.0,1.0,0.0,3,-0.010256200010189787,25.227243423461914,25.227243423461914,0.0,,3.0
5,['2'],2,TMTstop-control_1_2linestimulus2.png,TMTstop-control_1_2greenlinestimulus2.png,TMTstop-control_1_2redlinestimulus2.png,TMT_Control,2,30,1.0,25.366046905517578,25.366046905517578,0.0,,1.0,1.0,0.0,1,2,3,1,2,-0.02965039999980945,0.05107289999432396,0.11604490000172518,0.2359444000030635,0.304067799996119,25.366046905517578,25.366046905517578,0.0,,4.0
6,['3'],3,TMTstop-control_1_2linestimulus3.png,TMTstop-control_1_2greenlinestimulus3.png,TMTstop-control_1_2redlinestimulus3.png,TMT_Control,2,31,1.0,25.7606143951416,25.7606143951416,0.0,,1.0,1.0,0.0,3,0.0004768999933730811,25.7606143951416,25.7606143951416,0.0,,5.0
7,['2'],2,TMTstop-control_1_2linestimulus4.png,TMTstop-control_1_2greenlinestimulus4.png,TMTstop-control_1_2redlinestimulus4.png,TMT_Control,2,32,1.0,25.887920379638672,25.887920379638672,0.0,,1.0,1.0,0.0,1,2,3,1,2,-0.011408500009565614,0.0855637999920873,0.13112389999150764,0.26750379998702556,0.3346377999987453,25.887920379638672,25.887920379638672,0.0,,6.0
8,['1'],1,TMTstop-control_1_2linestimulus4.png,TMTstop-control_1_2greenlinestimulus5.png,TMTstop-control_1_2redlinestimulus5.png,TMT_Control,2,33,1.0,26.420148849487305,26.420148849487305,0.0,,1.0,1.0,0.0,3,1,-0.12116239999886602,0.007045899998047389,26.420148849487305,26.420148849487305,0.0,,7.0
9,['3'],3,TMTstop-control_1_2linestimulus6.png,TMTstop-control_1_2greenlinestimulus6.png,TMTstop-control_1_2redlinestimulus6.png,TMT_Control,2,34,1.0,26.561996459960938,26.561996459960938,0.0,,1.0,1.0,0.0,2,3,-0.043581299993093126,0.051535600010538474,26.561996459960938,26.561996459960938,0.0,,8.0
10,['2'],2,TMTstop-control_1_2linestimulus7.png,TMTstop-control_1_2greenlinestimulus7.png,TMTstop-control_1_2redlinestimulus7.png,TMT_Control,2,35,1.0,26.703636169433594,26.703636169433594,0.0,,1.0,1.0,0.0,1,2,0.012960500011104159,0.15408100000058766,26.703636169433594,26.703636169433594,0.0,,9.0
11,['3'],3,TMTstop-control_1_2linestimulus8.png,TMTstop-control_1_2greenlinestimulus8.png,TMTstop-control_1_2redlinestimulus8.png,TMT_Control,2,36,1.0,26.954904556274414,26.954904556274414,0.0,,1.0,1.0,0.0,3,-0.04768209999019746,26.954904556274414,26.954904556274414,0.0,,10.0
12,['2'],2,TMTstop-control_1_2linestimulus9.png,TMTstop-control_1_2greenlinestimulus9.png,TMTstop-control_1_2redlinestimulus9.png,TMT_Control,2,37,1.0,27.082895278930664,27.082895278930664,0.0,,1.0,1.0,0.0,1,2,-0.023089599999366328,0.07191020000027493,27.082895278930664,27.082895278930664,0.0,,11.0
13,['3'],3,TMTstop-control_1_2linestimulus10.png,TMTstop-control_1_2greenlinestimulus10.png,TMTstop-control_1_2redlinestimulus10.png,TMT_Control,2,38,1.0,27.33526039123535,27.33526039123535,0.0,,1.0,1.0,0.0,3,-0.08857159999024589,27.33526039123535,27.33526039123535,0.0,,12.0
14,['2'],2,TMTstop-control_1_2linestimulus11.png,TMTstop-control_1_2greenlinestimulus11.png,TMTstop-control_1_2redlinestimulus11.png,TMT_Control,2,39,1.0,27.46074104309082,27.46074104309082,0.0,,1.0,1.0,0.0,1,2,-0.072175099994638,0.04254959999525454,27.46074104309082,27.46074104309082,0.0,,13.0
15,['3'],3,TMTstop-control_1_2linestimulus12.png,TMTstop-control_1_2greenlinestimulus12.png,TMTstop-control_1_2redlinestimulus12.png,TMT_Control,2,40,1.0,27.587499618530273,27.587499618530273,0.0,,1.0,1.0,0.0,1,2,3,0.09979449999809731,0.126413699996192,0.2633802999916952,27.587499618530273,27.587499618530273,0.0,,14.0
16,['1'],1,TMTstop-control_1_2linestimulus13.png,TMTstop-control_1_2greenlinestimulus13.png,TMTstop-control_1_2redlinestimulus13.png,TMT_Control,2,41,1.0,27.979936599731445,27.979936599731445,0.0,,1.0,1.0,0.0,1,0.024921699994592927,27.979936599731445,27.979936599731445,0.0,,15.0
17,['2'],2,TMTstop-control_1_2linestimulus14.png,TMTstop-control_1_2greenlinestimulus14.png,TMTstop-control_1_2redlinestimulus14.png,TMT_Control,2,42,1.0,28.121902465820312,28.121902465820312,0.0,,1.0,1.0,0.0,2,-0.007783699998981319,28.121902465820312,28.121902465820312,0.0,,16.0
18,['1'],1,TMTstop-control_1_2linestimulus15.png,TMTstop-control_1_2greenlinestimulus15.png,TMTstop-control_1_2redlinestimulus15.png,TMT_Control,2,43,1.0,28.249603271484375,28.249603271484375,0.0,,1.0,1.0,0.0,3,1,-0.053488100005779415,0.076522000003024,28.249603271484375,28.249603271484375,0.0,,17.0
19,['2'],2,TMTstop-control_1_2linestimulus16.png,TMTstop-control_1_2greenlinestimulus16.png,TMTstop-control_1_2redlinestimulus16.png,TMT_Control,2,44,1.0,28.511903762817383,28.511903762817383,0.0,,1.0,1.0,0.0,2,3,1,2,-0.10470880000502802,-0.019028599999728613,0.11422740000125486,0.22471520000544842,28.511903762817383,28.511903762817383,0.0,,18.0
20,['3'],3,TMTstop-control_1_2linestimulus17.png,TMTstop-control_1_2greenlinestimulus17.png,TMTstop-control_1_2redlinestimulus17.png,TMT_Control,2,45,1.0,28.897483825683594,28.897483825683594,0.0,,1.0,1.0,0.0,3,-0.10161690000677481,28.897483825683594,28.897483825683594,0.0,,19.0
21,['1'],1,TMTstop-control_1_2linestimulus18.png,TMTstop-control_1_2greenlinestimulus18.png,TMTstop-control_1_2redlinestimulus18.png,TMT_Control,2,46,1.0,29.022937774658203,29.022937774658203,0.0,,1.0,1.0,0.0,1,-0.08972800000628922,29.022937774658203,29.022937774658203,0.0,,20.0
22,['3'],3,TMTstop-control_1_2linestimulus19.png,TMTstop-control_1_2greenlinestimulus19.png,TMTstop-control_1_2redlinestimulus19.png,TMT_Control,2,47,1.0,29.149700164794922,29.149700164794922,0.0,,1.0,1.0,0.0,2,3,-0.1021385000058217,-0.0420427000062773,29.149700164794922,29.149700164794922,0.0,,21.0
23,['2'],2,TMTstop-control_1_2linestimulus20.png,TMTstop-control_1_2greenlinestimulus20.png,TMTstop-control_1_2redlinestimulus20.png,TMT_Control,2,48,1.0,29.277381896972656,29.277381896972656,0.0,,1.0,1.0,0.0,1,2,-0.03942889999598265,0.02760359999956563,29.277381896972656,29.277381896972656,0.0,,22.0
24,['3'],3,TMTstop-control_1_2linestimulus21.png,TMTstop-control_1_2greenlinestimulus21.png,TMTstop-control_1_2redlinestimulus21.png,TMT_Control,2,49,1.0,29.41762924194336,29.41762924194336,0.0,,1.0,1.0,0.0,3,-0.020076200002222322,29.41762924194336,29.41762924194336,0.0,,23.0
25,['1'],1,TMTstop-control_1_2linestimulus22.png,TMTstop-control_1_2greenlinestimulus22.png,TMTstop-control_1_2redlinestimulus22.png,TMT_Control,2,50,1.0,29.545547485351562,29.545547485351562,0.0,,1.0,1.0,0.0,1,-0.020753299992065877,29.545547485351562,29.545547485351562,0.0,,24.0
None,None,None,TMTstop-control_1_2linestimulus23.png,TMTstop-control_1_2greenlinestimulus23.png,TMTstop-control_1_2redlinestimulus23.png,TMT_Control,2,Feedback_last,1.0,29.67307472229004,29.67307472229004,0.0,,0.0,0.0,0.0,2,3,1,2,-0.07877940000616945,0.019102699996437877,0.1349828999955207,0.20517849999305326,29.67307472229004,29.67307472229004,0.0,,25.0

extraInfo
participant,
session,001
date,2022_May_10_1109
expName,TMT_fmri
psychopyVersion,2021.2.3
frameRate,122.71384113973052
﻿NumberLetter,corrAns,Correct,StimFile,Correct_StimFile,False_StimFile,Version,Block,TrialNumber_session,n,Stim.started_mean,Stim.started_raw,Stim.started_std,Stim.stopped_raw,key_resp_2.corr_mean,key_resp_2.corr_raw,key_resp_2.corr_std,key_resp_2.keys_raw,key_resp_2.rt_raw,key_resp_2.started_mean,key_resp_2.started_raw,key_resp_2.started_std,key_resp_2.stopped_raw,order
1,['2'],2,TMTstop-control_1_3.png,TMTstop-control_1_3.png,TMTstop-control_1_3.png,TMT_Control,3,51,1.0,33.8600959777832,33.8600959777832,0.0,,1.0,1.0,0.0,1,2,0.35818099998869,0.5039216000004672,33.8600959777832,33.8600959777832,0.0,,0.0
2,['1'],1,TMTstop-control_1_3.png,TMTstop-control_1_3firstgreen.png,TMTstop-control_1_3firstred.png,TMT_Control,3,52,1.0,34.49530029296875,34.49530029296875,0.0,,1.0,1.0,0.0,3,1,-0.0742889999964973,0.0745530999993207,34.49530029296875,34.49530029296875,0.0,,1.0
3,['2'],2,TMTstop-control_1_3linestimulus0.png,TMTstop-control_1_3greenlinestimulus0.png,TMTstop-control_1_3redlinestimulus0.png,TMT_Control,3,53,1.0,34.75252151489258,34.75252151489258,0.0,,1.0,1.0,0.0,2,3,1,2,-0.11172699999588076,-0.026236699995934032,0.09223520000523422,0.14616449999448378,34.75252151489258,34.75252151489258,0.0,,2.0
4,['1'],1,TMTstop-control_1_3linestimulus1.png,TMTstop-control_1_3greenlinestimulus1.png,TMTstop-control_1_3redlinestimulus1.png,TMT_Control,3,54,1.0,35.03688049316406,35.03688049316406,0.0,,1.0,1.0,0.0,3,1,2,3,1,-0.04151789999741595,0.06663600000320002,0.11597210000036284,0.21645269999862649,0.35760380000283476,35.03688049316406,35.03688049316406,0.0,,3.0
5,['3'],3,TMTstop-control_1_3linestimulus2.png,TMTstop-control_1_3greenlinestimulus2.png,TMTstop-control_1_3redlinestimulus2.png,TMT_Control,3,55,1.0,35.538997650146484,35.538997650146484,0.0,,1.0,1.0,0.0,1,2,3,0.10161280000465922,0.2440807999955723,0.24806650000391528,35.538997650146484,35.538997650146484,0.0,,4.0
6,['1'],1,TMTstop-control_1_3linestimulus3.png,TMTstop-control_1_3greenlinestimulus3.png,TMTstop-control_1_3redlinestimulus3.png,TMT_Control,3,56,1.0,35.93299865722656,35.93299865722656,0.0,,1.0,1.0,0.0,1,-0.012967699993168935,35.93299865722656,35.93299865722656,0.0,,5.0
7,['2'],2,TMTstop-control_1_3linestimulus4.png,TMTstop-control_1_3greenlinestimulus4.png,TMTstop-control_1_3redlinestimulus4.png,TMT_Control,3,57,1.0,36.073020935058594,36.073020935058594,0.0,,1.0,1.0,0.0,2,-0.08717089999117889,36.073020935058594,36.073020935058594,0.0,,6.0
8,['3'],3,TMTstop-control_1_3linestimulus4.png,TMTstop-control_1_3greenlinestimulus5.png,TMTstop-control_1_3redlinestimulus5.png,TMT_Control,3,58,1.0,36.1995735168457,36.1995735168457,0.0,,1.0,1.0,0.0,3,-0.1097728000022471,36.1995735168457,36.1995735168457,0.0,,7.0
9,['1'],1,TMTstop-control_1_3linestimulus6.png,TMTstop-control_1_3greenlinestimulus6.png,TMTstop-control_1_3redlinestimulus6.png,TMT_Control,3,59,1.0,36.32472229003906,36.32472229003906,0.0,,1.0,1.0,0.0,1,2,3,1,2,3,1,-0.11110519999056123,-0.02725579999969341,0.05586020000919234,0.17420589999528602,0.23850340000353754,0.32903340000484604,0.472003400005633,36.32472229003906,36.32472229003906,0.0,,8.0
10,['2'],2,TMTstop-control_1_3linestimulus7.png,TMTstop-control_1_3greenlinestimulus7.png,TMTstop-control_1_3redlinestimulus7.png,TMT_Control,3,60,1.0,36.89999771118164,36.89999771118164,0.0,,1.0,1.0,0.0,2,-0.00608200000715442,36.89999771118164,36.89999771118164,0.0,,9.0
11,['1'],1,TMTstop-control_1_3linestimulus8.png,TMTstop-control_1_3greenlinestimulus8.png,TMTstop-control_1_3redlinestimulus8.png,TMT_Control,3,61,1.0,37.027469635009766,37.027469635009766,0.0,,1.0,1.0,0.0,3,1,2,3,1,-0.05895120000059251,0.07248550000076648,0.09947889999602921,0.216663500003051,0.3329232999967644,37.027469635009766,37.027469635009766,0.0,,10.0
12,['2'],2,TMTstop-control_1_3linestimulus9.png,TMTstop-control_1_3greenlinestimulus9.png,TMTstop-control_1_3redlinestimulus9.png,TMT_Control,3,62,1.0,37.53514862060547,37.53514862060547,0.0,,1.0,1.0,0.0,2,3,1,2,-0.10898240000824444,-0.017232600002898835,0.14963399998669047,0.17865059999166988,37.53514862060547,37.53514862060547,0.0,,11.0
13,['3'],3,TMTstop-control_1_3linestimulus10.png,TMTstop-control_1_3greenlinestimulus10.png,TMTstop-control_1_3redlinestimulus10.png,TMT_Control,3,63,1.0,37.929813385009766,37.929813385009766,0.0,,1.0,1.0,0.0,3,-0.09035790000052657,37.929813385009766,37.929813385009766,0.0,,12.0
14,['2'],2,TMTstop-control_1_3linestimulus11.png,TMTstop-control_1_3greenlinestimulus11.png,TMTstop-control_1_3redlinestimulus11.png,TMT_Control,3,64,1.0,38.057308197021484,38.057308197021484,0.0,,1.0,1.0,0.0,1,2,-0.10880299999553245,-0.04103279999981169,38.057308197021484,38.057308197021484,0.0,,13.0
15,['1'],1,TMTstop-control_1_3linestimulus12.png,TMTstop-control_1_3greenlinestimulus12.png,TMTstop-control_1_3redlinestimulus12.png,TMT_Control,3,65,1.0,38.18439865112305,38.18439865112305,0.0,,1.0,1.0,0.0,3,1,-0.021060899991425686,0.1001760000071954,38.18439865112305,38.18439865112305,0.0,,14.0
16,['3'],3,TMTstop-control_1_3linestimulus13.png,TMTstop-control_1_3greenlinestimulus13.png,TMTstop-control_1_3redlinestimulus13.png,TMT_Control,3,66,1.0,38.4495735168457,38.4495735168457,0.0,,1.0,1.0,0.0,2,3,-0.10947219999798108,0.016541000004508533,38.4495735168457,38.4495735168457,0.0,,15.0
17,['1'],1,TMTstop-control_1_3linestimulus14.png,TMTstop-control_1_3greenlinestimulus14.png,TMTstop-control_1_3redlinestimulus14.png,TMT_Control,3,67,1.0,38.57658386230469,38.57658386230469,0.0,,1.0,1.0,0.0,1,-0.017915300006279722,38.57658386230469,38.57658386230469,0.0,,16.0
18,['3'],3,TMTstop-control_1_3linestimulus15.png,TMTstop-control_1_3greenlinestimulus15.png,TMTstop-control_1_3redlinestimulus15.png,TMT_Control,3,68,1.0,38.705074310302734,38.705074310302734,0.0,,1.0,1.0,0.0,2,3,-0.05056020000483841,0.04037149999930989,38.705074310302734,38.705074310302734,0.0,,17.0
19,['2'],2,TMTstop-control_1_3linestimulus16.png,TMTstop-control_1_3greenlinestimulus16.png,TMTstop-control_1_3redlinestimulus16.png,TMT_Control,3,69,1.0,38.82899856567383,38.82899856567383,0.0,,1.0,1.0,0.0,1,2,0.023239900008775294,0.10861599999770988,38.82899856567383,38.82899856567383,0.0,,18.0
20,['1'],1,TMTstop-control_1_3linestimulus17.png,TMTstop-control_1_3greenlinestimulus17.png,TMTstop-control_1_3redlinestimulus17.png,TMT_Control,3,70,1.0,39.08086395263672,39.08086395263672,0.0,,1.0,1.0,0.0,3,1,2,3,1,-0.06399680000322405,0.07265349999943282,0.12346590000379365,0.2325466000038432,0.35634879999270197,39.08086395263672,39.08086395263672,0.0,,19.0
21,['3'],3,TMTstop-control_1_3linestimulus18.png,TMTstop-control_1_3greenlinestimulus18.png,TMTstop-control_1_3redlinestimulus18.png,TMT_Control,3,71,1.0,39.62062072753906,39.62062072753906,0.0,,1.0,1.0,0.0,2,3,-0.09909290001087356,0.001412999990861863,39.62062072753906,39.62062072753906,0.0,,20.0
22,['2'],2,TMTstop-control_1_3linestimulus19.png,TMTstop-control_1_3greenlinestimulus19.png,TMTstop-control_1_3redlinestimulus19.png,TMT_Control,3,72,1.0,39.74949645996094,39.74949645996094,0.0,,1.0,1.0,0.0,1,2,0.02827840000099968,0.09419989999150857,39.74949645996094,39.74949645996094,0.0,,21.0
23,['3'],3,TMTstop-control_1_3linestimulus20.png,TMTstop-control_1_3greenlinestimulus20.png,TMTstop-control_1_3redlinestimulus20.png,TMT_Control,3,73,1.0,40.014244079589844,40.014244079589844,0.0,,1.0,1.0,0.0,3,-0.08128160001069773,40.014244079589844,40.014244079589844,0.0,,22.0
24,['1'],1,TMTstop-control_1_3linestimulus21.png,TMTstop-control_1_3greenlinestimulus21.png,TMTstop-control_1_3redlinestimulus21.png,TMT_Control,3,74,1.0,40.15571975708008,40.15571975708008,0.0,,1.0,1.0,0.0,1,2,3,1,2,3,1,2,3,2,1,-0.07534229999873787,-0.03744790000200737,0.09565620000648778,0.2326041000051191,0.2766020999988541,0.40188380000472534,0.5606669999979204,0.5744259000057355,0.7397177999955602,0.9591292999975849,1.0322238999942783,40.15571975708008,40.15571975708008,0.0,,23.0
25,['2'],2,TMTstop-control_1_3linestimulus22.png,TMTstop-control_1_3greenlinestimulus22.png,TMTstop-control_1_3redlinestimulus22.png,TMT_Control,3,75,1.0,41.328529357910156,41.328529357910156,0.0,,1.0,1.0,0.0,3,2,-0.03028200000699144,0.25110409999615513,41.328529357910156,41.328529357910156,0.0,,24.0
None,None,None,TMTstop-control_1_3linestimulus23.png,TMTstop-control_1_3greenlinestimulus23.png,TMTstop-control_1_3redlinestimulus23.png,TMT_Control,3,Feedback_last,1.0,41.718910217285156,41.718910217285156,0.0,,0.0,0.0,0.0,3,-0.026054500005557202,41.718910217285156,41.718910217285156,0.0,,25.0

extraInfo
participant,
session,001
date,2022_May_10_1109
expName,TMT_fmri
psychopyVersion,2021.2.3
frameRate,122.71384113973052
﻿NumberLetter,corrAns,Correct,StimFile,Correct_StimFile,False_StimFile,Version,Block,TrialNumber_session,n,Stim.started_mean,Stim.started_raw,Stim.started_std,Stim.stopped_raw,key_resp_2.corr_mean,key_resp_2.corr_raw,key_resp_2.corr_std,key_resp_2.keys_raw,key_resp_2.rt_raw,key_resp_2.started_mean,key_resp_2.started_raw,key_resp_2.started_std,key_resp_2.stopped_raw,order
1,['2'],2,TMTstop-control_1_4.png,TMTstop-control_1_4.png,TMTstop-control_1_4.png,TMT_Control,4,76,1.0,45.82549285888672,45.82549285888672,0.0,,1.0,1.0,0.0,1,2,3,1,2,0.6066414999950211,0.72680049999326,0.819014499997138,0.9909106999984942,1.0112761000054888,45.82549285888672,45.82549285888672,0.0,,0.0
2,['1'],1,TMTstop-control_1_4.png,TMTstop-control_1_4firstgreen.png,TMTstop-control_1_4firstred.png,TMT_Control,4,77,1.0,47.03845977783203,47.03845977783203,0.0,,1.0,1.0,0.0,3,1,-0.0531982000102289,0.06601840000075754,47.03845977783203,47.03845977783203,0.0,,1.0
3,['3'],3,TMTstop-control_1_4linestimulus0.png,TMTstop-control_1_4greenlinestimulus0.png,TMTstop-control_1_4redlinestimulus0.png,TMT_Control,4,78,1.0,47.30388641357422,47.30388641357422,0.0,,1.0,1.0,0.0,2,3,-0.09813159999612253,0.0020790999988093972,47.30388641357422,47.30388641357422,0.0,,2.0
4,['1'],1,TMTstop-control_1_4linestimulus1.png,TMTstop-control_1_4greenlinestimulus1.png,TMTstop-control_1_4redlinestimulus1.png,TMT_Control,4,79,1.0,47.445560455322266,47.445560455322266,0.0,,1.0,1.0,0.0,1,-0.01800830000138376,47.445560455322266,47.445560455322266,0.0,,3.0
5,['3'],3,TMTstop-control_1_4linestimulus2.png,TMTstop-control_1_4greenlinestimulus2.png,TMTstop-control_1_4redlinestimulus2.png,TMT_Control,4,80,1.0,47.58243179321289,47.58243179321289,0.0,,1.0,1.0,0.0,2,3,-0.10577509998984169,0.012656900013098493,47.58243179321289,47.58243179321289,0.0,,4.0
6,['1'],1,TMTstop-control_1_4linestimulus3.png,TMTstop-control_1_4greenlinestimulus3.png,TMTstop-control_1_4redlinestimulus3.png,TMT_Control,4,81,1.0,47.70805358886719,47.70805358886719,0.0,,1.0,1.0,0.0,1,0.015591999996104278,47.70805358886719,47.70805358886719,0.0,,5.0
7,['3'],3,TMTstop-control_1_4linestimulus4.png,TMTstop-control_1_4greenlinestimulus4.png,TMTstop-control_1_4redlinestimulus4.png,TMT_Control,4,82,1.0,47.83343505859375,47.83343505859375,0.0,,1.0,1.0,0.0,2,3,-0.0530566999950679,0.05949510000937153,47.83343505859375,47.83343505859375,0.0,,6.0
8,['1'],1,TMTstop-control_1_4linestimulus4.png,TMTstop-control_1_4greenlinestimulus5.png,TMTstop-control_1_4redlinestimulus5.png,TMT_Control,4,83,1.0,48.08795928955078,48.08795928955078,0.0,,1.0,1.0,0.0,1,-0.04720640000596177,48.08795928955078,48.08795928955078,0.0,,7.0
9,['3'],3,TMTstop-control_1_4linestimulus6.png,TMTstop-control_1_4greenlinestimulus6.png,TMTstop-control_1_4redlinestimulus6.png,TMT_Control,4,84,1.0,48.21620559692383,48.21620559692383,0.0,,1.0,1.0,0.0,2,3,-0.09718339999380987,0.018573000008473173,48.21620559692383,48.21620559692383,0.0,,8.0
10,['2'],2,TMTstop-control_1_4linestimulus7.png,TMTstop-control_1_4greenlinestimulus7.png,TMTstop-control_1_4redlinestimulus7.png,TMT_Control,4,85,1.0,48.344078063964844,48.344078063964844,0.0,,1.0,1.0,0.0,1,2,0.027690399991115555,0.15901509999821428,48.344078063964844,48.344078063964844,0.0,,9.0
11,['1'],1,TMTstop-control_1_4linestimulus8.png,TMTstop-control_1_4greenlinestimulus8.png,TMTstop-control_1_4redlinestimulus8.png,TMT_Control,4,86,1.0,48.65862274169922,48.65862274169922,0.0,,1.0,1.0,0.0,1,0.004625199988367967,48.65862274169922,48.65862274169922,0.0,,10.0
12,['3'],3,TMTstop-control_1_4linestimulus9.png,TMTstop-control_1_4greenlinestimulus9.png,TMTstop-control_1_4redlinestimulus9.png,TMT_Control,4,87,1.0,48.78641128540039,48.78641128540039,0.0,,1.0,1.0,0.0,3,0.09102170000551268,48.78641128540039,48.78641128540039,0.0,,11.0
13,['2'],2,TMTstop-control_1_4linestimulus10.png,TMTstop-control_1_4greenlinestimulus10.png,TMTstop-control_1_4redlinestimulus10.png,TMT_Control,4,88,1.0,49.05260467529297,49.05260467529297,0.0,,1.0,1.0,0.0,1,2,-0.033961399996769615,0.0651545000000624,49.05260467529297,49.05260467529297,0.0,,12.0
14,['3'],3,TMTstop-control_1_4linestimulus11.png,TMTstop-control_1_4greenlinestimulus11.png,TMTstop-control_1_4redlinestimulus11.png,TMT_Control,4,89,1.0,49.24452590942383,49.24452590942383,0.0,,1.0,1.0,0.0,3,-0.04787410001154058,49.24452590942383,49.24452590942383,0.0,,13.0
15,['2'],2,TMTstop-control_1_4linestimulus12.png,TMTstop-control_1_4greenlinestimulus12.png,TMTstop-control_1_4redlinestimulus12.png,TMT_Control,4,90,1.0,49.3725700378418,49.3725700378418,0.0,,1.0,1.0,0.0,1,2,-0.0238596000126563,0.0690347999916412,49.3725700378418,49.3725700378418,0.0,,14.0
16,['1'],1,TMTstop-control_1_4linestimulus13.png,TMTstop-control_1_4greenlinestimulus13.png,TMTstop-control_1_4redlinestimulus13.png,TMT_Control,4,91,1.0,49.638946533203125,49.638946533203125,0.0,,1.0,1.0,0.0,3,1,-0.09991900000022724,0.06554909999249503,49.638946533203125,49.638946533203125,0.0,,15.0
17,['3'],3,TMTstop-control_1_4linestimulus14.png,TMTstop-control_1_4greenlinestimulus14.png,TMTstop-control_1_4redlinestimulus14.png,TMT_Control,4,92,1.0,49.84157180786133,49.84157180786133,0.0,,1.0,1.0,0.0,2,3,-0.05709000000206288,0.02922390001185704,49.84157180786133,49.84157180786133,0.0,,16.0
18,['1'],1,TMTstop-control_1_4linestimulus15.png,TMTstop-control_1_4greenlinestimulus15.png,TMTstop-control_1_4redlinestimulus15.png,TMT_Control,4,93,1.0,49.98313903808594,49.98313903808594,0.0,,1.0,1.0,0.0,1,0.04330639999534469,49.98313903808594,49.98313903808594,0.0,,17.0
19,['2'],2,TMTstop-control_1_4linestimulus16.png,TMTstop-control_1_4greenlinestimulus16.png,TMTstop-control_1_4redlinestimulus16.png,TMT_Control,4,94,1.0,50.12447738647461,50.12447738647461,0.0,,1.0,1.0,0.0,2,-0.0017466999997850507,50.12447738647461,50.12447738647461,0.0,,18.0
20,['1'],1,TMTstop-control_1_4linestimulus17.png,TMTstop-control_1_4greenlinestimulus17.png,TMTstop-control_1_4redlinestimulus17.png,TMT_Control,4,95,1.0,50.25121307373047,50.25121307373047,0.0,,1.0,1.0,0.0,3,1,-0.01745159999700263,0.10216080000100192,50.25121307373047,50.25121307373047,0.0,,19.0
21,['2'],2,TMTstop-control_1_4linestimulus18.png,TMTstop-control_1_4greenlinestimulus18.png,TMTstop-control_1_4redlinestimulus18.png,TMT_Control,4,96,1.0,50.51918411254883,50.51918411254883,0.0,,1.0,1.0,0.0,1,2,0.16262669999559876,0.2349363999965135,50.51918411254883,50.51918411254883,0.0,,20.0
22,['1'],1,TMTstop-control_1_4linestimulus19.png,TMTstop-control_1_4greenlinestimulus19.png,TMTstop-control_1_4redlinestimulus19.png,TMT_Control,4,97,1.0,50.92141342163086,50.92141342163086,0.0,,1.0,1.0,0.0,3,1,-0.0658399000094505,0.047207600000547245,50.92141342163086,50.92141342163086,0.0,,21.0
23,['2'],2,TMTstop-control_1_4linestimulus20.png,TMTstop-control_1_4greenlinestimulus20.png,TMTstop-control_1_4redlinestimulus20.png,TMT_Control,4,98,1.0,51.04650115966797,51.04650115966797,0.0,,1.0,1.0,0.0,2,0.02237389999208972,51.04650115966797,51.04650115966797,0.0,,22.0
24,['1'],1,TMTstop-control_1_4linestimulus21.png,TMTstop-control_1_4greenlinestimulus21.png,TMTstop-control_1_4redlinestimulus21.png,TMT_Control,4,99,1.0,51.186927795410156,51.186927795410156,0.0,,1.0,1.0,0.0,3,1,-0.04220250000071246,0.12238109999452718,51.186927795410156,51.186927795410156,0.0,,23.0
25,['2'],2,TMTstop-control_1_4linestimulus22.png,TMTstop-control_1_4greenlinestimulus22.png,TMTstop-control_1_4redlinestimulus22.png,TMT_Control,4,100,1.0,51.451419830322266,51.451419830322266,0.0,,1.0,1.0,0.0,2,-0.04313639999600127,51.451419830322266,51.451419830322266,0.0,,24.0
None,None,None,TMTstop-control_1_4linestimulus23.png,TMTstop-control_1_4greenlinestimulus23.png,TMTstop-control_1_4redlinestimulus23.png,TMT_Control,4,Feedback_last,1.0,51.578330993652344,51.578330993652344,0.0,,0.0,0.0,0.0,3,1,2,3,-0.09949040001083631,0.00969029999396298,0.07376689999364316,0.22944079998706002,51.578330993652344,51.578330993652344,0.0,,25.0

extraInfo
participant,
session,001
date,2022_May_10_1109
expName,TMT_fmri
psychopyVersion,2021.2.3
frameRate,122.71384113973052
