Block_file,Condition_rows,NumberLetter,corrAns,Correct,StimFile,Correct_StimFile,False_StimFile,Version,Block,TrialNumber_session,Blocks_TMTControl.thisRepN,Blocks_TMTControl.thisTrialN,Blocks_TMTControl.thisN,Blocks_TMTControl.thisIndex,Blocks_TMTA.thisRepN,Blocks_TMTA.thisTrialN,Blocks_TMTA.thisN,Blocks_TMTA.thisIndex,Blocks_TMTB.thisRepN,Blocks_TMTB.thisTrialN,Blocks_TMTB.thisN,Blocks_TMTB.thisIndex,trials_TMTB.thisRepN,trials_TMTB.thisTrialN,trials_TMTB.thisN,trials_TMTB.thisIndex,key_resp_7.keys,key_resp_7.rt,key_resp_7.started,key_resp_7.stopped,polygon_2.started,polygon_2.stopped,Attempts,First_attempt,Stim.started,Stim.stopped,key_resp_2.keys,key_resp_2.corr,key_resp_2.rt,key_resp_2.started,key_resp_2.stopped,participant,session,date,expName,psychopyVersion,frameRate,
,,,,,,,,,,,,,,,,,,,,,,,,,,,s,3.235613299999386,13.001928099998622,None,,,,,,,,,,,,,001,2022_May_10_0928,TMT_fmri,2021.2.3,None,
TMTstop-B_1_1.xlsx,0:26,1,['3'],3,TMTstop-B_1_1.png,TMTstop-B_1_1.png,TMTstop-B_1_1.png,TMT_B,1,1,,,,,,,,,0,0,0,0,0,0,0,0,,,,,13.001928099998622,None,3,0,36.50992489999044,None,"['2', '2', '3']",1,"[-19.647000400000252, -16.628814700001385, -13.76388759999827]",36.50992489999044,None,,001,2022_May_10_0928,TMT_fmri,2021.2.3,None,
TMTstop-B_1_1.xlsx,0:26,A,['1'],1,TMTstop-B_1_1.png,TMTstop-B_1_1firstgreen.png,TMTstop-B_1_1firstred.png,TMT_B,1,2,,,,,,,,,0,0,0,0,0,1,1,1,,,,,,,3,0,36.64505319998716,None,"['3', '3', '1']",1,"[6.468497599998955, 10.309610299998894, 11.346144300012384]",36.64505319998716,None,,001,2022_May_10_0928,TMT_fmri,2021.2.3,None,
TMTstop-B_1_1.xlsx,0:26,2,['3'],3,TMTstop-B_1_1linestimulus0.png,TMTstop-B_1_1greenlinestimulus0.png,TMTstop-B_1_1redlinestimulus0.png,TMT_B,1,3,,,,,,,,,0,0,0,0,0,2,2,2,,,,,,,1,1,48.08347689999209,None,['3'],1,[2.7695345999964047],48.08347689999209,None,,001,2022_May_10_0928,TMT_fmri,2021.2.3,None,
TMTstop-B_1_1.xlsx,0:26,B,['2'],2,TMTstop-B_1_1linestimulus1.png,TMTstop-B_1_1greenlinestimulus1.png,TMTstop-B_1_1redlinestimulus1.png,TMT_B,1,4,,,,,,,,,0,0,0,0,0,3,3,3,,,,,,,1,1,51.04844889999367,None,['2'],1,[1.815270999999484],51.04844889999367,None,,001,2022_May_10_0928,TMT_fmri,2021.2.3,None,
TMTstop-B_1_1.xlsx,0:26,3,['1'],1,TMTstop-B_1_1linestimulus2.png,TMTstop-B_1_1greenlinestimulus2.png,TMTstop-B_1_1redlinestimulus2.png,TMT_B,1,5,,,,,,,,,0,0,0,0,0,4,4,4,,,,,,,1,1,52.975295299998834,None,['1'],1,[2.0472330000047805],52.975295299998834,None,,001,2022_May_10_0928,TMT_fmri,2021.2.3,None,
TMTstop-B_1_1.xlsx,0:26,C,['3'],3,TMTstop-B_1_1linestimulus3.png,TMTstop-B_1_1greenlinestimulus3.png,TMTstop-B_1_1redlinestimulus3.png,TMT_B,1,6,,,,,,,,,0,0,0,0,0,5,5,5,,,,,,,1,1,55.18705809999665,None,['3'],1,[1.7270420999993803],55.18705809999665,None,,001,2022_May_10_0928,TMT_fmri,2021.2.3,None,
TMTstop-B_1_1.xlsx,0:26,4,['2'],2,TMTstop-B_1_1linestimulus4.png,TMTstop-B_1_1greenlinestimulus4.png,TMTstop-B_1_1redlinestimulus4.png,TMT_B,1,7,,,,,,,,,0,0,0,0,0,6,6,6,,,,,,,4,0,57.000048699992476,None,"['3', '3', '1', '2']",1,"[3.425176399992779, 6.960720999995829, 7.601071699988097, 8.261307699998724]",57.000048699992476,None,,001,2022_May_10_0928,TMT_fmri,2021.2.3,None,
TMTstop-B_1_1.xlsx,0:26,D,['1'],1,TMTstop-B_1_1linestimulus5.png,TMTstop-B_1_1greenlinestimulus5.png,TMTstop-B_1_1redlinestimulus5.png,TMT_B,1,8,,,,,,,,,0,0,0,0,0,7,7,7,,,,,,,1,1,65.4030778999877,None,['1'],1,[9.631194100002176],65.4030778999877,None,,001,2022_May_10_0928,TMT_fmri,2021.2.3,None,
TMTstop-B_1_1.xlsx,0:26,5,['3'],3,TMTstop-B_1_1linestimulus6.png,TMTstop-B_1_1greenlinestimulus6.png,TMTstop-B_1_1redlinestimulus6.png,TMT_B,1,9,,,,,,,,,0,0,0,0,0,8,8,8,,,,,,,1,1,75.18419069999072,None,['3'],1,[2.891735199998948],75.18419069999072,None,,001,2022_May_10_0928,TMT_fmri,2021.2.3,None,
TMTstop-B_1_1.xlsx,0:26,E,['1'],1,TMTstop-B_1_1linestimulus7.png,TMTstop-B_1_1greenlinestimulus7.png,TMTstop-B_1_1redlinestimulus7.png,TMT_B,1,10,,,,,,,,,0,0,0,0,0,9,9,9,,,,,,,1,1,78.23803399999451,None,['1'],1,[2.0054691999976058],78.23803399999451,None,,001,2022_May_10_0928,TMT_fmri,2021.2.3,None,
TMTstop-B_1_1.xlsx,0:26,6,['3'],3,TMTstop-B_1_1linestimulus8.png,TMTstop-B_1_1greenlinestimulus8.png,TMTstop-B_1_1redlinestimulus8.png,TMT_B,1,11,,,,,,,,,0,0,0,0,0,10,10,10,,,,,,,1,1,80.33326759999909,None,['3'],1,[0.9880732000019634],80.33326759999909,None,,001,2022_May_10_0928,TMT_fmri,2021.2.3,None,
TMTstop-B_1_1.xlsx,0:26,F,['1'],1,TMTstop-B_1_1linestimulus9.png,TMTstop-B_1_1greenlinestimulus9.png,TMTstop-B_1_1redlinestimulus9.png,TMT_B,1,12,,,,,,,,,0,0,0,0,0,11,11,11,,,,,,,1,1,81.42366899999615,None,['1'],1,[0.8097606999945128],81.42366899999615,None,,001,2022_May_10_0928,TMT_fmri,2021.2.3,None,
TMTstop-B_1_1.xlsx,0:26,7,['3'],3,TMTstop-B_1_1linestimulus10.png,TMTstop-B_1_1greenlinestimulus10.png,TMTstop-B_1_1redlinestimulus10.png,TMT_B,1,13,,,,,,,,,0,0,0,0,0,12,12,12,,,,,,,1,1,82.3612262999959,None,['3'],1,[3.5105404000059934],82.3612262999959,None,,001,2022_May_10_0928,TMT_fmri,2021.2.3,None,
TMTstop-B_1_1.xlsx,0:26,G,['2'],2,TMTstop-B_1_1linestimulus11.png,TMTstop-B_1_1greenlinestimulus11.png,TMTstop-B_1_1redlinestimulus11.png,TMT_B,1,14,,,,,,,,,0,0,0,0,0,13,13,13,,,,,,,1,1,86.02637429999595,None,['2'],1,[1.268731399992248],86.02637429999595,None,,001,2022_May_10_0928,TMT_fmri,2021.2.3,None,
TMTstop-B_1_1.xlsx,0:26,8,['3'],3,TMTstop-B_1_1linestimulus12.png,TMTstop-B_1_1greenlinestimulus12.png,TMTstop-B_1_1redlinestimulus12.png,TMT_B,1,15,,,,,,,,,0,0,0,0,0,14,14,14,,,,,,,1,1,87.46726039999339,None,['3'],1,[1.9324895000027027],87.46726039999339,None,,001,2022_May_10_0928,TMT_fmri,2021.2.3,None,
TMTstop-B_1_1.xlsx,0:26,H,['1'],1,TMTstop-B_1_1linestimulus13.png,TMTstop-B_1_1greenlinestimulus13.png,TMTstop-B_1_1redlinestimulus13.png,TMT_B,1,16,,,,,,,,,0,0,0,0,0,15,15,15,,,,,,,1,1,89.49636900000041,None,['1'],1,[0.7740206000016769],89.49636900000041,None,,001,2022_May_10_0928,TMT_fmri,2021.2.3,None,
TMTstop-B_1_1.xlsx,0:26,9,['3'],3,TMTstop-B_1_1linestimulus14.png,TMTstop-B_1_1greenlinestimulus14.png,TMTstop-B_1_1redlinestimulus14.png,TMT_B,1,17,,,,,,,,,0,0,0,0,0,16,16,16,,,,,,,1,1,90.45190609998826,None,['3'],1,[0.8166806999943219],90.45190609998826,None,,001,2022_May_10_0928,TMT_fmri,2021.2.3,None,
TMTstop-B_1_1.xlsx,0:26,I,['2'],2,TMTstop-B_1_1linestimulus15.png,TMTstop-B_1_1greenlinestimulus15.png,TMTstop-B_1_1redlinestimulus15.png,TMT_B,1,18,,,,,,,,,0,0,0,0,0,17,17,17,,,,,,,1,1,91.37502399999357,None,['2'],1,[0.8773936000070535],91.37502399999357,None,,001,2022_May_10_0928,TMT_fmri,2021.2.3,None,
TMTstop-B_1_1.xlsx,0:26,10,['3'],3,TMTstop-B_1_1linestimulus16.png,TMTstop-B_1_1greenlinestimulus16.png,TMTstop-B_1_1redlinestimulus16.png,TMT_B,1,19,,,,,,,,,0,0,0,0,0,18,18,18,,,,,,,1,1,92.37618870000006,None,['3'],1,[0.7818179999885615],92.37618870000006,None,,001,2022_May_10_0928,TMT_fmri,2021.2.3,None,
TMTstop-B_1_1.xlsx,0:26,J,['2'],2,TMTstop-B_1_1linestimulus17.png,TMTstop-B_1_1greenlinestimulus17.png,TMTstop-B_1_1redlinestimulus17.png,TMT_B,1,20,,,,,,,,,0,0,0,0,0,19,19,19,,,,,,,1,1,93.30157729999337,None,['2'],1,[0.5977827000024263],93.30157729999337,None,,001,2022_May_10_0928,TMT_fmri,2021.2.3,None,
TMTstop-B_1_1.xlsx,0:26,11,['1'],1,TMTstop-B_1_1linestimulus18.png,TMTstop-B_1_1greenlinestimulus18.png,TMTstop-B_1_1redlinestimulus18.png,TMT_B,1,21,,,,,,,,,0,0,0,0,0,20,20,20,,,,,,,1,1,94.10062389999803,None,['1'],1,[0.9823868999956176],94.10062389999803,None,,001,2022_May_10_0928,TMT_fmri,2021.2.3,None,
TMTstop-B_1_1.xlsx,0:26,K,['2'],2,TMTstop-B_1_1linestimulus19.png,TMTstop-B_1_1greenlinestimulus19.png,TMTstop-B_1_1redlinestimulus19.png,TMT_B,1,22,,,,,,,,,0,0,0,0,0,21,21,21,,,,,,,1,1,95.16514449998795,None,['2'],1,[0.42406069999560714],95.16514449998795,None,,001,2022_May_10_0928,TMT_fmri,2021.2.3,None,
TMTstop-B_1_1.xlsx,0:26,12,['1'],1,TMTstop-B_1_1linestimulus20.png,TMTstop-B_1_1greenlinestimulus20.png,TMTstop-B_1_1redlinestimulus20.png,TMT_B,1,23,,,,,,,,,0,0,0,0,0,22,22,22,,,,,,,1,1,95.69808439999179,None,['1'],1,[3.7523364999942714],95.69808439999179,None,,001,2022_May_10_0928,TMT_fmri,2021.2.3,None,
TMTstop-B_1_1.xlsx,0:26,L,['2'],2,TMTstop-B_1_1linestimulus21.png,TMTstop-B_1_1greenlinestimulus21.png,TMTstop-B_1_1redlinestimulus21.png,TMT_B,1,24,,,,,,,,,0,0,0,0,0,23,23,23,,,,,,,1,1,99.54499409999698,None,['2'],1,[0.3755016000068281],99.54499409999698,None,,001,2022_May_10_0928,TMT_fmri,2021.2.3,None,
TMTstop-B_1_1.xlsx,0:26,13,['1'],1,TMTstop-B_1_1linestimulus22.png,TMTstop-B_1_1greenlinestimulus22.png,TMTstop-B_1_1redlinestimulus22.png,TMT_B,1,25,,,,,,,,,0,0,0,0,0,24,24,24,,,,,,,1,1,100.07569299999159,None,['1'],1,[0.7603841999953147],100.07569299999159,None,,001,2022_May_10_0928,TMT_fmri,2021.2.3,None,
TMTstop-B_1_1.xlsx,0:26,None,None,None,TMTstop-B_1_1linestimulus23.png,TMTstop-B_1_1greenlinestimulus23.png,TMTstop-B_1_1redlinestimulus23.png,TMT_B,1,Feedback_last,,,,,,,,,0,0,0,0,0,25,25,25,,,,,,,0,0,101.04222389998904,None,None,1,,101.04222389998904,None,,001,2022_May_10_0928,TMT_fmri,2021.2.3,None,
TMTstop-B_1_2.xlsx,26:52,1,['2'],1,TMTstop-B_1_2.png,TMTstop-B_1_2.png,TMTstop-B_1_2.png,TMT_B,2,26,,,,,,,,,0,1,1,1,0,0,0,0,,,,,,,3,0,105.17559249998885,None,"['1', '3', '2']",1,"[1.8683911000116495, 5.360276799998246, 5.957392600001185]",105.17559249998885,None,,001,2022_May_10_0928,TMT_fmri,2021.2.3,None,
TMTstop-B_1_2.xlsx,26:52,A,['3'],2,TMTstop-B_1_2.png,TMTstop-B_1_2firstgreen.png,TMTstop-B_1_2firstred.png,TMT_B,2,27,,,,,,,,,0,1,1,1,0,1,1,1,,,,,,,3,0,111.27544889999263,None,"['2', '1', '3']",1,"[7.8856008000002475, 10.159380700002657, 11.422646999999415]",111.27544889999263,None,,001,2022_May_10_0928,TMT_fmri,2021.2.3,None,
TMTstop-B_1_2.xlsx,26:52,2,['1'],1,TMTstop-B_1_2linestimulus0.png,TMTstop-B_1_2greenlinestimulus0.png,TMTstop-B_1_2redlinestimulus0.png,TMT_B,2,28,,,,,,,,,0,1,1,1,0,2,2,2,,,,,,,1,1,122.87545389999286,None,['1'],1,[4.206788099996629],122.87545389999286,None,,001,2022_May_10_0928,TMT_fmri,2021.2.3,None,
TMTstop-B_1_2.xlsx,26:52,B,['2'],2,TMTstop-B_1_2linestimulus1.png,TMTstop-B_1_2greenlinestimulus1.png,TMTstop-B_1_2redlinestimulus1.png,TMT_B,2,29,,,,,,,,,0,1,1,1,0,3,3,3,,,,,,,1,1,127.19485949999944,None,['2'],1,[5.020066199998837],127.19485949999944,None,,001,2022_May_10_0928,TMT_fmri,2021.2.3,None,
TMTstop-B_1_2.xlsx,26:52,3,['3'],1,TMTstop-B_1_2linestimulus2.png,TMTstop-B_1_2greenlinestimulus2.png,TMTstop-B_1_2redlinestimulus2.png,TMT_B,2,30,,,,,,,,,0,1,1,1,0,4,4,4,,,,,,,2,0,132.39608459999727,None,"['1', '3']",1,"[1.3988490000047022, 4.554291200009175]",132.39608459999727,None,,001,2022_May_10_0928,TMT_fmri,2021.2.3,None,
,,,,,,,,,,,,,,,,,,,,,,,,,,,,,,,,,0,0,,,,,,,,,,,,,,
