NumberLetter,corrAns,Correct,StimFile,Correct_StimFile,False_StimFile,Version,Block,TrialNumber_session,n,Stim.started_mean,Stim.started_raw,Stim.started_std,Stim.stopped_raw,key_resp_2.corr_mean,key_resp_2.corr_raw,key_resp_2.corr_std,key_resp_2.keys_raw,key_resp_2.rt_raw,key_resp_2.started_mean,key_resp_2.started_raw,key_resp_2.started_std,key_resp_2.stopped_raw,order
1,['2'],2,TMTstop-control_1_1.png,TMTstop-control_1_1.png,TMTstop-control_1_1.png,TMT_Control,1,1,1.0,12.939032554626465,12.939032554626465,0.0,,1.0,1.0,0.0,1,2,0.6099985000037123,0.7339021999941906,12.939032554626465,12.939032554626465,0.0,,0.0
2,['1'],1,TMTstop-control_1_1.png,TMTstop-control_1_1firstgreen.png,TMTstop-control_1_1firstred.png,TMT_Control,1,2,1.0,13.805537223815918,13.805537223815918,0.0,,1.0,1.0,0.0,3,1,0.03509370000392664,0.1265214000013657,13.805537223815918,13.805537223815918,0.0,,1.0
3,['3'],3,TMTstop-control_1_1linestimulus0.png,TMTstop-control_1_1greenlinestimulus0.png,TMTstop-control_1_1redlinestimulus0.png,TMT_Control,1,3,1.0,14.12630558013916,14.12630558013916,0.0,,1.0,1.0,0.0,2,3,-0.1237952000083169,-0.006750400003511459,14.12630558013916,14.12630558013916,0.0,,2.0
4,['1'],1,TMTstop-control_1_1linestimulus1.png,TMTstop-control_1_1greenlinestimulus1.png,TMTstop-control_1_1redlinestimulus1.png,TMT_Control,1,4,1.0,14.26806354522705,14.26806354522705,0.0,,1.0,1.0,0.0,1,-0.024996000007377006,14.26806354522705,14.26806354522705,0.0,,3.0
5,['3'],3,TMTstop-control_1_1linestimulus2.png,TMTstop-control_1_1greenlinestimulus2.png,TMTstop-control_1_1redlinestimulus2.png,TMT_Control,1,5,1.0,14.407776832580566,14.407776832580566,0.0,,1.0,1.0,0.0,2,3,-0.09956059999240097,0.0030107000056887046,14.407776832580566,14.407776832580566,0.0,,4.0
6,['1'],1,TMTstop-control_1_1linestimulus3.png,TMTstop-control_1_1greenlinestimulus3.png,TMTstop-control_1_1redlinestimulus3.png,TMT_Control,1,6,1.0,14.547311782836914,14.547311782836914,0.0,,1.0,1.0,0.0,1,-0.024014099995838478,14.547311782836914,14.547311782836914,0.0,,5.0
7,['2'],2,TMTstop-control_1_1linestimulus4.png,TMTstop-control_1_1greenlinestimulus4.png,TMTstop-control_1_1redlinestimulus4.png,TMT_Control,1,7,1.0,14.682751655578613,14.682751655578613,0.0,,1.0,1.0,0.0,2,-0.08254829999350477,14.682751655578613,14.682751655578613,0.0,,6.0
8,['1'],1,TMTstop-control_1_1linestimulus4.png,TMTstop-control_1_1greenlinestimulus5.png,TMTstop-control_1_1redlinestimulus5.png,TMT_Control,1,8,1.0,14.81839656829834,14.81839656829834,0.0,,1.0,1.0,0.0,3,1,-0.12422140000853688,0.010895200000959449,14.81839656829834,14.81839656829834,0.0,,7.0
9,['3'],3,TMTstop-control_1_1linestimulus6.png,TMTstop-control_1_1greenlinestimulus6.png,TMTstop-control_1_1redlinestimulus6.png,TMT_Control,1,9,1.0,14.967838287353516,14.967838287353516,0.0,,1.0,1.0,0.0,2,3,-0.050061199988704175,0.057049400013056584,14.967838287353516,14.967838287353516,0.0,,8.0
10,['2'],2,TMTstop-control_1_1linestimulus7.png,TMTstop-control_1_1greenlinestimulus7.png,TMTstop-control_1_1redlinestimulus7.png,TMT_Control,1,10,1.0,15.226055145263672,15.226055145263672,0.0,,1.0,1.0,0.0,1,2,-0.08343859999149572,0.0121653999958653,15.226055145263672,15.226055145263672,0.0,,9.0
11,['1'],1,TMTstop-control_1_1linestimulus8.png,TMTstop-control_1_1greenlinestimulus8.png,TMTstop-control_1_1redlinestimulus8.png,TMT_Control,1,11,1.0,15.36771011352539,15.36771011352539,0.0,,1.0,1.0,0.0,3,1,-0.029579100009868853,0.0894006000016816,15.36771011352539,15.36771011352539,0.0,,10.0
12,['2'],2,TMTstop-control_1_1linestimulus9.png,TMTstop-control_1_1greenlinestimulus9.png,TMTstop-control_1_1redlinestimulus9.png,TMT_Control,1,12,1.0,15.643879890441895,15.643879890441895,0.0,,1.0,1.0,0.0,2,-0.012721400009468198,15.643879890441895,15.643879890441895,0.0,,11.0
13,['3'],3,TMTstop-control_1_1linestimulus10.png,TMTstop-control_1_1greenlinestimulus10.png,TMTstop-control_1_1redlinestimulus10.png,TMT_Control,1,13,1.0,15.781482696533203,15.781482696533203,0.0,,1.0,1.0,0.0,3,-0.12093649999587797,15.781482696533203,15.781482696533203,0.0,,12.0
14,['2'],2,TMTstop-control_1_1linestimulus11.png,TMTstop-control_1_1greenlinestimulus11.png,TMTstop-control_1_1redlinestimulus11.png,TMT_Control,1,14,1.0,15.916773796081543,15.916773796081543,0.0,,1.0,1.0,0.0,1,2,0.12599870000849478,0.19475490000331774,15.916773796081543,15.916773796081543,0.0,,13.0
15,['3'],3,TMTstop-control_1_1linestimulus12.png,TMTstop-control_1_1greenlinestimulus12.png,TMTstop-control_1_1redlinestimulus12.png,TMT_Control,1,15,1.0,16.33881187438965,16.33881187438965,0.0,,1.0,1.0,0.0,3,-0.10819169999740552,16.33881187438965,16.33881187438965,0.0,,14.0
16,['2'],2,TMTstop-control_1_1linestimulus13.png,TMTstop-control_1_1greenlinestimulus13.png,TMTstop-control_1_1redlinestimulus13.png,TMT_Control,1,16,1.0,16.476835250854492,16.476835250854492,0.0,,1.0,1.0,0.0,1,2,-0.11588409999967553,-0.04689990000042599,16.476835250854492,16.476835250854492,0.0,,15.0
17,['3'],3,TMTstop-control_1_1linestimulus14.png,TMTstop-control_1_1greenlinestimulus14.png,TMTstop-control_1_1redlinestimulus14.png,TMT_Control,1,17,1.0,16.61435890197754,16.61435890197754,0.0,,1.0,1.0,0.0,3,-0.06867520000378136,16.61435890197754,16.61435890197754,0.0,,16.0
18,['2'],2,TMTstop-control_1_1linestimulus15.png,TMTstop-control_1_1greenlinestimulus15.png,TMTstop-control_1_1redlinestimulus15.png,TMT_Control,1,18,1.0,16.75206184387207,16.75206184387207,0.0,,1.0,1.0,0.0,1,2,-0.08821979998901952,-0.008121499995468184,16.75206184387207,16.75206184387207,0.0,,17.0
19,['1'],1,TMTstop-control_1_1linestimulus16.png,TMTstop-control_1_1greenlinestimulus16.png,TMTstop-control_1_1redlinestimulus16.png,TMT_Control,1,19,1.0,16.889373779296875,16.889373779296875,0.0,,1.0,1.0,0.0,1,0.20976699999300763,16.889373779296875,16.889373779296875,0.0,,18.0
20,['3'],3,TMTstop-control_1_1linestimulus17.png,TMTstop-control_1_1greenlinestimulus17.png,TMTstop-control_1_1redlinestimulus17.png,TMT_Control,1,20,1.0,17.3098201751709,17.3098201751709,0.0,,1.0,1.0,0.0,2,3,0.021139799995580688,0.1568390000029467,17.3098201751709,17.3098201751709,0.0,,19.0
21,['1'],1,TMTstop-control_1_1linestimulus18.png,TMTstop-control_1_1greenlinestimulus18.png,TMTstop-control_1_1redlinestimulus18.png,TMT_Control,1,21,1.0,17.593637466430664,17.593637466430664,0.0,,1.0,1.0,0.0,1,-0.03326989999914076,17.593637466430664,17.593637466430664,0.0,,20.0
22,['2'],2,TMTstop-control_1_1linestimulus19.png,TMTstop-control_1_1greenlinestimulus19.png,TMTstop-control_1_1redlinestimulus19.png,TMT_Control,1,22,1.0,17.727922439575195,17.727922439575195,0.0,,1.0,1.0,0.0,2,-0.03396220000286121,17.727922439575195,17.727922439575195,0.0,,21.0
23,['3'],3,TMTstop-control_1_1linestimulus20.png,TMTstop-control_1_1greenlinestimulus20.png,TMTstop-control_1_1redlinestimulus20.png,TMT_Control,1,23,1.0,17.87012481689453,17.87012481689453,0.0,,1.0,1.0,0.0,3,-0.08510759999626316,17.87012481689453,17.87012481689453,0.0,,22.0
24,['2'],2,TMTstop-control_1_1linestimulus21.png,TMTstop-control_1_1greenlinestimulus21.png,TMTstop-control_1_1redlinestimulus21.png,TMT_Control,1,24,1.0,17.997331619262695,17.997331619262695,0.0,,1.0,1.0,0.0,1,2,-0.07178759999806061,-0.006976499993470497,17.997331619262695,17.997331619262695,0.0,,23.0
25,['1'],1,TMTstop-control_1_1linestimulus22.png,TMTstop-control_1_1greenlinestimulus22.png,TMTstop-control_1_1redlinestimulus22.png,TMT_Control,1,25,1.0,18.124906539916992,18.124906539916992,0.0,,1.0,1.0,0.0,3,1,-0.010272599989548326,0.11206310000852682,18.124906539916992,18.124906539916992,0.0,,24.0
None,None,None,TMTstop-control_1_1linestimulus23.png,TMTstop-control_1_1greenlinestimulus23.png,TMTstop-control_1_1redlinestimulus23.png,TMT_Control,1,Feedback_last,1.0,18.385095596313477,18.385095596313477,0.0,,0.0,0.0,0.0,2,3,-0.08420110000588465,0.029891300000599585,18.385095596313477,18.385095596313477,0.0,,25.0

extraInfo
participant,
session,001
date,2022_May_10_1100
expName,TMT_fmri
psychopyVersion,2021.2.3
frameRate,None
﻿NumberLetter,corrAns,Correct,StimFile,Correct_StimFile,False_StimFile,Version,Block,TrialNumber_session,n,Stim.started_mean,Stim.started_raw,Stim.started_std,Stim.stopped_raw,key_resp_2.corr_mean,key_resp_2.corr_raw,key_resp_2.corr_std,key_resp_2.keys_raw,key_resp_2.rt_raw,key_resp_2.started_mean,key_resp_2.started_raw,key_resp_2.started_std,key_resp_2.stopped_raw,order
1,['2'],2,TMTstop-control_1_2.png,TMTstop-control_1_2.png,TMTstop-control_1_2.png,TMT_Control,2,26,1.0,22.519418716430664,22.519418716430664,0.0,,1.0,1.0,0.0,1,2,0.5784511000092607,0.6780460000009043,22.519418716430664,22.519418716430664,0.0,,0.0
2,['3'],3,TMTstop-control_1_2.png,TMTstop-control_1_2firstgreen.png,TMTstop-control_1_2firstred.png,TMT_Control,2,27,1.0,23.32615852355957,23.32615852355957,0.0,,1.0,1.0,0.0,3,-0.02655419999791775,23.32615852355957,23.32615852355957,0.0,,1.0
3,['2'],2,TMTstop-control_1_2linestimulus0.png,TMTstop-control_1_2greenlinestimulus0.png,TMTstop-control_1_2redlinestimulus0.png,TMT_Control,2,28,1.0,23.457815170288086,23.457815170288086,0.0,,1.0,1.0,0.0,1,2,0.007345400008489378,0.08015780001005623,23.457815170288086,23.457815170288086,0.0,,2.0
4,['3'],3,TMTstop-control_1_2linestimulus1.png,TMTstop-control_1_2greenlinestimulus1.png,TMTstop-control_1_2redlinestimulus1.png,TMT_Control,2,29,1.0,23.733720779418945,23.733720779418945,0.0,,1.0,1.0,0.0,3,-0.09103029999823775,23.733720779418945,23.733720779418945,0.0,,3.0
5,['2'],2,TMTstop-control_1_2linestimulus2.png,TMTstop-control_1_2greenlinestimulus2.png,TMTstop-control_1_2redlinestimulus2.png,TMT_Control,2,30,1.0,23.87236785888672,23.87236785888672,0.0,,1.0,1.0,0.0,1,2,-0.10158220000448637,-0.03199819999281317,23.87236785888672,23.87236785888672,0.0,,4.0
6,['3'],3,TMTstop-control_1_2linestimulus3.png,TMTstop-control_1_2greenlinestimulus3.png,TMTstop-control_1_2redlinestimulus3.png,TMT_Control,2,31,1.0,23.99881362915039,23.99881362915039,0.0,,1.0,1.0,0.0,3,-0.0021656999888364226,23.99881362915039,23.99881362915039,0.0,,5.0
7,['2'],2,TMTstop-control_1_2linestimulus4.png,TMTstop-control_1_2greenlinestimulus4.png,TMTstop-control_1_2redlinestimulus4.png,TMT_Control,2,32,1.0,24.13939094543457,24.13939094543457,0.0,,1.0,1.0,0.0,1,2,-0.0011754000006476417,0.0910345000011148,24.13939094543457,24.13939094543457,0.0,,6.0
8,['1'],1,TMTstop-control_1_2linestimulus4.png,TMTstop-control_1_2greenlinestimulus5.png,TMTstop-control_1_2redlinestimulus5.png,TMT_Control,2,33,1.0,24.404495239257812,24.404495239257812,0.0,,1.0,1.0,0.0,3,1,0.05450080000446178,0.0758817000023555,24.404495239257812,24.404495239257812,0.0,,7.0
9,['3'],3,TMTstop-control_1_2linestimulus6.png,TMTstop-control_1_2greenlinestimulus6.png,TMTstop-control_1_2redlinestimulus6.png,TMT_Control,2,34,1.0,24.68097686767578,24.68097686767578,0.0,,1.0,1.0,0.0,1,2,3,0.06653590001224075,0.10401650000130758,0.28270640000118874,24.68097686767578,24.68097686767578,0.0,,8.0
10,['2'],2,TMTstop-control_1_2linestimulus7.png,TMTstop-control_1_2greenlinestimulus7.png,TMTstop-control_1_2redlinestimulus7.png,TMT_Control,2,35,1.0,25.09799575805664,25.09799575805664,0.0,,1.0,1.0,0.0,1,2,0.08616059999621939,0.14060280000558123,25.09799575805664,25.09799575805664,0.0,,9.0
11,['3'],3,TMTstop-control_1_2linestimulus8.png,TMTstop-control_1_2greenlinestimulus8.png,TMTstop-control_1_2redlinestimulus8.png,TMT_Control,2,36,1.0,25.36733055114746,25.36733055114746,0.0,,1.0,1.0,0.0,3,0.01357659998757299,25.36733055114746,25.36733055114746,0.0,,10.0
12,['2'],2,TMTstop-control_1_2linestimulus9.png,TMTstop-control_1_2greenlinestimulus9.png,TMTstop-control_1_2redlinestimulus9.png,TMT_Control,2,37,1.0,25.508485794067383,25.508485794067383,0.0,,1.0,1.0,0.0,1,2,0.004356399993412197,0.08180420000280719,25.508485794067383,25.508485794067383,0.0,,11.0
13,['3'],3,TMTstop-control_1_2linestimulus10.png,TMTstop-control_1_2greenlinestimulus10.png,TMTstop-control_1_2redlinestimulus10.png,TMT_Control,2,38,1.0,25.786399841308594,25.786399841308594,0.0,,1.0,1.0,0.0,3,-0.07196299999486655,25.786399841308594,25.786399841308594,0.0,,12.0
14,['2'],2,TMTstop-control_1_2linestimulus11.png,TMTstop-control_1_2greenlinestimulus11.png,TMTstop-control_1_2redlinestimulus11.png,TMT_Control,2,39,1.0,25.92440414428711,25.92440414428711,0.0,,1.0,1.0,0.0,1,2,-0.08256969999638386,0.0028119000053266063,25.92440414428711,25.92440414428711,0.0,,13.0
15,['3'],3,TMTstop-control_1_2linestimulus12.png,TMTstop-control_1_2greenlinestimulus12.png,TMTstop-control_1_2redlinestimulus12.png,TMT_Control,2,40,1.0,26.06480598449707,26.06480598449707,0.0,,1.0,1.0,0.0,3,-0.025971499999286607,26.06480598449707,26.06480598449707,0.0,,14.0
16,['1'],1,TMTstop-control_1_2linestimulus13.png,TMTstop-control_1_2greenlinestimulus13.png,TMTstop-control_1_2redlinestimulus13.png,TMT_Control,2,41,1.0,26.20281410217285,26.20281410217285,0.0,,1.0,1.0,0.0,1,-0.04387750000751112,26.20281410217285,26.20281410217285,0.0,,15.0
17,['2'],2,TMTstop-control_1_2linestimulus14.png,TMTstop-control_1_2greenlinestimulus14.png,TMTstop-control_1_2redlinestimulus14.png,TMT_Control,2,42,1.0,26.328760147094727,26.328760147094727,0.0,,1.0,1.0,0.0,2,-0.07455060000938829,26.328760147094727,26.328760147094727,0.0,,16.0
18,['1'],1,TMTstop-control_1_2linestimulus15.png,TMTstop-control_1_2greenlinestimulus15.png,TMTstop-control_1_2redlinestimulus15.png,TMT_Control,2,43,1.0,26.452682495117188,26.452682495117188,0.0,,1.0,1.0,0.0,2,3,1,-0.058978300003218465,0.015539600004558451,0.16130360000533983,26.452682495117188,26.452682495117188,0.0,,17.0
19,['2'],2,TMTstop-control_1_2linestimulus16.png,TMTstop-control_1_2greenlinestimulus16.png,TMTstop-control_1_2redlinestimulus16.png,TMT_Control,2,44,1.0,26.735288619995117,26.735288619995117,0.0,,1.0,1.0,0.0,2,0.021407500011264347,26.735288619995117,26.735288619995117,0.0,,18.0
20,['3'],3,TMTstop-control_1_2linestimulus17.png,TMTstop-control_1_2greenlinestimulus17.png,TMTstop-control_1_2redlinestimulus17.png,TMT_Control,2,45,1.0,26.856426239013672,26.856426239013672,0.0,,1.0,1.0,0.0,3,0.015146799996728078,26.856426239013672,26.856426239013672,0.0,,19.0
21,['1'],1,TMTstop-control_1_2linestimulus18.png,TMTstop-control_1_2greenlinestimulus18.png,TMTstop-control_1_2redlinestimulus18.png,TMT_Control,2,46,1.0,26.991487503051758,26.991487503051758,0.0,,1.0,1.0,0.0,1,0.02545970000210218,26.991487503051758,26.991487503051758,0.0,,20.0
22,['3'],3,TMTstop-control_1_2linestimulus19.png,TMTstop-control_1_2greenlinestimulus19.png,TMTstop-control_1_2redlinestimulus19.png,TMT_Control,2,47,1.0,27.13256072998047,27.13256072998047,0.0,,1.0,1.0,0.0,2,3,-0.05113199999323115,0.07854580000275746,27.13256072998047,27.13256072998047,0.0,,21.0
23,['2'],2,TMTstop-control_1_2linestimulus20.png,TMTstop-control_1_2greenlinestimulus20.png,TMTstop-control_1_2redlinestimulus20.png,TMT_Control,2,48,1.0,27.41459083557129,27.41459083557129,0.0,,1.0,1.0,0.0,1,2,-0.09409470000537112,0.017396900002495386,27.41459083557129,27.41459083557129,0.0,,22.0
24,['3'],3,TMTstop-control_1_2linestimulus21.png,TMTstop-control_1_2greenlinestimulus21.png,TMTstop-control_1_2redlinestimulus21.png,TMT_Control,2,49,1.0,27.55565071105957,27.55565071105957,0.0,,1.0,1.0,0.0,3,-0.021059799997601658,27.55565071105957,27.55565071105957,0.0,,23.0
25,['1'],1,TMTstop-control_1_2linestimulus22.png,TMTstop-control_1_2greenlinestimulus22.png,TMTstop-control_1_2redlinestimulus22.png,TMT_Control,2,50,1.0,27.686988830566406,27.686988830566406,0.0,,1.0,1.0,0.0,1,-0.03126230000634678,27.686988830566406,27.686988830566406,0.0,,24.0
None,None,None,TMTstop-control_1_2linestimulus23.png,TMTstop-control_1_2greenlinestimulus23.png,TMTstop-control_1_2redlinestimulus23.png,TMT_Control,2,Feedback_last,1.0,27.826732635498047,27.826732635498047,0.0,,0.0,0.0,0.0,3,1,0.024283100006869063,0.18586870000581257,27.826732635498047,27.826732635498047,0.0,,25.0

extraInfo
participant,
session,001
date,2022_May_10_1100
expName,TMT_fmri
psychopyVersion,2021.2.3
frameRate,None
﻿NumberLetter,corrAns,Correct,StimFile,Correct_StimFile,False_StimFile,Version,Block,TrialNumber_session,n,Stim.started_mean,Stim.started_raw,Stim.started_std,Stim.stopped_raw,key_resp_2.corr_mean,key_resp_2.corr_raw,key_resp_2.corr_std,key_resp_2.keys_raw,key_resp_2.rt_raw,key_resp_2.started_mean,key_resp_2.started_raw,key_resp_2.started_std,key_resp_2.stopped_raw,order
1,['2'],2,TMTstop-control_1_3.png,TMTstop-control_1_3.png,TMTstop-control_1_3.png,TMT_Control,3,51,1.0,31.909971237182617,31.909971237182617,0.0,,1.0,1.0,0.0,1,2,0.41480359999695793,0.5370131000090623,31.909971237182617,31.909971237182617,0.0,,0.0
2,['1'],1,TMTstop-control_1_3.png,TMTstop-control_1_3firstgreen.png,TMTstop-control_1_3firstred.png,TMT_Control,3,52,1.0,32.605506896972656,32.605506896972656,0.0,,1.0,1.0,0.0,3,1,-0.04383379999489989,0.10425289999693632,32.605506896972656,32.605506896972656,0.0,,1.0
3,['2'],2,TMTstop-control_1_3linestimulus0.png,TMTstop-control_1_3greenlinestimulus0.png,TMTstop-control_1_3redlinestimulus0.png,TMT_Control,3,53,1.0,32.87165451049805,32.87165451049805,0.0,,1.0,1.0,0.0,2,-0.08976989999064244,32.87165451049805,32.87165451049805,0.0,,2.0
4,['1'],1,TMTstop-control_1_3linestimulus1.png,TMTstop-control_1_3greenlinestimulus1.png,TMTstop-control_1_3redlinestimulus1.png,TMT_Control,3,54,1.0,33.00819778442383,33.00819778442383,0.0,,1.0,1.0,0.0,3,1,-0.10656559999915771,0.008276199994725175,33.00819778442383,33.00819778442383,0.0,,3.0
5,['3'],3,TMTstop-control_1_3linestimulus2.png,TMTstop-control_1_3greenlinestimulus2.png,TMTstop-control_1_3redlinestimulus2.png,TMT_Control,3,55,1.0,33.149356842041016,33.149356842041016,0.0,,1.0,1.0,0.0,2,3,-0.05812810000497848,0.05653089999395888,33.149356842041016,33.149356842041016,0.0,,4.0
6,['1'],1,TMTstop-control_1_3linestimulus3.png,TMTstop-control_1_3greenlinestimulus3.png,TMTstop-control_1_3redlinestimulus3.png,TMT_Control,3,56,1.0,33.42985916137695,33.42985916137695,0.0,,1.0,1.0,0.0,1,2,3,1,-0.1011626000108663,-0.033907200006069615,0.07234469999093562,0.23203699999430683,33.42985916137695,33.42985916137695,0.0,,5.0
7,['2'],2,TMTstop-control_1_3linestimulus4.png,TMTstop-control_1_3greenlinestimulus4.png,TMTstop-control_1_3redlinestimulus4.png,TMT_Control,3,57,1.0,33.84529113769531,33.84529113769531,0.0,,1.0,1.0,0.0,2,0.16441749999648891,33.84529113769531,33.84529113769531,0.0,,6.0
8,['3'],3,TMTstop-control_1_3linestimulus4.png,TMTstop-control_1_3greenlinestimulus5.png,TMTstop-control_1_3redlinestimulus5.png,TMT_Control,3,58,1.0,34.10990524291992,34.10990524291992,0.0,,1.0,1.0,0.0,3,0.0030377999937627465,34.10990524291992,34.10990524291992,0.0,,7.0
9,['1'],1,TMTstop-control_1_3linestimulus6.png,TMTstop-control_1_3greenlinestimulus6.png,TMTstop-control_1_3redlinestimulus6.png,TMT_Control,3,59,1.0,34.24995803833008,34.24995803833008,0.0,,1.0,1.0,0.0,1,-0.021871399992960505,34.24995803833008,34.24995803833008,0.0,,8.0
10,['2'],2,TMTstop-control_1_3linestimulus7.png,TMTstop-control_1_3greenlinestimulus7.png,TMTstop-control_1_3redlinestimulus7.png,TMT_Control,3,60,1.0,34.375545501708984,34.375545501708984,0.0,,1.0,1.0,0.0,2,-0.021102800004882738,34.375545501708984,34.375545501708984,0.0,,9.0
11,['1'],1,TMTstop-control_1_3linestimulus8.png,TMTstop-control_1_3greenlinestimulus8.png,TMTstop-control_1_3redlinestimulus8.png,TMT_Control,3,61,1.0,34.51396560668945,34.51396560668945,0.0,,1.0,1.0,0.0,3,1,-0.09377900000254158,0.03731250000419095,34.51396560668945,34.51396560668945,0.0,,10.0
12,['2'],2,TMTstop-control_1_3linestimulus9.png,TMTstop-control_1_3greenlinestimulus9.png,TMTstop-control_1_3redlinestimulus9.png,TMT_Control,3,62,1.0,34.7118034362793,34.7118034362793,0.0,,1.0,1.0,0.0,2,-0.07108949999383185,34.7118034362793,34.7118034362793,0.0,,11.0
13,['3'],3,TMTstop-control_1_3linestimulus10.png,TMTstop-control_1_3greenlinestimulus10.png,TMTstop-control_1_3redlinestimulus10.png,TMT_Control,3,63,1.0,34.85074996948242,34.85074996948242,0.0,,1.0,1.0,0.0,3,-0.09804650000296533,34.85074996948242,34.85074996948242,0.0,,12.0
14,['2'],2,TMTstop-control_1_3linestimulus11.png,TMTstop-control_1_3greenlinestimulus11.png,TMTstop-control_1_3redlinestimulus11.png,TMT_Control,3,64,1.0,34.9773063659668,34.9773063659668,0.0,,1.0,1.0,0.0,1,2,-0.09948350000195205,-0.01607030000013765,34.9773063659668,34.9773063659668,0.0,,13.0
15,['1'],1,TMTstop-control_1_3linestimulus12.png,TMTstop-control_1_3greenlinestimulus12.png,TMTstop-control_1_3redlinestimulus12.png,TMT_Control,3,65,1.0,35.10295486450195,35.10295486450195,0.0,,1.0,1.0,0.0,3,1,2,3,1,-0.017903899992234074,0.10520550000364892,0.17742500000167638,0.31696940000983886,0.4435525000008056,35.10295486450195,35.10295486450195,0.0,,14.0
16,['3'],3,TMTstop-control_1_3linestimulus13.png,TMTstop-control_1_3greenlinestimulus13.png,TMTstop-control_1_3redlinestimulus13.png,TMT_Control,3,66,1.0,35.71843719482422,35.71843719482422,0.0,,1.0,1.0,0.0,2,3,-0.07547409999824595,0.04469589999644086,35.71843719482422,35.71843719482422,0.0,,15.0
17,['1'],1,TMTstop-control_1_3linestimulus14.png,TMTstop-control_1_3greenlinestimulus14.png,TMTstop-control_1_3redlinestimulus14.png,TMT_Control,3,67,1.0,35.85942840576172,35.85942840576172,0.0,,1.0,1.0,0.0,1,0.049969900006544776,35.85942840576172,35.85942840576172,0.0,,16.0
18,['3'],3,TMTstop-control_1_3linestimulus15.png,TMTstop-control_1_3greenlinestimulus15.png,TMTstop-control_1_3redlinestimulus15.png,TMT_Control,3,68,1.0,36.00130844116211,36.00130844116211,0.0,,1.0,1.0,0.0,2,3,-0.0202584999933606,0.09641450000344776,36.00130844116211,36.00130844116211,0.0,,17.0
19,['2'],2,TMTstop-control_1_3linestimulus16.png,TMTstop-control_1_3greenlinestimulus16.png,TMTstop-control_1_3redlinestimulus16.png,TMT_Control,3,69,1.0,36.2636604309082,36.2636604309082,0.0,,1.0,1.0,0.0,1,2,-0.037286199993104674,0.009003400002256967,36.2636604309082,36.2636604309082,0.0,,18.0
20,['1'],1,TMTstop-control_1_3linestimulus17.png,TMTstop-control_1_3greenlinestimulus17.png,TMTstop-control_1_3redlinestimulus17.png,TMT_Control,3,70,1.0,36.4011344909668,36.4011344909668,0.0,,1.0,1.0,0.0,3,1,-0.00016320000577252358,0.1576125999999931,36.4011344909668,36.4011344909668,0.0,,19.0
21,['3'],3,TMTstop-control_1_3linestimulus18.png,TMTstop-control_1_3greenlinestimulus18.png,TMTstop-control_1_3redlinestimulus18.png,TMT_Control,3,71,1.0,36.67670440673828,36.67670440673828,0.0,,1.0,1.0,0.0,2,3,-0.04802440000639763,0.09456739999586716,36.67670440673828,36.67670440673828,0.0,,20.0
22,['2'],2,TMTstop-control_1_3linestimulus19.png,TMTstop-control_1_3greenlinestimulus19.png,TMTstop-control_1_3redlinestimulus19.png,TMT_Control,3,72,1.0,36.94256591796875,36.94256591796875,0.0,,1.0,1.0,0.0,1,2,-0.05306469999777619,0.05803780000132974,36.94256591796875,36.94256591796875,0.0,,21.0
23,['3'],3,TMTstop-control_1_3linestimulus20.png,TMTstop-control_1_3greenlinestimulus20.png,TMTstop-control_1_3redlinestimulus20.png,TMT_Control,3,73,1.0,37.132511138916016,37.132511138916016,0.0,,1.0,1.0,0.0,3,-0.007721599991782568,37.132511138916016,37.132511138916016,0.0,,22.0
24,['1'],1,TMTstop-control_1_3linestimulus21.png,TMTstop-control_1_3greenlinestimulus21.png,TMTstop-control_1_3redlinestimulus21.png,TMT_Control,3,74,1.0,37.272377014160156,37.272377014160156,0.0,,1.0,1.0,0.0,1,-0.025935900004697032,37.272377014160156,37.272377014160156,0.0,,23.0
25,['2'],2,TMTstop-control_1_3linestimulus22.png,TMTstop-control_1_3greenlinestimulus22.png,TMTstop-control_1_3redlinestimulus22.png,TMT_Control,3,75,1.0,37.413875579833984,37.413875579833984,0.0,,1.0,1.0,0.0,2,-0.07911479999893345,37.413875579833984,37.413875579833984,0.0,,24.0
None,None,None,TMTstop-control_1_3linestimulus23.png,TMTstop-control_1_3greenlinestimulus23.png,TMTstop-control_1_3redlinestimulus23.png,TMT_Control,3,Feedback_last,1.0,37.55275344848633,37.55275344848633,0.0,,0.0,0.0,0.0,3,1,2,3,-0.09058819999336265,0.023232999999891035,0.08728530000371393,0.22755989999859594,37.55275344848633,37.55275344848633,0.0,,25.0

extraInfo
participant,
session,001
date,2022_May_10_1100
expName,TMT_fmri
psychopyVersion,2021.2.3
frameRate,None
﻿NumberLetter,corrAns,Correct,StimFile,Correct_StimFile,False_StimFile,Version,Block,TrialNumber_session,n,Stim.started_mean,Stim.started_raw,Stim.started_std,Stim.stopped_raw,key_resp_2.corr_mean,key_resp_2.corr_raw,key_resp_2.corr_std,key_resp_2.keys_raw,key_resp_2.rt_raw,key_resp_2.started_mean,key_resp_2.started_raw,key_resp_2.started_std,key_resp_2.stopped_raw,order
1,['2'],2,TMTstop-control_1_4.png,TMTstop-control_1_4.png,TMTstop-control_1_4.png,TMT_Control,4,76,1.0,41.687381744384766,41.687381744384766,0.0,,1.0,1.0,0.0,1,2,0.33935969999583904,0.4661296999984188,41.687381744384766,41.687381744384766,0.0,,0.0
2,['1'],1,TMTstop-control_1_4.png,TMTstop-control_1_4firstgreen.png,TMTstop-control_1_4firstred.png,TMT_Control,4,77,1.0,42.270469665527344,42.270469665527344,0.0,,1.0,1.0,0.0,3,1,-0.011971499989158474,0.1622848000115482,42.270469665527344,42.270469665527344,0.0,,1.0
3,['3'],3,TMTstop-control_1_4linestimulus0.png,TMTstop-control_1_4greenlinestimulus0.png,TMTstop-control_1_4redlinestimulus0.png,TMT_Control,4,78,1.0,42.5513801574707,42.5513801574707,0.0,,1.0,1.0,0.0,2,3,-0.05237060000945348,0.081720399990445,42.5513801574707,42.5513801574707,0.0,,2.0
4,['1'],1,TMTstop-control_1_4linestimulus1.png,TMTstop-control_1_4greenlinestimulus1.png,TMTstop-control_1_4redlinestimulus1.png,TMT_Control,4,79,1.0,42.81541442871094,42.81541442871094,0.0,,1.0,1.0,0.0,1,-0.03926060000958387,42.81541442871094,42.81541442871094,0.0,,3.0
5,['3'],3,TMTstop-control_1_4linestimulus2.png,TMTstop-control_1_4greenlinestimulus2.png,TMTstop-control_1_4redlinestimulus2.png,TMT_Control,4,80,1.0,42.95558547973633,42.95558547973633,0.0,,1.0,1.0,0.0,2,3,-0.13325120000808965,0.00917710000067018,42.95558547973633,42.95558547973633,0.0,,4.0
6,['1'],1,TMTstop-control_1_4linestimulus3.png,TMTstop-control_1_4greenlinestimulus3.png,TMTstop-control_1_4redlinestimulus3.png,TMT_Control,4,81,1.0,43.08047866821289,43.08047866821289,0.0,,1.0,1.0,0.0,1,0.02093530001002364,43.08047866821289,43.08047866821289,0.0,,5.0
7,['3'],3,TMTstop-control_1_4linestimulus4.png,TMTstop-control_1_4greenlinestimulus4.png,TMTstop-control_1_4redlinestimulus4.png,TMT_Control,4,82,1.0,43.20633316040039,43.20633316040039,0.0,,1.0,1.0,0.0,2,3,-0.04099259999929927,0.08500049999565817,43.20633316040039,43.20633316040039,0.0,,6.0
8,['1'],1,TMTstop-control_1_4linestimulus4.png,TMTstop-control_1_4greenlinestimulus5.png,TMTstop-control_1_4redlinestimulus5.png,TMT_Control,4,83,1.0,43.45691680908203,43.45691680908203,0.0,,1.0,1.0,0.0,1,-0.05205589999968652,43.45691680908203,43.45691680908203,0.0,,7.0
9,['3'],3,TMTstop-control_1_4linestimulus6.png,TMTstop-control_1_4greenlinestimulus6.png,TMTstop-control_1_4redlinestimulus6.png,TMT_Control,4,84,1.0,43.59825134277344,43.59825134277344,0.0,,1.0,1.0,0.0,2,3,-0.10300309999729507,0.013688799997908063,43.59825134277344,43.59825134277344,0.0,,8.0
10,['2'],2,TMTstop-control_1_4linestimulus7.png,TMTstop-control_1_4greenlinestimulus7.png,TMTstop-control_1_4redlinestimulus7.png,TMT_Control,4,85,1.0,43.73918533325195,43.73918533325195,0.0,,1.0,1.0,0.0,1,2,-0.009055399990756996,0.08312440000008792,43.73918533325195,43.73918533325195,0.0,,9.0
11,['1'],1,TMTstop-control_1_4linestimulus8.png,TMTstop-control_1_4greenlinestimulus8.png,TMTstop-control_1_4redlinestimulus8.png,TMT_Control,4,86,1.0,44.018611907958984,44.018611907958984,0.0,,1.0,1.0,0.0,3,1,-0.08544750000874046,0.028950299994903617,44.018611907958984,44.018611907958984,0.0,,10.0
12,['3'],3,TMTstop-control_1_4linestimulus9.png,TMTstop-control_1_4greenlinestimulus9.png,TMTstop-control_1_4redlinestimulus9.png,TMT_Control,4,87,1.0,44.1473503112793,44.1473503112793,0.0,,1.0,1.0,0.0,2,3,0.042518999995081685,0.11022499999671709,44.1473503112793,44.1473503112793,0.0,,11.0
13,['2'],2,TMTstop-control_1_4linestimulus10.png,TMTstop-control_1_4greenlinestimulus10.png,TMTstop-control_1_4redlinestimulus10.png,TMT_Control,4,88,1.0,44.408145904541016,44.408145904541016,0.0,,1.0,1.0,0.0,1,2,0.011194699996849522,0.11296880000736564,44.408145904541016,44.408145904541016,0.0,,12.0
14,['3'],3,TMTstop-control_1_4linestimulus11.png,TMTstop-control_1_4greenlinestimulus11.png,TMTstop-control_1_4redlinestimulus11.png,TMT_Control,4,89,1.0,44.6781120300293,44.6781120300293,0.0,,1.0,1.0,0.0,3,-0.0447204999945825,44.6781120300293,44.6781120300293,0.0,,13.0
15,['2'],2,TMTstop-control_1_4linestimulus12.png,TMTstop-control_1_4greenlinestimulus12.png,TMTstop-control_1_4redlinestimulus12.png,TMT_Control,4,90,1.0,44.80303192138672,44.80303192138672,0.0,,1.0,1.0,0.0,1,2,-0.032734699998400174,0.041454699996393174,44.80303192138672,44.80303192138672,0.0,,14.0
16,['1'],1,TMTstop-control_1_4linestimulus13.png,TMTstop-control_1_4greenlinestimulus13.png,TMTstop-control_1_4redlinestimulus13.png,TMT_Control,4,91,1.0,44.92802810668945,44.92802810668945,0.0,,1.0,1.0,0.0,3,1,0.04782789999444503,0.1767245999944862,44.92802810668945,44.92802810668945,0.0,,15.0
17,['3'],3,TMTstop-control_1_4linestimulus14.png,TMTstop-control_1_4greenlinestimulus14.png,TMTstop-control_1_4redlinestimulus14.png,TMT_Control,4,92,1.0,45.33253479003906,45.33253479003906,0.0,,1.0,1.0,0.0,2,3,-0.13543470000149682,-0.003431400007684715,45.33253479003906,45.33253479003906,0.0,,16.0
18,['1'],1,TMTstop-control_1_4linestimulus15.png,TMTstop-control_1_4greenlinestimulus15.png,TMTstop-control_1_4redlinestimulus15.png,TMT_Control,4,93,1.0,45.458492279052734,45.458492279052734,0.0,,1.0,1.0,0.0,1,-0.004758199997013435,45.458492279052734,45.458492279052734,0.0,,17.0
19,['2'],2,TMTstop-control_1_4linestimulus16.png,TMTstop-control_1_4greenlinestimulus16.png,TMTstop-control_1_4redlinestimulus16.png,TMT_Control,4,94,1.0,45.597511291503906,45.597511291503906,0.0,,1.0,1.0,0.0,2,-0.08180470000661444,45.597511291503906,45.597511291503906,0.0,,18.0
20,['1'],1,TMTstop-control_1_4linestimulus17.png,TMTstop-control_1_4greenlinestimulus17.png,TMTstop-control_1_4redlinestimulus17.png,TMT_Control,4,95,1.0,45.72168731689453,45.72168731689453,0.0,,1.0,1.0,0.0,3,1,2,3,1,-0.08516820000659209,0.05258550000144169,0.1339906999928644,0.26457070000469685,0.38817639999615494,45.72168731689453,45.72168731689453,0.0,,19.0
21,['2'],2,TMTstop-control_1_4linestimulus18.png,TMTstop-control_1_4greenlinestimulus18.png,TMTstop-control_1_4redlinestimulus18.png,TMT_Control,4,96,1.0,46.26958465576172,46.26958465576172,0.0,,1.0,1.0,0.0,2,-0.05688769998960197,46.26958465576172,46.26958465576172,0.0,,20.0
22,['1'],1,TMTstop-control_1_4linestimulus19.png,TMTstop-control_1_4greenlinestimulus19.png,TMTstop-control_1_4redlinestimulus19.png,TMT_Control,4,97,1.0,46.410247802734375,46.410247802734375,0.0,,1.0,1.0,0.0,3,1,-0.08130130000063218,0.07473910000408068,46.410247802734375,46.410247802734375,0.0,,21.0
23,['2'],2,TMTstop-control_1_4linestimulus20.png,TMTstop-control_1_4greenlinestimulus20.png,TMTstop-control_1_4redlinestimulus20.png,TMT_Control,4,98,1.0,46.6745719909668,46.6745719909668,0.0,,1.0,1.0,0.0,2,-0.11065500001132023,46.6745719909668,46.6745719909668,0.0,,22.0
24,['1'],1,TMTstop-control_1_4linestimulus21.png,TMTstop-control_1_4greenlinestimulus21.png,TMTstop-control_1_4redlinestimulus21.png,TMT_Control,4,99,1.0,46.81458282470703,46.81458282470703,0.0,,1.0,1.0,0.0,3,1,-0.11782469999161549,-0.00016299998969770968,46.81458282470703,46.81458282470703,0.0,,23.0
25,['2'],2,TMTstop-control_1_4linestimulus22.png,TMTstop-control_1_4greenlinestimulus22.png,TMTstop-control_1_4redlinestimulus22.png,TMT_Control,4,100,1.0,46.95561218261719,46.95561218261719,0.0,,1.0,1.0,0.0,2,-0.06666039999981876,46.95561218261719,46.95561218261719,0.0,,24.0
None,None,None,TMTstop-control_1_4linestimulus23.png,TMTstop-control_1_4greenlinestimulus23.png,TMTstop-control_1_4redlinestimulus23.png,TMT_Control,4,Feedback_last,1.0,47.08124542236328,47.08124542236328,0.0,,0.0,0.0,0.0,3,-0.014326499993330799,47.08124542236328,47.08124542236328,0.0,,25.0

extraInfo
participant,
session,001
date,2022_May_10_1100
expName,TMT_fmri
psychopyVersion,2021.2.3
frameRate,None
