NumberLetter,corrAns,Correct,StimFile,Correct_StimFile,False_StimFile,Version,Paper,TrialNumber_Version,Round,Block,TrialNumber_total,n,Stim.started_mean,Stim.started_raw,Stim.started_std,Stim.stopped_raw,key_resp_2.corr_mean,key_resp_2.corr_raw,key_resp_2.corr_std,key_resp_2.keys_raw,key_resp_2.rt_raw,key_resp_2.started_mean,key_resp_2.started_raw,key_resp_2.started_std,key_resp_2.stopped_raw,order
1,['2'],2,Images/TMTstop-A_1_5.png,Images/TMTstop-A_1_5.png,Images/TMTstop-A_1_5.png,TMT_A,A5,101,6.0,6.0,501,1.0,354.40728759765625,354.40728759765625,0.0,,1.0,1.0,0.0,3,1,2,1.7473563000094146,1.7676808999967761,1.768283599987626,354.40728759765625,354.40728759765625,0.0,,0.0
2,['1'],1,Images/TMTstop-A_1_5.png,Images/TMTstop-A_1_5firstgreen.png,Images/TMTstop-A_1_5firstred.png,TMT_A,A5,102,None,6.0,502,1.0,356.2726135253906,356.2726135253906,0.0,,1.0,1.0,0.0,3,2,1,0.1011762999696657,0.14155870000831783,0.2651127999997698,356.2726135253906,356.2726135253906,0.0,,1.0
3,['3'],3,Images/TMTstop-A_1_5linestimulus0.png,Images/TMTstop-A_1_5greenlinestimulus0.png,Images/TMTstop-A_1_5redlinestimulus0.png,TMT_A,A5,103,None,6.0,503,1.0,356.611083984375,356.611083984375,0.0,,1.0,1.0,0.0,3,0.09983919997466728,356.611083984375,356.611083984375,0.0,,2.0
4,['1'],1,Images/TMTstop-A_1_5linestimulus1.png,Images/TMTstop-A_1_5greenlinestimulus1.png,Images/TMTstop-A_1_5redlinestimulus1.png,TMT_A,A5,104,None,6.0,504,1.0,356.76129150390625,356.76129150390625,0.0,,1.0,1.0,0.0,2,1,0.0006010999786667526,0.10646579996682703,356.76129150390625,356.76129150390625,0.0,,3.0
5,['2'],2,Images/TMTstop-A_1_5linestimulus2.png,Images/TMTstop-A_1_5greenlinestimulus2.png,Images/TMTstop-A_1_5redlinestimulus2.png,TMT_A,A5,105,None,6.0,505,1.0,356.9208679199219,356.9208679199219,0.0,,1.0,1.0,0.0,3,2,0.09991980000631884,0.13854950002860278,356.9208679199219,356.9208679199219,0.0,,4.0
6,['1'],1,Images/TMTstop-A_1_5linestimulus3.png,Images/TMTstop-A_1_5greenlinestimulus3.png,Images/TMTstop-A_1_5redlinestimulus3.png,TMT_A,A5,106,None,6.0,506,1.0,357.1216125488281,357.1216125488281,0.0,,1.0,1.0,0.0,1,0.07223730004625395,357.1216125488281,357.1216125488281,0.0,,5.0
7,['3'],3,Images/TMTstop-A_1_5linestimulus4.png,Images/TMTstop-A_1_5greenlinestimulus4.png,Images/TMTstop-A_1_5redlinestimulus4.png,TMT_A,A5,107,None,6.0,507,1.0,357.25506591796875,357.25506591796875,0.0,,1.0,1.0,0.0,3,0.11085019999882206,357.25506591796875,357.25506591796875,0.0,,6.0
8,['2'],2,Images/TMTstop-A_1_5linestimulus5.png,Images/TMTstop-A_1_5greenlinestimulus5.png,Images/TMTstop-A_1_5redlinestimulus5.png,TMT_A,A5,108,None,6.0,508,1.0,357.4297790527344,357.4297790527344,0.0,,1.0,1.0,0.0,2,-0.024991100013721734,357.4297790527344,357.4297790527344,0.0,,7.0
9,['3'],3,Images/TMTstop-A_1_5linestimulus6.png,Images/TMTstop-A_1_5greenlinestimulus6.png,Images/TMTstop-A_1_5redlinestimulus6.png,TMT_A,A5,109,None,6.0,509,1.0,357.47979736328125,357.47979736328125,0.0,,1.0,1.0,0.0,1,3,0.029936800012364984,0.17281420005019754,357.47979736328125,357.47979736328125,0.0,,8.0
10,['1'],1,Images/TMTstop-A_1_5linestimulus7.png,Images/TMTstop-A_1_5greenlinestimulus7.png,Images/TMTstop-A_1_5redlinestimulus7.png,TMT_A,A5,110,None,6.0,510,1.0,357.7128601074219,357.7128601074219,0.0,,1.0,1.0,0.0,2,1,-0.008701200014911592,0.10252749995561317,357.7128601074219,357.7128601074219,0.0,,9.0
11,['3'],3,Images/TMTstop-A_1_5linestimulus8.png,Images/TMTstop-A_1_5greenlinestimulus8.png,Images/TMTstop-A_1_5redlinestimulus8.png,TMT_A,A5,111,None,6.0,511,1.0,357.9136047363281,357.9136047363281,0.0,,1.0,1.0,0.0,3,0.0686112999683246,357.9136047363281,357.9136047363281,0.0,,10.0
12,['2'],2,Images/TMTstop-A_1_5linestimulus9.png,Images/TMTstop-A_1_5greenlinestimulus9.png,Images/TMTstop-A_1_5redlinestimulus9.png,TMT_A,A5,112,None,6.0,512,1.0,358.04693603515625,358.04693603515625,0.0,,1.0,1.0,0.0,2,-0.016037699999287724,358.04693603515625,358.04693603515625,0.0,,11.0
13,['3'],3,Images/TMTstop-A_1_5linestimulus10.png,Images/TMTstop-A_1_5greenlinestimulus10.png,Images/TMTstop-A_1_5redlinestimulus10.png,TMT_A,A5,113,None,6.0,513,1.0,358.1016845703125,358.1016845703125,0.0,,1.0,1.0,0.0,1,3,0.020017100032418966,0.1668987000011839,358.1016845703125,358.1016845703125,0.0,,12.0
14,['2'],2,Images/TMTstop-A_1_5linestimulus11.png,Images/TMTstop-A_1_5greenlinestimulus11.png,Images/TMTstop-A_1_5redlinestimulus11.png,TMT_A,A5,114,None,6.0,514,1.0,358.3425598144531,358.3425598144531,0.0,,1.0,1.0,0.0,2,-0.032160099945031106,358.3425598144531,358.3425598144531,0.0,,13.0
15,['3'],3,Images/TMTstop-A_1_5linestimulus12.png,Images/TMTstop-A_1_5greenlinestimulus12.png,Images/TMTstop-A_1_5redlinestimulus12.png,TMT_A,A5,115,None,6.0,515,1.0,358.3925476074219,358.3925476074219,0.0,,1.0,1.0,0.0,1,3,0.03024709998862818,0.1642920000012964,358.3925476074219,358.3925476074219,0.0,,14.0
16,['2'],2,Images/TMTstop-A_1_5linestimulus13.png,Images/TMTstop-A_1_5greenlinestimulus13.png,Images/TMTstop-A_1_5redlinestimulus13.png,TMT_A,A5,116,None,6.0,516,1.0,358.6595458984375,358.6595458984375,0.0,,1.0,1.0,0.0,2,-0.05194469995331019,358.6595458984375,358.6595458984375,0.0,,15.0
17,['1'],1,Images/TMTstop-A_1_5linestimulus14.png,Images/TMTstop-A_1_5greenlinestimulus14.png,Images/TMTstop-A_1_5redlinestimulus14.png,TMT_A,A5,117,None,6.0,517,1.0,358.7095642089844,358.7095642089844,0.0,,1.0,1.0,0.0,1,-0.009097700007259846,358.7095642089844,358.7095642089844,0.0,,16.0
18,['3'],3,Images/TMTstop-A_1_5linestimulus15.png,Images/TMTstop-A_1_5greenlinestimulus15.png,Images/TMTstop-A_1_5redlinestimulus15.png,TMT_A,A5,118,None,6.0,518,1.0,358.761962890625,358.761962890625,0.0,,1.0,1.0,0.0,3,0.07081279996782541,358.761962890625,358.761962890625,0.0,,17.0
19,['2'],2,Images/TMTstop-A_1_5linestimulus16.png,Images/TMTstop-A_1_5greenlinestimulus16.png,Images/TMTstop-A_1_5redlinestimulus16.png,TMT_A,A5,119,None,6.0,519,1.0,358.89544677734375,358.89544677734375,0.0,,1.0,1.0,0.0,2,-0.02881849999539554,358.89544677734375,358.89544677734375,0.0,,18.0
20,['1'],1,Images/TMTstop-A_1_5linestimulus17.png,Images/TMTstop-A_1_5greenlinestimulus17.png,Images/TMTstop-A_1_5redlinestimulus17.png,TMT_A,A5,120,None,6.0,520,1.0,358.9516296386719,358.9516296386719,0.0,,1.0,1.0,0.0,1,0.02688979997765273,358.9516296386719,358.9516296386719,0.0,,19.0
21,['2'],2,Images/TMTstop-A_1_5linestimulus18.png,Images/TMTstop-A_1_5greenlinestimulus18.png,Images/TMTstop-A_1_5redlinestimulus18.png,TMT_A,A5,121,None,6.0,521,1.0,359.04205322265625,359.04205322265625,0.0,,1.0,1.0,0.0,3,2,0.09046269999817014,0.15472769999178126,359.04205322265625,359.04205322265625,0.0,,20.0
22,['3'],3,Images/TMTstop-A_1_5linestimulus19.png,Images/TMTstop-A_1_5greenlinestimulus19.png,Images/TMTstop-A_1_5redlinestimulus19.png,TMT_A,A5,122,None,6.0,522,1.0,359.2991638183594,359.2991638183594,0.0,,1.0,1.0,0.0,1,3,-0.015538799983914942,0.13658360001863912,359.2991638183594,359.2991638183594,0.0,,21.0
23,['2'],2,Images/TMTstop-A_1_5linestimulus20.png,Images/TMTstop-A_1_5greenlinestimulus20.png,Images/TMTstop-A_1_5redlinestimulus20.png,TMT_A,A5,123,None,6.0,523,1.0,359.51904296875,359.51904296875,0.0,,1.0,1.0,0.0,2,-0.025796499976422638,359.51904296875,359.51904296875,0.0,,22.0
24,['3'],3,Images/TMTstop-A_1_5linestimulus21.png,Images/TMTstop-A_1_5greenlinestimulus21.png,Images/TMTstop-A_1_5redlinestimulus21.png,TMT_A,A5,124,None,6.0,524,1.0,359.57122802734375,359.57122802734375,0.0,,1.0,1.0,0.0,1,3,0.005518799996934831,0.1733581000007689,359.57122802734375,359.57122802734375,0.0,,23.0
25,['1'],1,Images/TMTstop-A_1_5linestimulus22.png,Images/TMTstop-A_1_5greenlinestimulus22.png,Images/TMTstop-A_1_5redlinestimulus22.png,TMT_A,A5,125,None,6.0,525,1.0,359.82720947265625,359.82720947265625,0.0,,1.0,1.0,0.0,2,1,-0.04356479999842122,0.06549680000171065,359.82720947265625,359.82720947265625,0.0,,24.0
None,None,None,Images/TMTstop-A_1_5linestimulus23.png,Images/TMTstop-A_1_5greenlinestimulus23.png,Images/TMTstop-A_1_5redlinestimulus23.png,TMT_A,A5,Feedback_last,None,6.0,Feedback_last,1.0,359.9826965332031,359.9826965332031,0.0,,0.0,0.0,0.0,3,2,1,0.06960230000549927,0.14807110000401735,0.20713110000360757,359.9826965332031,359.9826965332031,0.0,,25.0

extraInfo
participant,
session,001
date,2022_Dec_20_1551
expName,TMT_fmri
psychopyVersion,2021.2.3
frameRate,59.8764031355123
﻿NumberLetter,corrAns,Correct,StimFile,Correct_StimFile,False_StimFile,Version,Paper,TrialNumber_Version,Round,Block,TrialNumber_total,n,Stim.started_mean,Stim.started_raw,Stim.started_std,Stim.stopped_raw,key_resp_2.corr_mean,key_resp_2.corr_raw,key_resp_2.corr_std,key_resp_2.keys_raw,key_resp_2.rt_raw,key_resp_2.started_mean,key_resp_2.started_raw,key_resp_2.started_std,key_resp_2.stopped_raw,order
1,['3'],3,Images/TMTstop-A_1_6.png,Images/TMTstop-A_1_6.png,Images/TMTstop-A_1_6.png,TMT_A,A6,126,None,6.0,526,1.0,364.3563537597656,364.3563537597656,0.0,,1.0,1.0,0.0,3,0.41563080000923946,364.3563537597656,364.3563537597656,0.0,,0.0
2,['1'],1,Images/TMTstop-A_1_6.png,Images/TMTstop-A_1_6firstgreen.png,Images/TMTstop-A_1_6firstred.png,TMT_A,A6,127,None,6.0,527,1.0,364.83514404296875,364.83514404296875,0.0,,1.0,1.0,0.0,2,1,-0.010890400037169456,0.08828019996872172,364.83514404296875,364.83514404296875,0.0,,1.0
3,['2'],2,Images/TMTstop-A_1_6linestimulus0.png,Images/TMTstop-A_1_6greenlinestimulus0.png,Images/TMTstop-A_1_6redlinestimulus0.png,TMT_A,A6,128,None,6.0,528,1.0,364.99737548828125,364.99737548828125,0.0,,1.0,1.0,0.0,3,2,0.10159880004357547,0.1643432000419125,364.99737548828125,364.99737548828125,0.0,,2.0
4,['1'],1,Images/TMTstop-A_1_6linestimulus1.png,Images/TMTstop-A_1_6greenlinestimulus1.png,Images/TMTstop-A_1_6redlinestimulus1.png,TMT_A,A6,129,None,6.0,529,1.0,365.2141418457031,365.2141418457031,0.0,,1.0,1.0,0.0,1,0.01582489995053038,365.2141418457031,365.2141418457031,0.0,,3.0
5,['2'],2,Images/TMTstop-A_1_6linestimulus2.png,Images/TMTstop-A_1_6greenlinestimulus2.png,Images/TMTstop-A_1_6redlinestimulus2.png,TMT_A,A6,130,None,6.0,530,1.0,365.2976379394531,365.2976379394531,0.0,,1.0,1.0,0.0,3,2,0.07834969996474683,0.1442591999657452,365.2976379394531,365.2976379394531,0.0,,4.0
6,['3'],3,Images/TMTstop-A_1_6linestimulus3.png,Images/TMTstop-A_1_6greenlinestimulus3.png,Images/TMTstop-A_1_6redlinestimulus3.png,TMT_A,A6,131,None,6.0,531,1.0,365.5379638671875,365.5379638671875,0.0,,1.0,1.0,0.0,1,3,-0.02411920001031831,0.14061569998739287,365.5379638671875,365.5379638671875,0.0,,5.0
7,['2'],2,Images/TMTstop-A_1_6linestimulus4.png,Images/TMTstop-A_1_6greenlinestimulus4.png,Images/TMTstop-A_1_6redlinestimulus4.png,TMT_A,A6,132,None,6.0,532,1.0,365.7379150390625,365.7379150390625,0.0,,1.0,1.0,0.0,2,-0.030389800027478486,365.7379150390625,365.7379150390625,0.0,,6.0
8,['1'],1,Images/TMTstop-A_1_6linestimulus5.png,Images/TMTstop-A_1_6greenlinestimulus5.png,Images/TMTstop-A_1_6redlinestimulus5.png,TMT_A,A6,133,None,6.0,533,1.0,365.79034423828125,365.79034423828125,0.0,,1.0,1.0,0.0,1,0.034090899978764355,365.79034423828125,365.79034423828125,0.0,,7.0
9,['3'],3,Images/TMTstop-A_1_6linestimulus6.png,Images/TMTstop-A_1_6greenlinestimulus6.png,Images/TMTstop-A_1_6redlinestimulus6.png,TMT_A,A6,134,None,6.0,534,1.0,365.8796081542969,365.8796081542969,0.0,,1.0,1.0,0.0,3,0.11820420000003651,365.8796081542969,365.8796081542969,0.0,,8.0
10,['1'],1,Images/TMTstop-A_1_6linestimulus7.png,Images/TMTstop-A_1_6greenlinestimulus7.png,Images/TMTstop-A_1_6redlinestimulus7.png,TMT_A,A6,135,None,6.0,535,1.0,366.0628967285156,366.0628967285156,0.0,,1.0,1.0,0.0,2,1,0.009880400029942393,0.08591090003028512,366.0628967285156,366.0628967285156,0.0,,9.0
11,['3'],3,Images/TMTstop-A_1_6linestimulus8.png,Images/TMTstop-A_1_6greenlinestimulus8.png,Images/TMTstop-A_1_6redlinestimulus8.png,TMT_A,A6,136,None,6.0,536,1.0,366.23553466796875,366.23553466796875,0.0,,1.0,1.0,0.0,3,0.07453389995498583,366.23553466796875,366.23553466796875,0.0,,10.0
12,['2'],2,Images/TMTstop-A_1_6linestimulus9.png,Images/TMTstop-A_1_6greenlinestimulus9.png,Images/TMTstop-A_1_6redlinestimulus9.png,TMT_A,A6,137,None,6.0,537,1.0,366.3695983886719,366.3695983886719,0.0,,1.0,1.0,0.0,2,-0.004040900035761297,366.3695983886719,366.3695983886719,0.0,,11.0
13,['3'],3,Images/TMTstop-A_1_6linestimulus10.png,Images/TMTstop-A_1_6greenlinestimulus10.png,Images/TMTstop-A_1_6redlinestimulus10.png,TMT_A,A6,138,None,6.0,538,1.0,366.42486572265625,366.42486572265625,0.0,,1.0,1.0,0.0,1,3,0.03569369995966554,0.19902899995213374,366.42486572265625,366.42486572265625,0.0,,12.0
14,['1'],1,Images/TMTstop-A_1_6linestimulus11.png,Images/TMTstop-A_1_6greenlinestimulus11.png,Images/TMTstop-A_1_6redlinestimulus11.png,TMT_A,A6,139,None,6.0,539,1.0,366.68511962890625,366.68511962890625,0.0,,1.0,1.0,0.0,2,1,-0.004813599982298911,0.08955380000406876,366.68511962890625,366.68511962890625,0.0,,13.0
15,['3'],3,Images/TMTstop-A_1_6linestimulus12.png,Images/TMTstop-A_1_6greenlinestimulus12.png,Images/TMTstop-A_1_6redlinestimulus12.png,TMT_A,A6,140,None,6.0,540,1.0,366.8352966308594,366.8352966308594,0.0,,1.0,1.0,0.0,3,0.12256710004294291,366.8352966308594,366.8352966308594,0.0,,14.0
16,['1'],1,Images/TMTstop-A_1_6linestimulus13.png,Images/TMTstop-A_1_6greenlinestimulus13.png,Images/TMTstop-A_1_6redlinestimulus13.png,TMT_A,A6,141,None,6.0,541,1.0,367.0196533203125,367.0196533203125,0.0,,1.0,1.0,0.0,2,1,-0.01282480004010722,0.0750778999645263,367.0196533203125,367.0196533203125,0.0,,15.0
17,['3'],3,Images/TMTstop-A_1_6linestimulus14.png,Images/TMTstop-A_1_6greenlinestimulus14.png,Images/TMTstop-A_1_6redlinestimulus14.png,TMT_A,A6,142,None,6.0,542,1.0,367.1820373535156,367.1820373535156,0.0,,1.0,1.0,0.0,3,0.08536599995568395,367.1820373535156,367.1820373535156,0.0,,16.0
18,['2'],2,Images/TMTstop-A_1_6linestimulus15.png,Images/TMTstop-A_1_6greenlinestimulus15.png,Images/TMTstop-A_1_6redlinestimulus15.png,TMT_A,A6,143,None,6.0,543,1.0,367.3161315917969,367.3161315917969,0.0,,1.0,1.0,0.0,2,0.01762530003907159,367.3161315917969,367.3161315917969,0.0,,17.0
19,['3'],3,Images/TMTstop-A_1_6linestimulus16.png,Images/TMTstop-A_1_6greenlinestimulus16.png,Images/TMTstop-A_1_6redlinestimulus16.png,TMT_A,A6,144,None,6.0,544,1.0,367.3995361328125,367.3995361328125,0.0,,1.0,1.0,0.0,1,3,0.023318499966990203,0.22335809998912737,367.3995361328125,367.3995361328125,0.0,,18.0
20,['1'],1,Images/TMTstop-A_1_6linestimulus17.png,Images/TMTstop-A_1_6greenlinestimulus17.png,Images/TMTstop-A_1_6redlinestimulus17.png,TMT_A,A6,145,None,6.0,545,1.0,367.682861328125,367.682861328125,0.0,,1.0,1.0,0.0,2,1,-0.0031227999716065824,0.10246600001119077,367.682861328125,367.682861328125,0.0,,19.0
21,['2'],2,Images/TMTstop-A_1_6linestimulus18.png,Images/TMTstop-A_1_6greenlinestimulus18.png,Images/TMTstop-A_1_6redlinestimulus18.png,TMT_A,A6,146,None,6.0,546,1.0,367.88336181640625,367.88336181640625,0.0,,1.0,1.0,0.0,3,2,0.1132350999978371,0.17352050001500174,367.88336181640625,367.88336181640625,0.0,,20.0
22,['1'],1,Images/TMTstop-A_1_6linestimulus19.png,Images/TMTstop-A_1_6greenlinestimulus19.png,Images/TMTstop-A_1_6redlinestimulus19.png,TMT_A,A6,147,None,6.0,547,1.0,368.15704345703125,368.15704345703125,0.0,,1.0,1.0,0.0,1,-0.022108100005425513,368.15704345703125,368.15704345703125,0.0,,21.0
23,['2'],2,Images/TMTstop-A_1_6linestimulus20.png,Images/TMTstop-A_1_6greenlinestimulus20.png,Images/TMTstop-A_1_6redlinestimulus20.png,TMT_A,A6,148,None,6.0,548,1.0,368.2077941894531,368.2077941894531,0.0,,1.0,1.0,0.0,2,1.8828830000129528,368.2077941894531,368.2077941894531,0.0,,22.0
24,['3'],3,Images/TMTstop-A_1_6linestimulus21.png,Images/TMTstop-A_1_6greenlinestimulus21.png,Images/TMTstop-A_1_6redlinestimulus21.png,TMT_A,A6,149,None,6.0,549,1.0,370.1548767089844,370.1548767089844,0.0,,1.0,1.0,0.0,3,0.49200510000810027,370.1548767089844,370.1548767089844,0.0,,23.0
25,['2'],2,Images/TMTstop-A_1_6linestimulus22.png,Images/TMTstop-A_1_6greenlinestimulus22.png,Images/TMTstop-A_1_6redlinestimulus22.png,TMT_A,A6,150,None,6.0,550,1.0,370.7132873535156,370.7132873535156,0.0,,1.0,1.0,0.0,2,0.358589600014966,370.7132873535156,370.7132873535156,0.0,,24.0
None,None,None,Images/TMTstop-A_1_6linestimulus23.png,Images/TMTstop-A_1_6greenlinestimulus23.png,Images/TMTstop-A_1_6redlinestimulus23.png,TMT_A,A6,Feedback_last,None,6.0,Feedback_last,1.0,371.13818359375,371.13818359375,0.0,,1.0,1.0,0.0,,'--',371.13818359375,371.13818359375,0.0,,25.0

extraInfo
participant,
session,001
date,2022_Dec_20_1551
expName,TMT_fmri
psychopyVersion,2021.2.3
frameRate,59.8764031355123
﻿NumberLetter,corrAns,Correct,StimFile,Correct_StimFile,False_StimFile,Version,Paper,TrialNumber_Version,Round,Block,TrialNumber_total,n,Stim.started_mean,Stim.started_raw,Stim.started_std,Stim.stopped_raw,key_resp_2.corr_mean,key_resp_2.corr_raw,key_resp_2.corr_std,key_resp_2.keys_raw,key_resp_2.rt_raw,key_resp_2.started_mean,key_resp_2.started_raw,key_resp_2.started_std,key_resp_2.stopped_raw,order
1,['2'],2.0,Images/TMTstop-A_1_7.png,Images/TMTstop-A_1_7.png,Images/TMTstop-A_1_7.png,TMT_A,A7,151.0,None,6.0,551,1.0,375.458740234375,375.458740234375,0.0,,1.0,1.0,0.0,2,1.469212400028482,375.458740234375,375.458740234375,0.0,,0.0
2,['1'],1.0,Images/TMTstop-A_1_7.png,Images/TMTstop-A_1_7firstgreen.png,Images/TMTstop-A_1_7firstred.png,TMT_A,A7,152.0,None,6.0,552,1.0,376.9848937988281,376.9848937988281,0.0,,1.0,1.0,0.0,1,0.6387321999645792,376.9848937988281,376.9848937988281,0.0,,1.0
3,['3'],3.0,Images/TMTstop-A_1_7linestimulus0.png,Images/TMTstop-A_1_7greenlinestimulus0.png,Images/TMTstop-A_1_7redlinestimulus0.png,TMT_A,A7,153.0,None,6.0,553,1.0,377.6934509277344,377.6934509277344,0.0,,1.0,1.0,0.0,3,0.44746029999805614,377.6934509277344,377.6934509277344,0.0,,2.0
4,['2'],2.0,Images/TMTstop-A_1_7linestimulus1.png,Images/TMTstop-A_1_7greenlinestimulus1.png,Images/TMTstop-A_1_7redlinestimulus1.png,TMT_A,A7,154.0,None,6.0,554,1.0,378.20166015625,378.20166015625,0.0,,1.0,1.0,0.0,2,1.1142754000029527,378.20166015625,378.20166015625,0.0,,3.0
5,['3'],3.0,Images/TMTstop-A_1_7linestimulus2.png,Images/TMTstop-A_1_7greenlinestimulus2.png,Images/TMTstop-A_1_7redlinestimulus2.png,TMT_A,A7,155.0,None,6.0,555,1.0,379.377197265625,379.377197265625,0.0,,1.0,1.0,0.0,3,0.3436871999874711,379.377197265625,379.377197265625,0.0,,4.0
6,['1'],1.0,Images/TMTstop-A_1_7linestimulus3.png,Images/TMTstop-A_1_7greenlinestimulus3.png,Images/TMTstop-A_1_7redlinestimulus3.png,TMT_A,A7,156.0,None,6.0,556,1.0,379.7896423339844,379.7896423339844,0.0,,1.0,1.0,0.0,1,0.5758631000062451,379.7896423339844,379.7896423339844,0.0,,5.0
7,['2'],2.0,Images/TMTstop-A_1_7linestimulus4.png,Images/TMTstop-A_1_7greenlinestimulus4.png,Images/TMTstop-A_1_7redlinestimulus4.png,TMT_A,A7,157.0,None,6.0,557,1.0,380.4312744140625,380.4312744140625,0.0,,1.0,1.0,0.0,2,0.26769869995769113,380.4312744140625,380.4312744140625,0.0,,6.0
8,['1'],1.0,Images/TMTstop-A_1_7linestimulus5.png,Images/TMTstop-A_1_7greenlinestimulus5.png,Images/TMTstop-A_1_7redlinestimulus5.png,TMT_A,A7,158.0,None,6.0,558,1.0,380.7562255859375,380.7562255859375,0.0,,1.0,1.0,0.0,1,0.14994560001650825,380.7562255859375,380.7562255859375,0.0,,7.0
9,['2'],2.0,Images/TMTstop-A_1_7linestimulus6.png,Images/TMTstop-A_1_7greenlinestimulus6.png,Images/TMTstop-A_1_7redlinestimulus6.png,TMT_A,A7,159.0,None,6.0,559,1.0,380.96429443359375,380.96429443359375,0.0,,1.0,1.0,0.0,3,2,0.1017924000043422,0.16620099998544902,380.96429443359375,380.96429443359375,0.0,,8.0
10,['3'],3.0,Images/TMTstop-A_1_7linestimulus7.png,Images/TMTstop-A_1_7greenlinestimulus7.png,Images/TMTstop-A_1_7redlinestimulus7.png,TMT_A,A7,160.0,None,6.0,560,1.0,381.1888122558594,381.1888122558594,0.0,,1.0,1.0,0.0,1,3,0.023652700008824468,0.20044059999054298,381.1888122558594,381.1888122558594,0.0,,9.0
11,['2'],2.0,Images/TMTstop-A_1_7linestimulus8.png,Images/TMTstop-A_1_7greenlinestimulus8.png,Images/TMTstop-A_1_7redlinestimulus8.png,TMT_A,A7,161.0,None,6.0,561,1.0,381.4795227050781,381.4795227050781,0.0,,1.0,1.0,0.0,2,-0.042940600018482655,381.4795227050781,381.4795227050781,0.0,,10.0
12,['1'],1.0,Images/TMTstop-A_1_7linestimulus9.png,Images/TMTstop-A_1_7greenlinestimulus9.png,Images/TMTstop-A_1_7redlinestimulus9.png,TMT_A,A7,162.0,None,6.0,562,1.0,381.53057861328125,381.53057861328125,0.0,,1.0,1.0,0.0,1,0.017910499998833984,381.53057861328125,381.53057861328125,0.0,,11.0
13,['3'],3.0,Images/TMTstop-A_1_7linestimulus10.png,Images/TMTstop-A_1_7greenlinestimulus10.png,Images/TMTstop-A_1_7redlinestimulus10.png,TMT_A,A7,163.0,None,6.0,563,1.0,381.6474304199219,381.6474304199219,0.0,,1.0,1.0,0.0,3,0.0714171000290662,381.6474304199219,381.6474304199219,0.0,,12.0
14,['1'],1.0,Images/TMTstop-A_1_7linestimulus11.png,Images/TMTstop-A_1_7greenlinestimulus11.png,Images/TMTstop-A_1_7redlinestimulus11.png,TMT_A,A7,164.0,None,6.0,564,1.0,381.7802734375,381.7802734375,0.0,,1.0,1.0,0.0,2,1,-0.002389199973549694,0.08342129999073222,381.7802734375,381.7802734375,0.0,,13.0
15,['3'],3.0,Images/TMTstop-A_1_7linestimulus12.png,Images/TMTstop-A_1_7greenlinestimulus12.png,Images/TMTstop-A_1_7redlinestimulus12.png,TMT_A,A7,165.0,None,6.0,565,1.0,381.9423828125,381.9423828125,0.0,,1.0,1.0,0.0,3,0.10237929999129847,381.9423828125,381.9423828125,0.0,,14.0
16,['2'],2.0,Images/TMTstop-A_1_7linestimulus13.png,Images/TMTstop-A_1_7greenlinestimulus13.png,Images/TMTstop-A_1_7redlinestimulus13.png,TMT_A,A7,166.0,None,6.0,566,1.0,382.1091613769531,382.1091613769531,0.0,,1.0,1.0,0.0,2,0.0007870999979786575,382.1091613769531,382.1091613769531,0.0,,15.0
17,['3'],3.0,Images/TMTstop-A_1_7linestimulus14.png,Images/TMTstop-A_1_7greenlinestimulus14.png,Images/TMTstop-A_1_7redlinestimulus14.png,TMT_A,A7,167.0,None,6.0,567,1.0,382.1587829589844,382.1587829589844,0.0,,1.0,1.0,0.0,1,3,0.034966500010341406,0.20420679997187108,382.1587829589844,382.1587829589844,0.0,,16.0
18,['2'],2.0,Images/TMTstop-A_1_7linestimulus15.png,Images/TMTstop-A_1_7greenlinestimulus15.png,Images/TMTstop-A_1_7redlinestimulus15.png,TMT_A,A7,168.0,None,6.0,568,1.0,382.4429626464844,382.4429626464844,0.0,,1.0,1.0,0.0,2,-0.02497969998512417,382.4429626464844,382.4429626464844,0.0,,17.0
19,['3'],3.0,Images/TMTstop-A_1_7linestimulus16.png,Images/TMTstop-A_1_7greenlinestimulus16.png,Images/TMTstop-A_1_7redlinestimulus16.png,TMT_A,A7,169.0,None,6.0,569,1.0,382.49237060546875,382.49237060546875,0.0,,1.0,1.0,0.0,1,3,0.011542099993675947,0.20120299997506663,382.49237060546875,382.49237060546875,0.0,,18.0
20,['1'],1.0,Images/TMTstop-A_1_7linestimulus17.png,Images/TMTstop-A_1_7greenlinestimulus17.png,Images/TMTstop-A_1_7redlinestimulus17.png,TMT_A,A7,170.0,None,6.0,570,1.0,382.765869140625,382.765869140625,0.0,,1.0,1.0,0.0,2,1,-0.0349792999913916,0.07514520001132041,382.765869140625,382.765869140625,0.0,,19.0
21,['3'],3.0,Images/TMTstop-A_1_7linestimulus18.png,Images/TMTstop-A_1_7greenlinestimulus18.png,Images/TMTstop-A_1_7redlinestimulus18.png,TMT_A,A7,171.0,None,6.0,571,1.0,382.9154968261719,382.9154968261719,0.0,,1.0,1.0,0.0,3,0.10506999999051914,382.9154968261719,382.9154968261719,0.0,,20.0
22,['1'],1.0,Images/TMTstop-A_1_7linestimulus19.png,Images/TMTstop-A_1_7greenlinestimulus19.png,Images/TMTstop-A_1_7redlinestimulus19.png,TMT_A,A7,172.0,None,6.0,572,1.0,383.0833740234375,383.0833740234375,0.0,,1.0,1.0,0.0,2,1,-0.01232249999884516,0.08248350000940263,383.0833740234375,383.0833740234375,0.0,,21.0
23,['2'],2.0,Images/TMTstop-A_1_7linestimulus20.png,Images/TMTstop-A_1_7greenlinestimulus20.png,Images/TMTstop-A_1_7redlinestimulus20.png,TMT_A,A7,173.0,None,6.0,573,1.0,383.2443542480469,383.2443542480469,0.0,,1.0,1.0,0.0,3,2,0.10795680002775043,0.15044230001512915,383.2443542480469,383.2443542480469,0.0,,22.0
24,['1'],1.0,Images/TMTstop-A_1_7linestimulus21.png,Images/TMTstop-A_1_7greenlinestimulus21.png,Images/TMTstop-A_1_7redlinestimulus21.png,TMT_A,A7,174.0,None,6.0,574,1.0,383.461181640625,383.461181640625,0.0,,1.0,1.0,0.0,1,0.018838200019672513,383.461181640625,383.461181640625,0.0,,23.0
25,['3'],3.0,Images/TMTstop-A_1_7linestimulus22.png,Images/TMTstop-A_1_7greenlinestimulus22.png,Images/TMTstop-A_1_7redlinestimulus22.png,TMT_A,A7,175.0,None,6.0,575,1.0,383.5447692871094,383.5447692871094,0.0,,1.0,1.0,0.0,3,0.3311849999590777,383.5447692871094,383.5447692871094,0.0,,24.0
None,None,None,Images/TMTstop-A_1_7linestimulus23.png,Images/TMTstop-A_1_7greenlinestimulus23.png,Images/TMTstop-A_1_7redlinestimulus23.png,TMT_A,A7,Feedback_last,None,6.0,Feedback_last,1.0,383.935791015625,383.935791015625,0.0,,0.0,0.0,0.0,2,1,-0.05130069999722764,-0.0011113000218756497,383.935791015625,383.935791015625,0.0,,25.0

extraInfo
participant,
session,001
date,2022_Dec_20_1551
expName,TMT_fmri
psychopyVersion,2021.2.3
frameRate,59.8764031355123
﻿NumberLetter,corrAns,Correct,StimFile,Correct_StimFile,False_StimFile,Version,Paper,TrialNumber_Version,Round,Block,TrialNumber_total,n,Stim.started_mean,Stim.started_raw,Stim.started_std,Stim.stopped_raw,key_resp_2.corr_mean,key_resp_2.corr_raw,key_resp_2.corr_std,key_resp_2.keys_raw,key_resp_2.rt_raw,key_resp_2.started_mean,key_resp_2.started_raw,key_resp_2.started_std,key_resp_2.stopped_raw,order
1,['2'],2.0,Images/TMTstop-A_1_8.png,Images/TMTstop-A_1_8.png,Images/TMTstop-A_1_8.png,TMT_A,A8,176.0,None,6.0,576,1.0,388.3644104003906,388.3644104003906,0.0,,1.0,1.0,0.0,3,2,0.6151051000342704,0.6743940000305884,388.3644104003906,388.3644104003906,0.0,,0.0
2,['3'],3.0,Images/TMTstop-A_1_8.png,Images/TMTstop-A_1_8firstgreen.png,Images/TMTstop-A_1_8firstred.png,TMT_A,A8,177.0,None,6.0,577,1.0,389.1049499511719,389.1049499511719,0.0,,1.0,1.0,0.0,1,3,0.023776300018653274,0.24229500000365078,389.1049499511719,389.1049499511719,0.0,,1.0
3,['1'],1.0,Images/TMTstop-A_1_8linestimulus0.png,Images/TMTstop-A_1_8greenlinestimulus0.png,Images/TMTstop-A_1_8redlinestimulus0.png,TMT_A,A8,178.0,None,6.0,578,1.0,389.4621276855469,389.4621276855469,0.0,,1.0,1.0,0.0,2,1,-0.056098799977917224,0.036833400023169816,389.4621276855469,389.4621276855469,0.0,,2.0
4,['2'],2.0,Images/TMTstop-A_1_8linestimulus1.png,Images/TMTstop-A_1_8greenlinestimulus1.png,Images/TMTstop-A_1_8redlinestimulus1.png,TMT_A,A8,179.0,None,6.0,579,1.0,389.56805419921875,389.56805419921875,0.0,,1.0,1.0,0.0,3,2,0.13189300004160032,0.1941192999947816,389.56805419921875,389.56805419921875,0.0,,3.0
5,['1'],1.0,Images/TMTstop-A_1_8linestimulus2.png,Images/TMTstop-A_1_8greenlinestimulus2.png,Images/TMTstop-A_1_8redlinestimulus2.png,TMT_A,A8,180.0,None,6.0,580,1.0,389.82574462890625,389.82574462890625,0.0,,1.0,1.0,0.0,1,0.017155000008642673,389.82574462890625,389.82574462890625,0.0,,4.0
6,['3'],3.0,Images/TMTstop-A_1_8linestimulus3.png,Images/TMTstop-A_1_8greenlinestimulus3.png,Images/TMTstop-A_1_8redlinestimulus3.png,TMT_A,A8,181.0,None,6.0,581,1.0,389.8971862792969,389.8971862792969,0.0,,1.0,1.0,0.0,3,0.17162889998871833,389.8971862792969,389.8971862792969,0.0,,5.0
7,['1'],1.0,Images/TMTstop-A_1_8linestimulus4.png,Images/TMTstop-A_1_8greenlinestimulus4.png,Images/TMTstop-A_1_8redlinestimulus4.png,TMT_A,A8,182.0,None,6.0,582,1.0,390.13848876953125,390.13848876953125,0.0,,1.0,1.0,0.0,2,1,-0.023751200002152473,0.072942599945236,390.13848876953125,390.13848876953125,0.0,,6.0
8,['3'],3.0,Images/TMTstop-A_1_8linestimulus5.png,Images/TMTstop-A_1_8greenlinestimulus5.png,Images/TMTstop-A_1_8redlinestimulus5.png,TMT_A,A8,183.0,None,6.0,583,1.0,390.3017883300781,390.3017883300781,0.0,,1.0,1.0,0.0,3,0.10650080000050366,390.3017883300781,390.3017883300781,0.0,,7.0
9,['2'],2.0,Images/TMTstop-A_1_8linestimulus6.png,Images/TMTstop-A_1_8greenlinestimulus6.png,Images/TMTstop-A_1_8redlinestimulus6.png,TMT_A,A8,184.0,None,6.0,584,1.0,390.4685974121094,390.4685974121094,0.0,,1.0,1.0,0.0,2,0.047244699962902814,390.4685974121094,390.4685974121094,0.0,,8.0
10,['1'],1.0,Images/TMTstop-A_1_8linestimulus7.png,Images/TMTstop-A_1_8greenlinestimulus7.png,Images/TMTstop-A_1_8redlinestimulus7.png,TMT_A,A8,185.0,None,6.0,585,1.0,390.5687561035156,390.5687561035156,0.0,,1.0,1.0,0.0,1,-0.01172700000461191,390.5687561035156,390.5687561035156,0.0,,9.0
11,['2'],2.0,Images/TMTstop-A_1_8linestimulus8.png,Images/TMTstop-A_1_8greenlinestimulus8.png,Images/TMTstop-A_1_8redlinestimulus8.png,TMT_A,A8,186.0,None,6.0,586,1.0,390.6181945800781,390.6181945800781,0.0,,1.0,1.0,0.0,3,2,0.15103649999946356,0.20064240001374856,390.6181945800781,390.6181945800781,0.0,,10.0
12,['1'],1.0,Images/TMTstop-A_1_8linestimulus9.png,Images/TMTstop-A_1_8greenlinestimulus9.png,Images/TMTstop-A_1_8redlinestimulus9.png,TMT_A,A8,187.0,None,6.0,587,1.0,390.87640380859375,390.87640380859375,0.0,,1.0,1.0,0.0,1,0.07025879999855533,390.87640380859375,390.87640380859375,0.0,,11.0
13,['3'],3.0,Images/TMTstop-A_1_8linestimulus10.png,Images/TMTstop-A_1_8greenlinestimulus10.png,Images/TMTstop-A_1_8redlinestimulus10.png,TMT_A,A8,188.0,None,6.0,588,1.0,391.01019287109375,391.01019287109375,0.0,,1.0,1.0,0.0,3,0.15363979997346178,391.01019287109375,391.01019287109375,0.0,,12.0
14,['2'],2.0,Images/TMTstop-A_1_8linestimulus11.png,Images/TMTstop-A_1_8greenlinestimulus11.png,Images/TMTstop-A_1_8redlinestimulus11.png,TMT_A,A8,189.0,None,6.0,589,1.0,391.23492431640625,391.23492431640625,0.0,,1.0,1.0,0.0,2,-0.025866599986329675,391.23492431640625,391.23492431640625,0.0,,13.0
15,['1'],1.0,Images/TMTstop-A_1_8linestimulus12.png,Images/TMTstop-A_1_8greenlinestimulus12.png,Images/TMTstop-A_1_8redlinestimulus12.png,TMT_A,A8,190.0,None,6.0,590,1.0,391.2850646972656,391.2850646972656,0.0,,1.0,1.0,0.0,1,0.023017700004857033,391.2850646972656,391.2850646972656,0.0,,14.0
16,['3'],3.0,Images/TMTstop-A_1_8linestimulus13.png,Images/TMTstop-A_1_8greenlinestimulus13.png,Images/TMTstop-A_1_8redlinestimulus13.png,TMT_A,A8,191.0,None,6.0,591,1.0,391.36846923828125,391.36846923828125,0.0,,1.0,1.0,0.0,3,0.15117280004778877,391.36846923828125,391.36846923828125,0.0,,15.0
17,['1'],1.0,Images/TMTstop-A_1_8linestimulus14.png,Images/TMTstop-A_1_8greenlinestimulus14.png,Images/TMTstop-A_1_8redlinestimulus14.png,TMT_A,A8,192.0,None,6.0,592,1.0,391.5762939453125,391.5762939453125,0.0,,1.0,1.0,0.0,2,1,0.010635400016326457,0.08773570001358166,391.5762939453125,391.5762939453125,0.0,,16.0
18,['2'],2.0,Images/TMTstop-A_1_8linestimulus15.png,Images/TMTstop-A_1_8greenlinestimulus15.png,Images/TMTstop-A_1_8redlinestimulus15.png,TMT_A,A8,193.0,None,6.0,593,1.0,391.74993896484375,391.74993896484375,0.0,,1.0,1.0,0.0,3,2,0.1749464999884367,0.237032100034412,391.74993896484375,391.74993896484375,0.0,,17.0
19,['1'],1.0,Images/TMTstop-A_1_8linestimulus16.png,Images/TMTstop-A_1_8greenlinestimulus16.png,Images/TMTstop-A_1_8redlinestimulus16.png,TMT_A,A8,194.0,None,6.0,594,1.0,392.07391357421875,392.07391357421875,0.0,,1.0,1.0,0.0,1,-0.016214300005231053,392.07391357421875,392.07391357421875,0.0,,18.0
20,['3'],3.0,Images/TMTstop-A_1_8linestimulus17.png,Images/TMTstop-A_1_8greenlinestimulus17.png,Images/TMTstop-A_1_8redlinestimulus17.png,TMT_A,A8,195.0,None,6.0,595,1.0,392.1313781738281,392.1313781738281,0.0,,1.0,1.0,0.0,3,0.14994400000432506,392.1313781738281,392.1313781738281,0.0,,19.0
21,['1'],1.0,Images/TMTstop-A_1_8linestimulus18.png,Images/TMTstop-A_1_8greenlinestimulus18.png,Images/TMTstop-A_1_8redlinestimulus18.png,TMT_A,A8,196.0,None,6.0,596,1.0,392.3387756347656,392.3387756347656,0.0,,1.0,1.0,0.0,2,1,-0.0009500000160187483,0.08711299998685718,392.3387756347656,392.3387756347656,0.0,,20.0
22,['2'],2.0,Images/TMTstop-A_1_8linestimulus19.png,Images/TMTstop-A_1_8greenlinestimulus19.png,Images/TMTstop-A_1_8redlinestimulus19.png,TMT_A,A8,197.0,None,6.0,597,1.0,392.4957580566406,392.4957580566406,0.0,,1.0,1.0,0.0,3,2,0.14023709995672107,0.1892905999557115,392.4957580566406,392.4957580566406,0.0,,21.0
23,['3'],3.0,Images/TMTstop-A_1_8linestimulus20.png,Images/TMTstop-A_1_8greenlinestimulus20.png,Images/TMTstop-A_1_8redlinestimulus20.png,TMT_A,A8,198.0,None,6.0,598,1.0,392.75421142578125,392.75421142578125,0.0,,1.0,1.0,0.0,1,3,0.03886560001410544,0.24962580000283197,392.75421142578125,392.75421142578125,0.0,,22.0
24,['1'],1.0,Images/TMTstop-A_1_8linestimulus21.png,Images/TMTstop-A_1_8greenlinestimulus21.png,Images/TMTstop-A_1_8redlinestimulus21.png,TMT_A,A8,199.0,None,6.0,599,1.0,393.06793212890625,393.06793212890625,0.0,,1.0,1.0,0.0,2,1,-0.001860199961811304,0.08426130004227161,393.06793212890625,393.06793212890625,0.0,,23.0
25,['3'],3.0,Images/TMTstop-A_1_8linestimulus22.png,Images/TMTstop-A_1_8greenlinestimulus22.png,Images/TMTstop-A_1_8redlinestimulus22.png,TMT_A,A8,200.0,None,6.0,600,1.0,393.22137451171875,393.22137451171875,0.0,,1.0,1.0,0.0,3,0.1903535000164993,393.22137451171875,393.22137451171875,0.0,,24.0
None,None,None,Images/TMTstop-A_1_8linestimulus23.png,Images/TMTstop-A_1_8greenlinestimulus23.png,Images/TMTstop-A_1_8redlinestimulus23.png,TMT_A,A8,Feedback_last,None,6.0,Feedback_last,1.0,393.48040771484375,393.48040771484375,0.0,,0.0,0.0,0.0,2,1,0.04355129995383322,0.050070199999026954,393.48040771484375,393.48040771484375,0.0,,25.0

extraInfo
participant,
session,001
date,2022_Dec_20_1551
expName,TMT_fmri
psychopyVersion,2021.2.3
frameRate,59.8764031355123
