NumberLetter,corrAns,Correct,StimFile,Correct_StimFile,False_StimFile,Version,Paper,TrialNumber_Version,Round,Block,TrialNumber_total,n,Stim.started_mean,Stim.started_raw,Stim.started_std,Stim.stopped_raw,key_resp_2.corr_mean,key_resp_2.corr_raw,key_resp_2.corr_std,key_resp_2.keys_raw,key_resp_2.rt_raw,key_resp_2.started_mean,key_resp_2.started_raw,key_resp_2.started_std,key_resp_2.stopped_raw,order
1,['2'],2,Images/TMTstop-A_1_5.png,Images/TMTstop-A_1_5.png,Images/TMTstop-A_1_5.png,TMT_A,A5,101,6.0,6.0,501,1.0,402.0815734863281,402.0815734863281,0.0,,1.0,1.0,0.0,1,1,2,1.1413387999637052,1.2612427999847569,1.4474395999568515,402.0815734863281,402.0815734863281,0.0,,0.0
2,['1'],1,Images/TMTstop-A_1_5.png,Images/TMTstop-A_1_5firstgreen.png,Images/TMTstop-A_1_5firstred.png,TMT_A,A5,102,None,6.0,502,1.0,403.6040954589844,403.6040954589844,0.0,,1.0,1.0,0.0,3,1,-0.0052494999836198986,0.14933009998640046,403.6040954589844,403.6040954589844,0.0,,1.0
3,['3'],3,Images/TMTstop-A_1_5linestimulus0.png,Images/TMTstop-A_1_5greenlinestimulus0.png,Images/TMTstop-A_1_5redlinestimulus0.png,TMT_A,A5,103,None,6.0,503,1.0,403.8043518066406,403.8043518066406,0.0,,1.0,1.0,0.0,2,3,0.040980199992191046,0.09895979997236282,403.8043518066406,403.8043518066406,0.0,,2.0
4,['1'],1,Images/TMTstop-A_1_5linestimulus1.png,Images/TMTstop-A_1_5greenlinestimulus1.png,Images/TMTstop-A_1_5redlinestimulus1.png,TMT_A,A5,104,None,6.0,504,1.0,403.9617004394531,403.9617004394531,0.0,,1.0,1.0,0.0,1,0.10530420002760366,403.9617004394531,403.9617004394531,0.0,,3.0
5,['2'],2,Images/TMTstop-A_1_5linestimulus2.png,Images/TMTstop-A_1_5greenlinestimulus2.png,Images/TMTstop-A_1_5redlinestimulus2.png,TMT_A,A5,105,None,6.0,505,1.0,404.1285400390625,404.1285400390625,0.0,,1.0,1.0,0.0,2,-0.011621400015428662,404.1285400390625,404.1285400390625,0.0,,4.0
6,['1'],1,Images/TMTstop-A_1_5linestimulus3.png,Images/TMTstop-A_1_5greenlinestimulus3.png,Images/TMTstop-A_1_5redlinestimulus3.png,TMT_A,A5,106,None,6.0,506,1.0,404.1781921386719,404.1781921386719,0.0,,1.0,1.0,0.0,3,1,0.046077099977992475,0.20999569998821244,404.1781921386719,404.1781921386719,0.0,,5.0
7,['3'],3,Images/TMTstop-A_1_5linestimulus4.png,Images/TMTstop-A_1_5greenlinestimulus4.png,Images/TMTstop-A_1_5redlinestimulus4.png,TMT_A,A5,107,None,6.0,507,1.0,404.439453125,404.439453125,0.0,,1.0,1.0,0.0,2,3,0.04734450002433732,0.1396898000384681,404.439453125,404.439453125,0.0,,6.0
8,['2'],2,Images/TMTstop-A_1_5linestimulus5.png,Images/TMTstop-A_1_5greenlinestimulus5.png,Images/TMTstop-A_1_5redlinestimulus5.png,TMT_A,A5,108,None,6.0,508,1.0,404.6396789550781,404.6396789550781,0.0,,1.0,1.0,0.0,1,2,0.14240149996476248,0.17207119998056442,404.6396789550781,404.6396789550781,0.0,,7.0
9,['3'],3,Images/TMTstop-A_1_5linestimulus6.png,Images/TMTstop-A_1_5greenlinestimulus6.png,Images/TMTstop-A_1_5redlinestimulus6.png,TMT_A,A5,109,None,6.0,509,1.0,404.895263671875,404.895263671875,0.0,,1.0,1.0,0.0,3,0.033020000031683594,404.895263671875,404.895263671875,0.0,,8.0
10,['1'],1,Images/TMTstop-A_1_5linestimulus7.png,Images/TMTstop-A_1_5greenlinestimulus7.png,Images/TMTstop-A_1_5redlinestimulus7.png,TMT_A,A5,110,None,6.0,510,1.0,404.97808837890625,404.97808837890625,0.0,,1.0,1.0,0.0,1,0.1222758999792859,404.97808837890625,404.97808837890625,0.0,,9.0
11,['3'],3,Images/TMTstop-A_1_5linestimulus8.png,Images/TMTstop-A_1_5greenlinestimulus8.png,Images/TMTstop-A_1_5redlinestimulus8.png,TMT_A,A5,111,None,6.0,511,1.0,405.169921875,405.169921875,0.0,,1.0,1.0,0.0,2,3,-0.006779499992262572,0.07946320000337437,405.169921875,405.169921875,0.0,,10.0
12,['2'],2,Images/TMTstop-A_1_5linestimulus9.png,Images/TMTstop-A_1_5greenlinestimulus9.png,Images/TMTstop-A_1_5redlinestimulus9.png,TMT_A,A5,112,None,6.0,512,1.0,405.3268127441406,405.3268127441406,0.0,,1.0,1.0,0.0,1,2,0.2840279000229202,0.34512330003781244,405.3268127441406,405.3268127441406,0.0,,11.0
13,['3'],3,Images/TMTstop-A_1_5linestimulus10.png,Images/TMTstop-A_1_5greenlinestimulus10.png,Images/TMTstop-A_1_5redlinestimulus10.png,TMT_A,A5,113,None,6.0,513,1.0,405.7736511230469,405.7736511230469,0.0,,1.0,1.0,0.0,3,-0.02650590002303943,405.7736511230469,405.7736511230469,0.0,,12.0
14,['2'],2,Images/TMTstop-A_1_5linestimulus11.png,Images/TMTstop-A_1_5greenlinestimulus11.png,Images/TMTstop-A_1_5redlinestimulus11.png,TMT_A,A5,114,None,6.0,514,1.0,405.8313903808594,405.8313903808594,0.0,,1.0,1.0,0.0,1,2,0.10269339999649674,0.12982540001394227,405.8313903808594,405.8313903808594,0.0,,13.0
15,['3'],3,Images/TMTstop-A_1_5linestimulus12.png,Images/TMTstop-A_1_5greenlinestimulus12.png,Images/TMTstop-A_1_5redlinestimulus12.png,TMT_A,A5,115,None,6.0,515,1.0,406.04827880859375,406.04827880859375,0.0,,1.0,1.0,0.0,3,0.038632100040558726,406.04827880859375,406.04827880859375,0.0,,14.0
16,['2'],2,Images/TMTstop-A_1_5linestimulus13.png,Images/TMTstop-A_1_5greenlinestimulus13.png,Images/TMTstop-A_1_5redlinestimulus13.png,TMT_A,A5,116,None,6.0,516,1.0,406.1484375,406.1484375,0.0,,1.0,1.0,0.0,1,2,0.10360770003171638,0.16220459999749437,406.1484375,406.1484375,0.0,,15.0
17,['1'],1,Images/TMTstop-A_1_5linestimulus14.png,Images/TMTstop-A_1_5greenlinestimulus14.png,Images/TMTstop-A_1_5redlinestimulus14.png,TMT_A,A5,117,None,6.0,517,1.0,406.3653564453125,406.3653564453125,0.0,,1.0,1.0,0.0,3,1,0.03959129995200783,0.19218109996290877,406.3653564453125,406.3653564453125,0.0,,16.0
18,['3'],3,Images/TMTstop-A_1_5linestimulus15.png,Images/TMTstop-A_1_5greenlinestimulus15.png,Images/TMTstop-A_1_5redlinestimulus15.png,TMT_A,A5,118,None,6.0,518,1.0,406.6285095214844,406.6285095214844,0.0,,1.0,1.0,0.0,2,3,0.00039299996569752693,0.07845759997144341,406.6285095214844,406.6285095214844,0.0,,17.0
19,['2'],2,Images/TMTstop-A_1_5linestimulus16.png,Images/TMTstop-A_1_5greenlinestimulus16.png,Images/TMTstop-A_1_5redlinestimulus16.png,TMT_A,A5,119,None,6.0,519,1.0,406.7784729003906,406.7784729003906,0.0,,1.0,1.0,0.0,1,2,0.10266720002982765,0.1358961000223644,406.7784729003906,406.7784729003906,0.0,,18.0
20,['1'],1,Images/TMTstop-A_1_5linestimulus17.png,Images/TMTstop-A_1_5greenlinestimulus17.png,Images/TMTstop-A_1_5redlinestimulus17.png,TMT_A,A5,120,None,6.0,520,1.0,406.9992370605469,406.9992370605469,0.0,,1.0,1.0,0.0,3,1,0.028781300003174692,0.19476949999807402,406.9992370605469,406.9992370605469,0.0,,19.0
21,['2'],2,Images/TMTstop-A_1_5linestimulus18.png,Images/TMTstop-A_1_5greenlinestimulus18.png,Images/TMTstop-A_1_5redlinestimulus18.png,TMT_A,A5,121,None,6.0,521,1.0,407.29022216796875,407.29022216796875,0.0,,1.0,1.0,0.0,2,-0.033102600020356476,407.29022216796875,407.29022216796875,0.0,,20.0
22,['3'],3,Images/TMTstop-A_1_5linestimulus19.png,Images/TMTstop-A_1_5greenlinestimulus19.png,Images/TMTstop-A_1_5redlinestimulus19.png,TMT_A,A5,122,None,6.0,522,1.0,407.3421325683594,407.3421325683594,0.0,,1.0,1.0,0.0,3,-0.008229299972299486,407.3421325683594,407.3421325683594,0.0,,21.0
23,['2'],2,Images/TMTstop-A_1_5linestimulus20.png,Images/TMTstop-A_1_5greenlinestimulus20.png,Images/TMTstop-A_1_5redlinestimulus20.png,TMT_A,A5,123,None,6.0,523,1.0,407.3929138183594,407.3929138183594,0.0,,1.0,1.0,0.0,1,2,0.11304379999637604,0.398222399991937,407.3929138183594,407.3929138183594,0.0,,22.0
24,['3'],3,Images/TMTstop-A_1_5linestimulus21.png,Images/TMTstop-A_1_5greenlinestimulus21.png,Images/TMTstop-A_1_5redlinestimulus21.png,TMT_A,A5,124,None,6.0,524,1.0,407.8725891113281,407.8725891113281,0.0,,1.0,1.0,0.0,3,0.012939799984451383,407.8725891113281,407.8725891113281,0.0,,23.0
25,['1'],1,Images/TMTstop-A_1_5linestimulus22.png,Images/TMTstop-A_1_5greenlinestimulus22.png,Images/TMTstop-A_1_5redlinestimulus22.png,TMT_A,A5,125,None,6.0,525,1.0,407.9612731933594,407.9612731933594,0.0,,1.0,1.0,0.0,1,0.0664960999856703,407.9612731933594,407.9612731933594,0.0,,24.0
None,None,None,Images/TMTstop-A_1_5linestimulus23.png,Images/TMTstop-A_1_5greenlinestimulus23.png,Images/TMTstop-A_1_5redlinestimulus23.png,TMT_A,A5,Feedback_last,None,6.0,Feedback_last,1.0,408.0775146484375,408.0775146484375,0.0,,0.0,0.0,0.0,2,3,0.034901399980299175,0.09879690001253039,408.0775146484375,408.0775146484375,0.0,,25.0

extraInfo
participant,
session,001
date,2022_Dec_20_1655
expName,TMT_fmri
psychopyVersion,2021.2.3
frameRate,59.88583364190807
﻿NumberLetter,corrAns,Correct,StimFile,Correct_StimFile,False_StimFile,Version,Paper,TrialNumber_Version,Round,Block,TrialNumber_total,n,Stim.started_mean,Stim.started_raw,Stim.started_std,Stim.stopped_raw,key_resp_2.corr_mean,key_resp_2.corr_raw,key_resp_2.corr_std,key_resp_2.keys_raw,key_resp_2.rt_raw,key_resp_2.started_mean,key_resp_2.started_raw,key_resp_2.started_std,key_resp_2.stopped_raw,order
1,['3'],3,Images/TMTstop-A_1_6.png,Images/TMTstop-A_1_6.png,Images/TMTstop-A_1_6.png,TMT_A,A6,126,None,6.0,526,1.0,412.5240783691406,412.5240783691406,0.0,,1.0,1.0,0.0,1,2,3,0.5541502999840304,0.6410936000174843,0.7191978999762796,412.5240783691406,412.5240783691406,0.0,,0.0
2,['1'],1,Images/TMTstop-A_1_6.png,Images/TMTstop-A_1_6firstgreen.png,Images/TMTstop-A_1_6firstred.png,TMT_A,A6,127,None,6.0,527,1.0,413.3465881347656,413.3465881347656,0.0,,1.0,1.0,0.0,1,0.07772030000342056,413.3465881347656,413.3465881347656,0.0,,1.0
3,['2'],2,Images/TMTstop-A_1_6linestimulus0.png,Images/TMTstop-A_1_6greenlinestimulus0.png,Images/TMTstop-A_1_6redlinestimulus0.png,TMT_A,A6,128,None,6.0,528,1.0,413.4800720214844,413.4800720214844,0.0,,1.0,1.0,0.0,2,-0.011674800014588982,413.4800720214844,413.4800720214844,0.0,,2.0
4,['1'],1,Images/TMTstop-A_1_6linestimulus1.png,Images/TMTstop-A_1_6greenlinestimulus1.png,Images/TMTstop-A_1_6redlinestimulus1.png,TMT_A,A6,129,None,6.0,529,1.0,413.5350341796875,413.5350341796875,0.0,,1.0,1.0,0.0,3,1,0.021995499962940812,0.21410459995968267,413.5350341796875,413.5350341796875,0.0,,3.0
5,['2'],2,Images/TMTstop-A_1_6linestimulus2.png,Images/TMTstop-A_1_6greenlinestimulus2.png,Images/TMTstop-A_1_6redlinestimulus2.png,TMT_A,A6,130,None,6.0,530,1.0,413.824462890625,413.824462890625,0.0,,1.0,1.0,0.0,2,-0.04656190000241622,413.824462890625,413.824462890625,0.0,,4.0
6,['3'],3,Images/TMTstop-A_1_6linestimulus3.png,Images/TMTstop-A_1_6greenlinestimulus3.png,Images/TMTstop-A_1_6redlinestimulus3.png,TMT_A,A6,131,None,6.0,531,1.0,413.8761901855469,413.8761901855469,0.0,,1.0,1.0,0.0,3,0.020674999977927655,413.8761901855469,413.8761901855469,0.0,,5.0
7,['2'],2,Images/TMTstop-A_1_6linestimulus4.png,Images/TMTstop-A_1_6greenlinestimulus4.png,Images/TMTstop-A_1_6redlinestimulus4.png,TMT_A,A6,132,None,6.0,532,1.0,413.9638977050781,413.9638977050781,0.0,,1.0,1.0,0.0,1,2,0.1039195999619551,0.13171719998354092,413.9638977050781,413.9638977050781,0.0,,6.0
8,['1'],1,Images/TMTstop-A_1_6linestimulus5.png,Images/TMTstop-A_1_6greenlinestimulus5.png,Images/TMTstop-A_1_6redlinestimulus5.png,TMT_A,A6,133,None,6.0,533,1.0,414.180908203125,414.180908203125,0.0,,1.0,1.0,0.0,3,1,2,3,1,0.026064999983645976,0.18533529998967424,0.233057799981907,0.3214841999579221,0.5181949000107124,414.180908203125,414.180908203125,0.0,,7.0
9,['3'],3,Images/TMTstop-A_1_6linestimulus6.png,Images/TMTstop-A_1_6greenlinestimulus6.png,Images/TMTstop-A_1_6redlinestimulus6.png,TMT_A,A6,134,None,6.0,534,1.0,414.764892578125,414.764892578125,0.0,,1.0,1.0,0.0,2,3,-0.03152149997185916,0.07848630001535639,414.764892578125,414.764892578125,0.0,,8.0
10,['1'],1,Images/TMTstop-A_1_6linestimulus7.png,Images/TMTstop-A_1_6greenlinestimulus7.png,Images/TMTstop-A_1_6redlinestimulus7.png,TMT_A,A6,135,None,6.0,535,1.0,414.9464416503906,414.9464416503906,0.0,,1.0,1.0,0.0,1,0.06253339996328577,414.9464416503906,414.9464416503906,0.0,,9.0
11,['3'],3,Images/TMTstop-A_1_6linestimulus8.png,Images/TMTstop-A_1_6greenlinestimulus8.png,Images/TMTstop-A_1_6redlinestimulus8.png,TMT_A,A6,136,None,6.0,536,1.0,415.0672302246094,415.0672302246094,0.0,,1.0,1.0,0.0,2,3,-0.008814500004518777,0.08466819999739528,415.0672302246094,415.0672302246094,0.0,,10.0
12,['2'],2,Images/TMTstop-A_1_6linestimulus9.png,Images/TMTstop-A_1_6greenlinestimulus9.png,Images/TMTstop-A_1_6redlinestimulus9.png,TMT_A,A6,137,None,6.0,537,1.0,415.22430419921875,415.22430419921875,0.0,,1.0,1.0,0.0,1,2,0.09401830000570044,0.1459233000059612,415.22430419921875,415.22430419921875,0.0,,11.0
13,['3'],3,Images/TMTstop-A_1_6linestimulus10.png,Images/TMTstop-A_1_6greenlinestimulus10.png,Images/TMTstop-A_1_6redlinestimulus10.png,TMT_A,A6,138,None,6.0,538,1.0,415.42449951171875,415.42449951171875,0.0,,1.0,1.0,0.0,3,0.05368579999776557,415.42449951171875,415.42449951171875,0.0,,12.0
14,['1'],1,Images/TMTstop-A_1_6linestimulus11.png,Images/TMTstop-A_1_6greenlinestimulus11.png,Images/TMTstop-A_1_6redlinestimulus11.png,TMT_A,A6,139,None,6.0,539,1.0,415.5414123535156,415.5414123535156,0.0,,1.0,1.0,0.0,1,0.09429249999811873,415.5414123535156,415.5414123535156,0.0,,13.0
15,['3'],3,Images/TMTstop-A_1_6linestimulus12.png,Images/TMTstop-A_1_6greenlinestimulus12.png,Images/TMTstop-A_1_6redlinestimulus12.png,TMT_A,A6,140,None,6.0,540,1.0,415.6911926269531,415.6911926269531,0.0,,1.0,1.0,0.0,2,3,-0.0044451000285334885,0.08302949997596443,415.6911926269531,415.6911926269531,0.0,,14.0
16,['1'],1,Images/TMTstop-A_1_6linestimulus13.png,Images/TMTstop-A_1_6greenlinestimulus13.png,Images/TMTstop-A_1_6redlinestimulus13.png,TMT_A,A6,141,None,6.0,541,1.0,415.8537292480469,415.8537292480469,0.0,,1.0,1.0,0.0,1,0.10162780003156513,415.8537292480469,415.8537292480469,0.0,,15.0
17,['3'],3,Images/TMTstop-A_1_6linestimulus14.png,Images/TMTstop-A_1_6greenlinestimulus14.png,Images/TMTstop-A_1_6redlinestimulus14.png,TMT_A,A6,142,None,6.0,542,1.0,416.00439453125,416.00439453125,0.0,,1.0,1.0,0.0,2,3,-0.009009299974422902,0.11709529999643564,416.00439453125,416.00439453125,0.0,,16.0
18,['2'],2,Images/TMTstop-A_1_6linestimulus15.png,Images/TMTstop-A_1_6greenlinestimulus15.png,Images/TMTstop-A_1_6redlinestimulus15.png,TMT_A,A6,143,None,6.0,543,1.0,416.21051025390625,416.21051025390625,0.0,,1.0,1.0,0.0,1,2,0.08751029998529702,0.11747470003319904,416.21051025390625,416.21051025390625,0.0,,17.0
19,['3'],3,Images/TMTstop-A_1_6linestimulus16.png,Images/TMTstop-A_1_6greenlinestimulus16.png,Images/TMTstop-A_1_6redlinestimulus16.png,TMT_A,A6,144,None,6.0,544,1.0,416.4110412597656,416.4110412597656,0.0,,1.0,1.0,0.0,3,0.06295140000293031,416.4110412597656,416.4110412597656,0.0,,18.0
20,['1'],1,Images/TMTstop-A_1_6linestimulus17.png,Images/TMTstop-A_1_6greenlinestimulus17.png,Images/TMTstop-A_1_6redlinestimulus17.png,TMT_A,A6,145,None,6.0,545,1.0,416.5280456542969,416.5280456542969,0.0,,1.0,1.0,0.0,1,0.1200117000262253,416.5280456542969,416.5280456542969,0.0,,19.0
21,['2'],2,Images/TMTstop-A_1_6linestimulus18.png,Images/TMTstop-A_1_6greenlinestimulus18.png,Images/TMTstop-A_1_6redlinestimulus18.png,TMT_A,A6,146,None,6.0,546,1.0,416.7193908691406,416.7193908691406,0.0,,1.0,1.0,0.0,2,-0.012591399950906634,416.7193908691406,416.7193908691406,0.0,,20.0
22,['1'],1,Images/TMTstop-A_1_6linestimulus19.png,Images/TMTstop-A_1_6greenlinestimulus19.png,Images/TMTstop-A_1_6redlinestimulus19.png,TMT_A,A6,147,None,6.0,547,1.0,416.7694091796875,416.7694091796875,0.0,,1.0,1.0,0.0,3,1,0.034028800029773265,0.19393990002572536,416.7694091796875,416.7694091796875,0.0,,21.0
23,['2'],2,Images/TMTstop-A_1_6linestimulus20.png,Images/TMTstop-A_1_6greenlinestimulus20.png,Images/TMTstop-A_1_6redlinestimulus20.png,TMT_A,A6,148,None,6.0,548,1.0,417.0196533203125,417.0196533203125,0.0,,1.0,1.0,0.0,2,-0.0015223000082187355,417.0196533203125,417.0196533203125,0.0,,22.0
24,['3'],3,Images/TMTstop-A_1_6linestimulus21.png,Images/TMTstop-A_1_6greenlinestimulus21.png,Images/TMTstop-A_1_6redlinestimulus21.png,TMT_A,A6,149,None,6.0,549,1.0,417.0708312988281,417.0708312988281,0.0,,1.0,1.0,0.0,3,0.042019099986646324,417.0708312988281,417.0708312988281,0.0,,23.0
25,['2'],2,Images/TMTstop-A_1_6linestimulus22.png,Images/TMTstop-A_1_6greenlinestimulus22.png,Images/TMTstop-A_1_6redlinestimulus22.png,TMT_A,A6,150,None,6.0,550,1.0,417.1713562011719,417.1713562011719,0.0,,1.0,1.0,0.0,1,2,0.12963540002238005,0.1585291000083089,417.1713562011719,417.1713562011719,0.0,,24.0
None,None,None,Images/TMTstop-A_1_6linestimulus23.png,Images/TMTstop-A_1_6greenlinestimulus23.png,Images/TMTstop-A_1_6redlinestimulus23.png,TMT_A,A6,Feedback_last,None,6.0,Feedback_last,1.0,417.4044189453125,417.4044189453125,0.0,,0.0,0.0,0.0,3,1,2,3,0.045891799964010715,0.21891120000509545,0.2601196999894455,0.3890022999839857,417.4044189453125,417.4044189453125,0.0,,25.0

extraInfo
participant,
session,001
date,2022_Dec_20_1655
expName,TMT_fmri
psychopyVersion,2021.2.3
frameRate,59.88583364190807
﻿NumberLetter,corrAns,Correct,StimFile,Correct_StimFile,False_StimFile,Version,Paper,TrialNumber_Version,Round,Block,TrialNumber_total,n,Stim.started_mean,Stim.started_raw,Stim.started_std,Stim.stopped_raw,key_resp_2.corr_mean,key_resp_2.corr_raw,key_resp_2.corr_std,key_resp_2.keys_raw,key_resp_2.rt_raw,key_resp_2.started_mean,key_resp_2.started_raw,key_resp_2.started_std,key_resp_2.stopped_raw,order
1,['2'],2.0,Images/TMTstop-A_1_7.png,Images/TMTstop-A_1_7.png,Images/TMTstop-A_1_7.png,TMT_A,A7,151.0,None,6.0,551,1.0,421.796142578125,421.796142578125,0.0,,1.0,1.0,0.0,1,2,0.6364094000309706,0.7014928000280634,421.796142578125,421.796142578125,0.0,,0.0
2,['1'],1.0,Images/TMTstop-A_1_7.png,Images/TMTstop-A_1_7firstgreen.png,Images/TMTstop-A_1_7firstred.png,TMT_A,A7,152.0,None,6.0,552,1.0,422.5876159667969,422.5876159667969,0.0,,1.0,1.0,0.0,3,1,-0.005421000008936971,0.18990109994774684,422.5876159667969,422.5876159667969,0.0,,1.0
3,['3'],3.0,Images/TMTstop-A_1_7linestimulus0.png,Images/TMTstop-A_1_7greenlinestimulus0.png,Images/TMTstop-A_1_7redlinestimulus0.png,TMT_A,A7,153.0,None,6.0,553,1.0,422.8509826660156,422.8509826660156,0.0,,1.0,1.0,0.0,2,3,-0.04355309996753931,0.07839740003691986,422.8509826660156,422.8509826660156,0.0,,2.0
4,['2'],2.0,Images/TMTstop-A_1_7linestimulus1.png,Images/TMTstop-A_1_7greenlinestimulus1.png,Images/TMTstop-A_1_7redlinestimulus1.png,TMT_A,A7,154.0,None,6.0,554,1.0,423.00140380859375,423.00140380859375,0.0,,1.0,1.0,0.0,1,2,0.14096369995968416,0.1955424000043422,423.00140380859375,423.00140380859375,0.0,,3.0
5,['3'],3.0,Images/TMTstop-A_1_7linestimulus2.png,Images/TMTstop-A_1_7greenlinestimulus2.png,Images/TMTstop-A_1_7redlinestimulus2.png,TMT_A,A7,155.0,None,6.0,555,1.0,423.2513122558594,423.2513122558594,0.0,,1.0,1.0,0.0,3,0.11081240000203252,423.2513122558594,423.2513122558594,0.0,,4.0
6,['1'],1.0,Images/TMTstop-A_1_7linestimulus3.png,Images/TMTstop-A_1_7greenlinestimulus3.png,Images/TMTstop-A_1_7redlinestimulus3.png,TMT_A,A7,156.0,None,6.0,556,1.0,423.42578125,423.42578125,0.0,,1.0,1.0,0.0,1,0.16361059999326244,423.42578125,423.42578125,0.0,,5.0
7,['2'],2.0,Images/TMTstop-A_1_7linestimulus4.png,Images/TMTstop-A_1_7greenlinestimulus4.png,Images/TMTstop-A_1_7redlinestimulus4.png,TMT_A,A7,157.0,None,6.0,557,1.0,423.65081787109375,423.65081787109375,0.0,,1.0,1.0,0.0,2,-0.03540880000218749,423.65081787109375,423.65081787109375,0.0,,6.0
8,['1'],1.0,Images/TMTstop-A_1_7linestimulus5.png,Images/TMTstop-A_1_7greenlinestimulus5.png,Images/TMTstop-A_1_7redlinestimulus5.png,TMT_A,A7,158.0,None,6.0,558,1.0,423.7010803222656,423.7010803222656,0.0,,1.0,1.0,0.0,3,1,0.015558200015220791,0.20230679999804124,423.7010803222656,423.7010803222656,0.0,,7.0
9,['2'],2.0,Images/TMTstop-A_1_7linestimulus6.png,Images/TMTstop-A_1_7greenlinestimulus6.png,Images/TMTstop-A_1_7redlinestimulus6.png,TMT_A,A7,159.0,None,6.0,559,1.0,423.9847106933594,423.9847106933594,0.0,,1.0,1.0,0.0,2,-0.02771049999864772,423.9847106933594,423.9847106933594,0.0,,8.0
10,['3'],3.0,Images/TMTstop-A_1_7linestimulus7.png,Images/TMTstop-A_1_7greenlinestimulus7.png,Images/TMTstop-A_1_7redlinestimulus7.png,TMT_A,A7,160.0,None,6.0,560,1.0,424.0343933105469,424.0343933105469,0.0,,1.0,1.0,0.0,3,0.03443739999784157,424.0343933105469,424.0343933105469,0.0,,9.0
11,['2'],2.0,Images/TMTstop-A_1_7linestimulus8.png,Images/TMTstop-A_1_7greenlinestimulus8.png,Images/TMTstop-A_1_7redlinestimulus8.png,TMT_A,A7,161.0,None,6.0,561,1.0,424.1513977050781,424.1513977050781,0.0,,1.0,1.0,0.0,1,2,0.1398996000061743,0.1711049000150524,424.1513977050781,424.1513977050781,0.0,,10.0
12,['1'],1.0,Images/TMTstop-A_1_7linestimulus9.png,Images/TMTstop-A_1_7greenlinestimulus9.png,Images/TMTstop-A_1_7redlinestimulus9.png,TMT_A,A7,162.0,None,6.0,562,1.0,424.4090881347656,424.4090881347656,0.0,,1.0,1.0,0.0,3,1,2,3,1,0.021111899986863136,0.18833159998757765,0.2311753000249155,0.33538050000788644,0.48878489999333397,424.4090881347656,424.4090881347656,0.0,,11.0
13,['3'],3.0,Images/TMTstop-A_1_7linestimulus10.png,Images/TMTstop-A_1_7greenlinestimulus10.png,Images/TMTstop-A_1_7redlinestimulus10.png,TMT_A,A7,163.0,None,6.0,563,1.0,424.9674987792969,424.9674987792969,0.0,,1.0,1.0,0.0,2,3,-0.02040010003838688,0.08698549994733185,424.9674987792969,424.9674987792969,0.0,,12.0
14,['1'],1.0,Images/TMTstop-A_1_7linestimulus11.png,Images/TMTstop-A_1_7greenlinestimulus11.png,Images/TMTstop-A_1_7redlinestimulus11.png,TMT_A,A7,164.0,None,6.0,564,1.0,425.1275939941406,425.1275939941406,0.0,,1.0,1.0,0.0,1,0.07931689999531955,425.1275939941406,425.1275939941406,0.0,,13.0
15,['3'],3.0,Images/TMTstop-A_1_7linestimulus12.png,Images/TMTstop-A_1_7greenlinestimulus12.png,Images/TMTstop-A_1_7redlinestimulus12.png,TMT_A,A7,165.0,None,6.0,565,1.0,425.2610168457031,425.2610168457031,0.0,,1.0,1.0,0.0,2,3,0.009361299977172166,0.10053939995123073,425.2610168457031,425.2610168457031,0.0,,14.0
16,['2'],2.0,Images/TMTstop-A_1_7linestimulus13.png,Images/TMTstop-A_1_7greenlinestimulus13.png,Images/TMTstop-A_1_7redlinestimulus13.png,TMT_A,A7,166.0,None,6.0,566,1.0,425.43951416015625,425.43951416015625,0.0,,1.0,1.0,0.0,1,2,0.0847840000060387,0.14672099996823817,425.43951416015625,425.43951416015625,0.0,,15.0
17,['3'],3.0,Images/TMTstop-A_1_7linestimulus14.png,Images/TMTstop-A_1_7greenlinestimulus14.png,Images/TMTstop-A_1_7redlinestimulus14.png,TMT_A,A7,167.0,None,6.0,567,1.0,425.6846923828125,425.6846923828125,0.0,,1.0,1.0,0.0,3,-0.00532940000994131,425.6846923828125,425.6846923828125,0.0,,16.0
18,['2'],2.0,Images/TMTstop-A_1_7linestimulus15.png,Images/TMTstop-A_1_7greenlinestimulus15.png,Images/TMTstop-A_1_7redlinestimulus15.png,TMT_A,A7,168.0,None,6.0,568,1.0,425.73468017578125,425.73468017578125,0.0,,1.0,1.0,0.0,1,2,0.3195970999659039,0.39251059998059645,425.73468017578125,425.73468017578125,0.0,,17.0
19,['3'],3.0,Images/TMTstop-A_1_7linestimulus16.png,Images/TMTstop-A_1_7greenlinestimulus16.png,Images/TMTstop-A_1_7redlinestimulus16.png,TMT_A,A7,169.0,None,6.0,569,1.0,426.1763610839844,426.1763610839844,0.0,,1.0,1.0,0.0,3,0.03782789997057989,426.1763610839844,426.1763610839844,0.0,,18.0
20,['1'],1.0,Images/TMTstop-A_1_7linestimulus17.png,Images/TMTstop-A_1_7greenlinestimulus17.png,Images/TMTstop-A_1_7redlinestimulus17.png,TMT_A,A7,170.0,None,6.0,570,1.0,426.2764587402344,426.2764587402344,0.0,,1.0,1.0,0.0,1,0.13445689994841814,426.2764587402344,426.2764587402344,0.0,,19.0
21,['3'],3.0,Images/TMTstop-A_1_7linestimulus18.png,Images/TMTstop-A_1_7greenlinestimulus18.png,Images/TMTstop-A_1_7redlinestimulus18.png,TMT_A,A7,171.0,None,6.0,571,1.0,426.4674377441406,426.4674377441406,0.0,,1.0,1.0,0.0,2,3,0.01848160004010424,0.13419380004052073,426.4674377441406,426.4674377441406,0.0,,20.0
22,['1'],1.0,Images/TMTstop-A_1_7linestimulus19.png,Images/TMTstop-A_1_7greenlinestimulus19.png,Images/TMTstop-A_1_7redlinestimulus19.png,TMT_A,A7,172.0,None,6.0,572,1.0,426.65643310546875,426.65643310546875,0.0,,1.0,1.0,0.0,1,0.169003100018017,426.65643310546875,426.65643310546875,0.0,,21.0
23,['2'],2.0,Images/TMTstop-A_1_7linestimulus20.png,Images/TMTstop-A_1_7greenlinestimulus20.png,Images/TMTstop-A_1_7redlinestimulus20.png,TMT_A,A7,173.0,None,6.0,573,1.0,426.8978271484375,426.8978271484375,0.0,,1.0,1.0,0.0,2,-0.0012178000179119408,426.8978271484375,426.8978271484375,0.0,,22.0
24,['1'],1.0,Images/TMTstop-A_1_7linestimulus21.png,Images/TMTstop-A_1_7greenlinestimulus21.png,Images/TMTstop-A_1_7redlinestimulus21.png,TMT_A,A7,174.0,None,6.0,574,1.0,426.94732666015625,426.94732666015625,0.0,,1.0,1.0,0.0,3,1,0.04906950000440702,0.31400999997276813,426.94732666015625,426.94732666015625,0.0,,23.0
25,['3'],3.0,Images/TMTstop-A_1_7linestimulus22.png,Images/TMTstop-A_1_7greenlinestimulus22.png,Images/TMTstop-A_1_7redlinestimulus22.png,TMT_A,A7,175.0,None,6.0,575,1.0,427.311279296875,427.311279296875,0.0,,1.0,1.0,0.0,2,1,3,-0.0018830999615602195,1.202982000017073,5.206276600016281,427.311279296875,427.311279296875,0.0,,24.0
None,None,None,Images/TMTstop-A_1_7linestimulus23.png,Images/TMTstop-A_1_7greenlinestimulus23.png,Images/TMTstop-A_1_7redlinestimulus23.png,TMT_A,A7,Feedback_last,None,6.0,Feedback_last,1.0,432.5899658203125,432.5899658203125,0.0,,1.0,1.0,0.0,,'--',432.5899658203125,432.5899658203125,0.0,,25.0

extraInfo
participant,
session,001
date,2022_Dec_20_1655
expName,TMT_fmri
psychopyVersion,2021.2.3
frameRate,59.88583364190807
﻿NumberLetter,corrAns,Correct,StimFile,Correct_StimFile,False_StimFile,Version,Paper,TrialNumber_Version,Round,Block,TrialNumber_total,n,Stim.started_mean,Stim.started_raw,Stim.started_std,Stim.stopped_raw,key_resp_2.corr_mean,key_resp_2.corr_raw,key_resp_2.corr_std,key_resp_2.keys_raw,key_resp_2.rt_raw,key_resp_2.started_mean,key_resp_2.started_raw,key_resp_2.started_std,key_resp_2.stopped_raw,order
1,['2'],2.0,Images/TMTstop-A_1_8.png,Images/TMTstop-A_1_8.png,Images/TMTstop-A_1_8.png,TMT_A,A8,176.0,None,6.0,576,1.0,436.9407653808594,436.9407653808594,0.0,,1.0,1.0,0.0,2,1.0332962000393309,436.9407653808594,436.9407653808594,0.0,,0.0
2,['3'],3.0,Images/TMTstop-A_1_8.png,Images/TMTstop-A_1_8firstgreen.png,Images/TMTstop-A_1_8firstred.png,TMT_A,A8,177.0,None,6.0,577,1.0,438.033203125,438.033203125,0.0,,1.0,1.0,0.0,3,0.8743393999757245,438.033203125,438.033203125,0.0,,1.0
3,['1'],1.0,Images/TMTstop-A_1_8linestimulus0.png,Images/TMTstop-A_1_8greenlinestimulus0.png,Images/TMTstop-A_1_8redlinestimulus0.png,TMT_A,A8,178.0,None,6.0,578,1.0,438.9753112792969,438.9753112792969,0.0,,1.0,1.0,0.0,1,0.526215800025966,438.9753112792969,438.9753112792969,0.0,,2.0
4,['2'],2.0,Images/TMTstop-A_1_8linestimulus1.png,Images/TMTstop-A_1_8greenlinestimulus1.png,Images/TMTstop-A_1_8redlinestimulus1.png,TMT_A,A8,179.0,None,6.0,579,1.0,439.56658935546875,439.56658935546875,0.0,,1.0,1.0,0.0,2,0.3815887999953702,439.56658935546875,439.56658935546875,0.0,,3.0
5,['1'],1.0,Images/TMTstop-A_1_8linestimulus2.png,Images/TMTstop-A_1_8greenlinestimulus2.png,Images/TMTstop-A_1_8redlinestimulus2.png,TMT_A,A8,180.0,None,6.0,580,1.0,440.01251220703125,440.01251220703125,0.0,,1.0,1.0,0.0,1,0.7061070000054315,440.01251220703125,440.01251220703125,0.0,,4.0
6,['3'],3.0,Images/TMTstop-A_1_8linestimulus3.png,Images/TMTstop-A_1_8greenlinestimulus3.png,Images/TMTstop-A_1_8redlinestimulus3.png,TMT_A,A8,181.0,None,6.0,581,1.0,440.78765869140625,440.78765869140625,0.0,,1.0,1.0,0.0,3,0.37833400000818074,440.78765869140625,440.78765869140625,0.0,,5.0
7,['1'],1.0,Images/TMTstop-A_1_8linestimulus4.png,Images/TMTstop-A_1_8greenlinestimulus4.png,Images/TMTstop-A_1_8redlinestimulus4.png,TMT_A,A8,182.0,None,6.0,582,1.0,441.22943115234375,441.22943115234375,0.0,,1.0,1.0,0.0,1,0.3537062000250444,441.22943115234375,441.22943115234375,0.0,,6.0
8,['3'],3.0,Images/TMTstop-A_1_8linestimulus5.png,Images/TMTstop-A_1_8greenlinestimulus5.png,Images/TMTstop-A_1_8redlinestimulus5.png,TMT_A,A8,183.0,None,6.0,583,1.0,441.654296875,441.654296875,0.0,,1.0,1.0,0.0,3,0.9932691000285558,441.654296875,441.654296875,0.0,,7.0
9,['2'],2.0,Images/TMTstop-A_1_8linestimulus6.png,Images/TMTstop-A_1_8greenlinestimulus6.png,Images/TMTstop-A_1_8redlinestimulus6.png,TMT_A,A8,184.0,None,6.0,584,1.0,442.7132568359375,442.7132568359375,0.0,,1.0,1.0,0.0,2,0.3653235000092536,442.7132568359375,442.7132568359375,0.0,,8.0
10,['1'],1.0,Images/TMTstop-A_1_8linestimulus7.png,Images/TMTstop-A_1_8greenlinestimulus7.png,Images/TMTstop-A_1_8redlinestimulus7.png,TMT_A,A8,185.0,None,6.0,585,1.0,443.13818359375,443.13818359375,0.0,,1.0,1.0,0.0,1,0.5293801999650896,443.13818359375,443.13818359375,0.0,,9.0
11,['2'],2.0,Images/TMTstop-A_1_8linestimulus8.png,Images/TMTstop-A_1_8greenlinestimulus8.png,Images/TMTstop-A_1_8redlinestimulus8.png,TMT_A,A8,186.0,None,6.0,586,1.0,443.72998046875,443.72998046875,0.0,,1.0,1.0,0.0,1,2,0.6595765000092797,0.6674654000089504,443.72998046875,443.72998046875,0.0,,10.0
12,['1'],1.0,Images/TMTstop-A_1_8linestimulus9.png,Images/TMTstop-A_1_8greenlinestimulus9.png,Images/TMTstop-A_1_8redlinestimulus9.png,TMT_A,A8,187.0,None,6.0,587,1.0,444.4551086425781,444.4551086425781,0.0,,1.0,1.0,0.0,3,1,0.04866380000021309,0.2734385000076145,444.4551086425781,444.4551086425781,0.0,,11.0
13,['3'],3.0,Images/TMTstop-A_1_8linestimulus10.png,Images/TMTstop-A_1_8greenlinestimulus10.png,Images/TMTstop-A_1_8redlinestimulus10.png,TMT_A,A8,188.0,None,6.0,588,1.0,444.8177490234375,444.8177490234375,0.0,,1.0,1.0,0.0,2,3,-0.026518200000282377,0.06816439999965951,444.8177490234375,444.8177490234375,0.0,,12.0
14,['2'],2.0,Images/TMTstop-A_1_8linestimulus11.png,Images/TMTstop-A_1_8greenlinestimulus11.png,Images/TMTstop-A_1_8redlinestimulus11.png,TMT_A,A8,189.0,None,6.0,589,1.0,444.99163818359375,444.99163818359375,0.0,,1.0,1.0,0.0,1,2,0.05141509999521077,0.12278849998256192,444.99163818359375,444.99163818359375,0.0,,13.0
15,['1'],1.0,Images/TMTstop-A_1_8linestimulus12.png,Images/TMTstop-A_1_8greenlinestimulus12.png,Images/TMTstop-A_1_8redlinestimulus12.png,TMT_A,A8,190.0,None,6.0,590,1.0,445.175048828125,445.175048828125,0.0,,1.0,1.0,0.0,3,1,0.047386699996422976,0.238331799977459,445.175048828125,445.175048828125,0.0,,14.0
16,['3'],3.0,Images/TMTstop-A_1_8linestimulus13.png,Images/TMTstop-A_1_8greenlinestimulus13.png,Images/TMTstop-A_1_8redlinestimulus13.png,TMT_A,A8,191.0,None,6.0,591,1.0,445.4753723144531,445.4753723144531,0.0,,1.0,1.0,0.0,2,3,-0.014060300018172711,0.0882401000126265,445.4753723144531,445.4753723144531,0.0,,15.0
17,['1'],1.0,Images/TMTstop-A_1_8linestimulus14.png,Images/TMTstop-A_1_8greenlinestimulus14.png,Images/TMTstop-A_1_8redlinestimulus14.png,TMT_A,A8,192.0,None,6.0,592,1.0,445.6251220703125,445.6251220703125,0.0,,1.0,1.0,0.0,1,0.12336590001359582,445.6251220703125,445.6251220703125,0.0,,16.0
18,['2'],2.0,Images/TMTstop-A_1_8linestimulus15.png,Images/TMTstop-A_1_8greenlinestimulus15.png,Images/TMTstop-A_1_8redlinestimulus15.png,TMT_A,A8,193.0,None,6.0,593,1.0,445.8092041015625,445.8092041015625,0.0,,1.0,1.0,0.0,2,-0.0041995999636128545,445.8092041015625,445.8092041015625,0.0,,17.0
19,['1'],1.0,Images/TMTstop-A_1_8linestimulus16.png,Images/TMTstop-A_1_8greenlinestimulus16.png,Images/TMTstop-A_1_8redlinestimulus16.png,TMT_A,A8,194.0,None,6.0,594,1.0,445.8586120605469,445.8586120605469,0.0,,1.0,1.0,0.0,3,1,0.047898199991323054,0.20743419998325408,445.8586120605469,445.8586120605469,0.0,,18.0
20,['3'],3.0,Images/TMTstop-A_1_8linestimulus17.png,Images/TMTstop-A_1_8greenlinestimulus17.png,Images/TMTstop-A_1_8redlinestimulus17.png,TMT_A,A8,195.0,None,6.0,595,1.0,446.1185607910156,446.1185607910156,0.0,,1.0,1.0,0.0,2,3,-0.018596399982925504,0.09229000000050291,446.1185607910156,446.1185607910156,0.0,,19.0
21,['1'],1.0,Images/TMTstop-A_1_8linestimulus18.png,Images/TMTstop-A_1_8greenlinestimulus18.png,Images/TMTstop-A_1_8redlinestimulus18.png,TMT_A,A8,196.0,None,6.0,596,1.0,446.2687683105469,446.2687683105469,0.0,,1.0,1.0,0.0,1,0.11645709996810183,446.2687683105469,446.2687683105469,0.0,,20.0
22,['2'],2.0,Images/TMTstop-A_1_8linestimulus19.png,Images/TMTstop-A_1_8greenlinestimulus19.png,Images/TMTstop-A_1_8redlinestimulus19.png,TMT_A,A8,197.0,None,6.0,597,1.0,446.43829345703125,446.43829345703125,0.0,,1.0,1.0,0.0,2,0.022780400002375245,446.43829345703125,446.43829345703125,0.0,,21.0
23,['3'],3.0,Images/TMTstop-A_1_8linestimulus20.png,Images/TMTstop-A_1_8greenlinestimulus20.png,Images/TMTstop-A_1_8redlinestimulus20.png,TMT_A,A8,198.0,None,6.0,598,1.0,446.52154541015625,446.52154541015625,0.0,,1.0,1.0,0.0,3,0.06361420004395768,446.52154541015625,446.52154541015625,0.0,,22.0
24,['1'],1.0,Images/TMTstop-A_1_8linestimulus21.png,Images/TMTstop-A_1_8greenlinestimulus21.png,Images/TMTstop-A_1_8redlinestimulus21.png,TMT_A,A8,199.0,None,6.0,599,1.0,446.6385192871094,446.6385192871094,0.0,,1.0,1.0,0.0,1,0.10021829995093867,446.6385192871094,446.6385192871094,0.0,,23.0
25,['3'],3.0,Images/TMTstop-A_1_8linestimulus22.png,Images/TMTstop-A_1_8greenlinestimulus22.png,Images/TMTstop-A_1_8redlinestimulus22.png,TMT_A,A8,200.0,None,6.0,600,1.0,446.7964782714844,446.7964782714844,0.0,,1.0,1.0,0.0,2,3,0.002895799989346415,0.10706509998999536,446.7964782714844,446.7964782714844,0.0,,24.0
None,None,None,Images/TMTstop-A_1_8linestimulus23.png,Images/TMTstop-A_1_8greenlinestimulus23.png,Images/TMTstop-A_1_8redlinestimulus23.png,TMT_A,A8,Feedback_last,None,6.0,Feedback_last,1.0,446.9703674316406,446.9703674316406,0.0,,1.0,1.0,0.0,,'--',446.9703674316406,446.9703674316406,0.0,,25.0

extraInfo
participant,
session,001
date,2022_Dec_20_1655
expName,TMT_fmri
psychopyVersion,2021.2.3
frameRate,59.88583364190807
