NumberLetter,corrAns,Correct,StimFile,Correct_StimFile,False_StimFile,Version,Block,TrialNumber_session,n,Stim.started_mean,Stim.started_raw,Stim.started_std,Stim.stopped_raw,key_resp_2.corr_mean,key_resp_2.corr_raw,key_resp_2.corr_std,key_resp_2.keys_raw,key_resp_2.rt_raw,key_resp_2.started_mean,key_resp_2.started_raw,key_resp_2.started_std,key_resp_2.stopped_raw,order
1,['3'],3,TMTstop-control_1_5.png,TMTstop-control_1_5.png,TMTstop-control_1_5.png,TMT_Control,5,101,1.0,140.40013122558594,140.40013122558594,0.0,,1.0,1.0,0.0,1,2,3,0.48097540000162553,0.5670608999935212,0.6682571999990614,140.40013122558594,140.40013122558594,0.0,,0.0
2,['2'],2,TMTstop-control_1_5.png,TMTstop-control_1_5firstgreen.png,TMTstop-control_1_5firstred.png,TMT_Control,5,102,1.0,141.20870971679688,141.20870971679688,0.0,,1.0,1.0,0.0,1,2,-0.0014787999971304089,0.07135220000054687,141.20870971679688,141.20870971679688,0.0,,1.0
3,['1'],1,TMTstop-control_1_5linestimulus0.png,TMTstop-control_1_5greenlinestimulus0.png,TMTstop-control_1_5redlinestimulus0.png,TMT_Control,5,103,1.0,141.47279357910156,141.47279357910156,0.0,,1.0,1.0,0.0,3,1,-0.061850300000514835,0.05965989999822341,141.47279357910156,141.47279357910156,0.0,,2.0
4,['3'],3,TMTstop-control_1_5linestimulus1.png,TMTstop-control_1_5greenlinestimulus1.png,TMTstop-control_1_5redlinestimulus1.png,TMT_Control,5,104,1.0,141.67303466796875,141.67303466796875,0.0,,1.0,1.0,0.0,2,3,-0.07362989999819547,0.0331929000094533,141.67303466796875,141.67303466796875,0.0,,3.0
5,['1'],1,TMTstop-control_1_5linestimulus2.png,TMTstop-control_1_5greenlinestimulus2.png,TMTstop-control_1_5redlinestimulus2.png,TMT_Control,5,105,1.0,141.80038452148438,141.80038452148438,0.0,,1.0,1.0,0.0,1,0.046980300001450814,141.80038452148438,141.80038452148438,0.0,,4.0
6,['2'],2,TMTstop-control_1_5linestimulus3.png,TMTstop-control_1_5greenlinestimulus3.png,TMTstop-control_1_5redlinestimulus3.png,TMT_Control,5,106,1.0,141.94480895996094,141.94480895996094,0.0,,1.0,1.0,0.0,2,-0.006294599996181205,141.94480895996094,141.94480895996094,0.0,,5.0
7,['3'],3,TMTstop-control_1_5linestimulus4.png,TMTstop-control_1_5greenlinestimulus4.png,TMTstop-control_1_5redlinestimulus4.png,TMT_Control,5,107,1.0,142.06466674804688,142.06466674804688,0.0,,1.0,1.0,0.0,3,-0.01504189999832306,142.06466674804688,142.06466674804688,0.0,,6.0
8,['2'],2,TMTstop-control_1_5linestimulus4.png,TMTstop-control_1_5greenlinestimulus5.png,TMTstop-control_1_5redlinestimulus5.png,TMT_Control,5,108,1.0,142.18927001953125,142.18927001953125,0.0,,1.0,1.0,0.0,1,2,0.009976999994250946,0.10769469999650028,142.18927001953125,142.18927001953125,0.0,,7.0
9,['1'],1,TMTstop-control_1_5linestimulus6.png,TMTstop-control_1_5greenlinestimulus6.png,TMTstop-control_1_5redlinestimulus6.png,TMT_Control,5,109,1.0,142.3946075439453,142.3946075439453,0.0,,1.0,1.0,0.0,3,1,0.03923600001144223,0.3761957000097027,142.3946075439453,142.3946075439453,0.0,,8.0
10,['2'],2,TMTstop-control_1_5linestimulus7.png,TMTstop-control_1_5greenlinestimulus7.png,TMTstop-control_1_5redlinestimulus7.png,TMT_Control,5,110,1.0,142.8446807861328,142.8446807861328,0.0,,1.0,1.0,0.0,2,-0.01165130001027137,142.8446807861328,142.8446807861328,0.0,,9.0
11,['1'],1,TMTstop-control_1_5linestimulus8.png,TMTstop-control_1_5greenlinestimulus8.png,TMTstop-control_1_5redlinestimulus8.png,TMT_Control,5,111,1.0,142.91957092285156,142.91957092285156,0.0,,1.0,1.0,0.0,3,1,0.06516160001046956,0.22361020000244025,142.91957092285156,142.91957092285156,0.0,,10.0
12,['3'],3,TMTstop-control_1_5linestimulus9.png,TMTstop-control_1_5greenlinestimulus9.png,TMTstop-control_1_5redlinestimulus9.png,TMT_Control,5,112,1.0,143.24542236328125,143.24542236328125,0.0,,1.0,1.0,0.0,2,3,-0.023431199995684437,0.12470460000622552,143.24542236328125,143.24542236328125,0.0,,11.0
13,['2'],2,TMTstop-control_1_5linestimulus10.png,TMTstop-control_1_5greenlinestimulus10.png,TMTstop-control_1_5redlinestimulus10.png,TMT_Control,5,113,1.0,143.44483947753906,143.44483947753906,0.0,,1.0,1.0,0.0,1,2,0.030058200005441904,0.1253679000074044,143.44483947753906,143.44483947753906,0.0,,12.0
14,['3'],3,TMTstop-control_1_5linestimulus11.png,TMTstop-control_1_5greenlinestimulus11.png,TMTstop-control_1_5redlinestimulus11.png,TMT_Control,5,114,1.0,143.6448516845703,143.6448516845703,0.0,,1.0,1.0,0.0,3,0.029153399998904206,143.6448516845703,143.6448516845703,0.0,,13.0
15,['1'],1,TMTstop-control_1_5linestimulus12.png,TMTstop-control_1_5greenlinestimulus12.png,TMTstop-control_1_5redlinestimulus12.png,TMT_Control,5,115,1.0,143.7616729736328,143.7616729736328,0.0,,1.0,1.0,0.0,1,0.03754710000066552,143.7616729736328,143.7616729736328,0.0,,14.0
16,['2'],2,TMTstop-control_1_5linestimulus13.png,TMTstop-control_1_5greenlinestimulus13.png,TMTstop-control_1_5redlinestimulus13.png,TMT_Control,5,116,1.0,143.93417358398438,143.93417358398438,0.0,,1.0,1.0,0.0,2,-0.0022613000037381425,143.93417358398438,143.93417358398438,0.0,,15.0
17,['3'],3,TMTstop-control_1_5linestimulus14.png,TMTstop-control_1_5greenlinestimulus14.png,TMTstop-control_1_5redlinestimulus14.png,TMT_Control,5,117,1.0,144.07315063476562,144.07315063476562,0.0,,1.0,1.0,0.0,3,-0.05107279999356251,144.07315063476562,144.07315063476562,0.0,,16.0
18,['1'],1,TMTstop-control_1_5linestimulus15.png,TMTstop-control_1_5greenlinestimulus15.png,TMTstop-control_1_5redlinestimulus15.png,TMT_Control,5,118,1.0,144.20057678222656,144.20057678222656,0.0,,1.0,1.0,0.0,1,-0.04904880000685807,144.20057678222656,144.20057678222656,0.0,,17.0
19,['2'],2,TMTstop-control_1_5linestimulus16.png,TMTstop-control_1_5greenlinestimulus16.png,TMTstop-control_1_5redlinestimulus16.png,TMT_Control,5,119,1.0,144.325927734375,144.325927734375,0.0,,1.0,1.0,0.0,2,-0.05511129999649711,144.325927734375,144.325927734375,0.0,,18.0
20,['1'],1,TMTstop-control_1_5linestimulus17.png,TMTstop-control_1_5greenlinestimulus17.png,TMTstop-control_1_5redlinestimulus17.png,TMT_Control,5,120,1.0,144.40301513671875,144.40301513671875,0.0,,1.0,1.0,0.0,3,1,-0.06286200000613462,0.0766626999975415,144.40301513671875,144.40301513671875,0.0,,19.0
21,['2'],2,TMTstop-control_1_5linestimulus18.png,TMTstop-control_1_5greenlinestimulus18.png,TMTstop-control_1_5redlinestimulus18.png,TMT_Control,5,121,1.0,144.58790588378906,144.58790588378906,0.0,,1.0,1.0,0.0,2,0.006619000007049181,144.58790588378906,144.58790588378906,0.0,,20.0
22,['1'],1,TMTstop-control_1_5linestimulus19.png,TMTstop-control_1_5greenlinestimulus19.png,TMTstop-control_1_5redlinestimulus19.png,TMT_Control,5,122,1.0,144.7169189453125,144.7169189453125,0.0,,1.0,1.0,0.0,3,1,-0.04936049999378156,0.06790300000284333,144.7169189453125,144.7169189453125,0.0,,21.0
23,['3'],3,TMTstop-control_1_5linestimulus20.png,TMTstop-control_1_5greenlinestimulus20.png,TMTstop-control_1_5redlinestimulus20.png,TMT_Control,5,123,1.0,144.96807861328125,144.96807861328125,0.0,,1.0,1.0,0.0,2,3,-0.10043350000341889,-0.016886800003703684,144.96807861328125,144.96807861328125,0.0,,22.0
24,['1'],1,TMTstop-control_1_5linestimulus21.png,TMTstop-control_1_5greenlinestimulus21.png,TMTstop-control_1_5redlinestimulus21.png,TMT_Control,5,124,1.0,145.09507751464844,145.09507751464844,0.0,,1.0,1.0,0.0,1,-0.03333200000633951,145.09507751464844,145.09507751464844,0.0,,23.0
25,['3'],3,TMTstop-control_1_5linestimulus22.png,TMTstop-control_1_5greenlinestimulus22.png,TMTstop-control_1_5redlinestimulus22.png,TMT_Control,5,125,1.0,145.2349853515625,145.2349853515625,0.0,,1.0,1.0,0.0,2,3,-0.08342709999124054,0.0035549000022001565,145.2349853515625,145.2349853515625,0.0,,24.0
None,None,None,TMTstop-control_1_5linestimulus23.png,TMTstop-control_1_5greenlinestimulus23.png,TMTstop-control_1_5redlinestimulus23.png,TMT_Control,5,Feedback_last,1.0,145.361328125,145.361328125,0.0,,0.0,0.0,0.0,1,2,3,1,2,3,0.006511100000352599,0.09401560001424514,0.1772505000117235,0.28560500001185574,0.341379000004963,0.4469433000049321,145.361328125,145.361328125,0.0,,25.0

extraInfo
participant,
session,001
date,2022_May_10_1109
expName,TMT_fmri
psychopyVersion,2021.2.3
frameRate,122.71384113973052
﻿NumberLetter,corrAns,Correct,StimFile,Correct_StimFile,False_StimFile,Version,Block,TrialNumber_session,n,Stim.started_mean,Stim.started_raw,Stim.started_std,Stim.stopped_raw,key_resp_2.corr_mean,key_resp_2.corr_raw,key_resp_2.corr_std,key_resp_2.keys_raw,key_resp_2.rt_raw,key_resp_2.started_mean,key_resp_2.started_raw,key_resp_2.started_std,key_resp_2.stopped_raw,order
1,['3'],3,TMTstop-control_1_6.png,TMTstop-control_1_6.png,TMTstop-control_1_6.png,TMT_Control,6,126,1.0,149.47535705566406,149.47535705566406,0.0,,1.0,1.0,0.0,1,2,3,0.41460630000801757,0.4635605000075884,0.6166991000063717,149.47535705566406,149.47535705566406,0.0,,0.0
2,['2'],2,TMTstop-control_1_6.png,TMTstop-control_1_6firstgreen.png,TMTstop-control_1_6firstred.png,TMT_Control,6,127,1.0,150.28668212890625,150.28668212890625,0.0,,1.0,1.0,0.0,1,2,-0.05668189999414608,0.005448900003102608,150.28668212890625,150.28668212890625,0.0,,1.0
3,['1'],1,TMTstop-control_1_6linestimulus0.png,TMTstop-control_1_6greenlinestimulus0.png,TMTstop-control_1_6redlinestimulus0.png,TMT_Control,6,128,1.0,150.42825317382812,150.42825317382812,0.0,,1.0,1.0,0.0,3,1,-0.006050600000889972,0.10766120000334922,150.42825317382812,150.42825317382812,0.0,,2.0
4,['2'],2,TMTstop-control_1_6linestimulus1.png,TMTstop-control_1_6greenlinestimulus1.png,TMTstop-control_1_6redlinestimulus1.png,TMT_Control,6,129,1.0,150.69461059570312,150.69461059570312,0.0,,1.0,1.0,0.0,2,-0.09407690000080038,150.69461059570312,150.69461059570312,0.0,,3.0
5,['3'],3,TMTstop-control_1_6linestimulus2.png,TMTstop-control_1_6greenlinestimulus2.png,TMTstop-control_1_6redlinestimulus2.png,TMT_Control,6,130,1.0,150.8319091796875,150.8319091796875,0.0,,1.0,1.0,0.0,3,-0.10928959999000654,150.8319091796875,150.8319091796875,0.0,,4.0
6,['2'],2,TMTstop-control_1_6linestimulus3.png,TMTstop-control_1_6greenlinestimulus3.png,TMTstop-control_1_6redlinestimulus3.png,TMT_Control,6,131,1.0,150.95645141601562,150.95645141601562,0.0,,1.0,1.0,0.0,1,2,-0.10839609999675304,-0.02110450000327546,150.95645141601562,150.95645141601562,0.0,,5.0
7,['1'],1,TMTstop-control_1_6linestimulus4.png,TMTstop-control_1_6greenlinestimulus4.png,TMTstop-control_1_6redlinestimulus4.png,TMT_Control,6,132,1.0,151.08360290527344,151.08360290527344,0.0,,1.0,1.0,0.0,3,1,-0.04515279999759514,0.08781559999624733,151.08360290527344,151.08360290527344,0.0,,6.0
8,['3'],3,TMTstop-control_1_6linestimulus4.png,TMTstop-control_1_6greenlinestimulus5.png,TMTstop-control_1_6redlinestimulus5.png,TMT_Control,6,133,1.0,151.349365234375,151.349365234375,0.0,,1.0,1.0,0.0,2,3,-0.08388659999764059,0.002897099999245256,151.349365234375,151.349365234375,0.0,,7.0
9,['2'],2,TMTstop-control_1_6linestimulus6.png,TMTstop-control_1_6greenlinestimulus6.png,TMTstop-control_1_6redlinestimulus6.png,TMT_Control,6,134,1.0,151.4770050048828,151.4770050048828,0.0,,1.0,1.0,0.0,1,2,0.05479850000119768,0.10684940000646748,151.4770050048828,151.4770050048828,0.0,,8.0
10,['1'],1,TMTstop-control_1_6linestimulus7.png,TMTstop-control_1_6greenlinestimulus7.png,TMTstop-control_1_6redlinestimulus7.png,TMT_Control,6,135,1.0,151.74343872070312,151.74343872070312,0.0,,1.0,1.0,0.0,3,1,-0.033067800002754666,0.10682609998912085,151.74343872070312,151.74343872070312,0.0,,9.0
11,['2'],2,TMTstop-control_1_6linestimulus8.png,TMTstop-control_1_6greenlinestimulus8.png,TMTstop-control_1_6redlinestimulus8.png,TMT_Control,6,136,1.0,152.0117950439453,152.0117950439453,0.0,,1.0,1.0,0.0,2,-0.05698360000678804,152.0117950439453,152.0117950439453,0.0,,10.0
12,['3'],3,TMTstop-control_1_6linestimulus9.png,TMTstop-control_1_6greenlinestimulus9.png,TMTstop-control_1_6redlinestimulus9.png,TMT_Control,6,137,1.0,152.13877868652344,152.13877868652344,0.0,,1.0,1.0,0.0,3,-0.10538740000629332,152.13877868652344,152.13877868652344,0.0,,11.0
13,['1'],1,TMTstop-control_1_6linestimulus10.png,TMTstop-control_1_6greenlinestimulus10.png,TMTstop-control_1_6redlinestimulus10.png,TMT_Control,6,138,1.0,152.26504516601562,152.26504516601562,0.0,,1.0,1.0,0.0,1,2,3,1,-0.0788398999866331,-0.005629899998893961,0.11649040000338573,0.2360742000018945,152.26504516601562,152.26504516601562,0.0,,12.0
14,['3'],3,TMTstop-control_1_6linestimulus11.png,TMTstop-control_1_6greenlinestimulus11.png,TMTstop-control_1_6redlinestimulus11.png,TMT_Control,6,139,1.0,152.64419555664062,152.64419555664062,0.0,,1.0,1.0,0.0,2,3,-0.0583970000006957,0.02678060000471305,152.64419555664062,152.64419555664062,0.0,,13.0
15,['2'],2,TMTstop-control_1_6linestimulus12.png,TMTstop-control_1_6greenlinestimulus12.png,TMTstop-control_1_6redlinestimulus12.png,TMT_Control,6,140,1.0,152.78648376464844,152.78648376464844,0.0,,1.0,1.0,0.0,1,2,0.032228800002485514,0.11072100000455976,152.78648376464844,152.78648376464844,0.0,,14.0
16,['3'],3,TMTstop-control_1_6linestimulus13.png,TMTstop-control_1_6greenlinestimulus13.png,TMTstop-control_1_6redlinestimulus13.png,TMT_Control,6,141,0.0,,,,'--',,,,'--','--',,,,'--',
17,['1'],1,TMTstop-control_1_6linestimulus14.png,TMTstop-control_1_6greenlinestimulus14.png,TMTstop-control_1_6redlinestimulus14.png,TMT_Control,6,142,0.0,,,,'--',,,,'--','--',,,,'--',
18,['2'],2,TMTstop-control_1_6linestimulus15.png,TMTstop-control_1_6greenlinestimulus15.png,TMTstop-control_1_6redlinestimulus15.png,TMT_Control,6,143,0.0,,,,'--',,,,'--','--',,,,'--',
19,['3'],3,TMTstop-control_1_6linestimulus16.png,TMTstop-control_1_6greenlinestimulus16.png,TMTstop-control_1_6redlinestimulus16.png,TMT_Control,6,144,0.0,,,,'--',,,,'--','--',,,,'--',
20,['2'],2,TMTstop-control_1_6linestimulus17.png,TMTstop-control_1_6greenlinestimulus17.png,TMTstop-control_1_6redlinestimulus17.png,TMT_Control,6,145,0.0,,,,'--',,,,'--','--',,,,'--',
21,['1'],1,TMTstop-control_1_6linestimulus18.png,TMTstop-control_1_6greenlinestimulus18.png,TMTstop-control_1_6redlinestimulus18.png,TMT_Control,6,146,0.0,,,,'--',,,,'--','--',,,,'--',
22,['2'],2,TMTstop-control_1_6linestimulus19.png,TMTstop-control_1_6greenlinestimulus19.png,TMTstop-control_1_6redlinestimulus19.png,TMT_Control,6,147,0.0,,,,'--',,,,'--','--',,,,'--',
23,['1'],1,TMTstop-control_1_6linestimulus20.png,TMTstop-control_1_6greenlinestimulus20.png,TMTstop-control_1_6redlinestimulus20.png,TMT_Control,6,148,0.0,,,,'--',,,,'--','--',,,,'--',
24,['2'],2,TMTstop-control_1_6linestimulus21.png,TMTstop-control_1_6greenlinestimulus21.png,TMTstop-control_1_6redlinestimulus21.png,TMT_Control,6,149,0.0,,,,'--',,,,'--','--',,,,'--',
25,['3'],3,TMTstop-control_1_6linestimulus22.png,TMTstop-control_1_6greenlinestimulus22.png,TMTstop-control_1_6redlinestimulus22.png,TMT_Control,6,150,0.0,,,,'--',,,,'--','--',,,,'--',
None,None,None,TMTstop-control_1_6linestimulus23.png,TMTstop-control_1_6greenlinestimulus23.png,TMTstop-control_1_6redlinestimulus23.png,TMT_Control,6,Feedback_last,0.0,,,,'--',,,,'--','--',,,,'--',

extraInfo
participant,
session,001
date,2022_May_10_1109
expName,TMT_fmri
psychopyVersion,2021.2.3
frameRate,122.71384113973052
﻿NumberLetter,corrAns,Correct,StimFile,Correct_StimFile,False_StimFile,Version,Block,TrialNumber_session,n,Stim.started_mean,Stim.started_raw,Stim.started_std,Stim.stopped_raw,key_resp_2.corr_mean,key_resp_2.corr_raw,key_resp_2.corr_std,key_resp_2.keys_raw,key_resp_2.started_mean,key_resp_2.started_raw,key_resp_2.started_std,key_resp_2.stopped_raw,order
1,['1'],1,TMTstop-control_1_7.png,TMTstop-control_1_7.png,TMTstop-control_1_7.png,TMT_Control,7,151,1.0,156.03359985351562,156.03359985351562,0.0,,0.0,0.0,0.0,,156.03359985351562,156.03359985351562,0.0,,0.0
2,['2'],2,TMTstop-control_1_7.png,TMTstop-control_1_7firstgreen.png,TMTstop-control_1_7firstred.png,TMT_Control,7,152,0.0,,,,'--',,,,'--',,,,'--',
3,['3'],3,TMTstop-control_1_7linestimulus0.png,TMTstop-control_1_7greenlinestimulus0.png,TMTstop-control_1_7redlinestimulus0.png,TMT_Control,7,153,0.0,,,,'--',,,,'--',,,,'--',
4,['2'],2,TMTstop-control_1_7linestimulus1.png,TMTstop-control_1_7greenlinestimulus1.png,TMTstop-control_1_7redlinestimulus1.png,TMT_Control,7,154,0.0,,,,'--',,,,'--',,,,'--',
5,['3'],3,TMTstop-control_1_7linestimulus2.png,TMTstop-control_1_7greenlinestimulus2.png,TMTstop-control_1_7redlinestimulus2.png,TMT_Control,7,155,0.0,,,,'--',,,,'--',,,,'--',
6,['1'],1,TMTstop-control_1_7linestimulus3.png,TMTstop-control_1_7greenlinestimulus3.png,TMTstop-control_1_7redlinestimulus3.png,TMT_Control,7,156,0.0,,,,'--',,,,'--',,,,'--',
7,['3'],3,TMTstop-control_1_7linestimulus4.png,TMTstop-control_1_7greenlinestimulus4.png,TMTstop-control_1_7redlinestimulus4.png,TMT_Control,7,157,0.0,,,,'--',,,,'--',,,,'--',
8,['2'],2,TMTstop-control_1_7linestimulus4.png,TMTstop-control_1_7greenlinestimulus5.png,TMTstop-control_1_7redlinestimulus5.png,TMT_Control,7,158,0.0,,,,'--',,,,'--',,,,'--',
9,['3'],3,TMTstop-control_1_7linestimulus6.png,TMTstop-control_1_7greenlinestimulus6.png,TMTstop-control_1_7redlinestimulus6.png,TMT_Control,7,159,0.0,,,,'--',,,,'--',,,,'--',
10,['2'],2,TMTstop-control_1_7linestimulus7.png,TMTstop-control_1_7greenlinestimulus7.png,TMTstop-control_1_7redlinestimulus7.png,TMT_Control,7,160,0.0,,,,'--',,,,'--',,,,'--',
11,['1'],1,TMTstop-control_1_7linestimulus8.png,TMTstop-control_1_7greenlinestimulus8.png,TMTstop-control_1_7redlinestimulus8.png,TMT_Control,7,161,0.0,,,,'--',,,,'--',,,,'--',
12,['2'],2,TMTstop-control_1_7linestimulus9.png,TMTstop-control_1_7greenlinestimulus9.png,TMTstop-control_1_7redlinestimulus9.png,TMT_Control,7,162,0.0,,,,'--',,,,'--',,,,'--',
13,['3'],3,TMTstop-control_1_7linestimulus10.png,TMTstop-control_1_7greenlinestimulus10.png,TMTstop-control_1_7redlinestimulus10.png,TMT_Control,7,163,0.0,,,,'--',,,,'--',,,,'--',
14,['1'],1,TMTstop-control_1_7linestimulus11.png,TMTstop-control_1_7greenlinestimulus11.png,TMTstop-control_1_7redlinestimulus11.png,TMT_Control,7,164,0.0,,,,'--',,,,'--',,,,'--',
15,['2'],2,TMTstop-control_1_7linestimulus12.png,TMTstop-control_1_7greenlinestimulus12.png,TMTstop-control_1_7redlinestimulus12.png,TMT_Control,7,165,0.0,,,,'--',,,,'--',,,,'--',
16,['3'],3,TMTstop-control_1_7linestimulus13.png,TMTstop-control_1_7greenlinestimulus13.png,TMTstop-control_1_7redlinestimulus13.png,TMT_Control,7,166,0.0,,,,'--',,,,'--',,,,'--',
17,['1'],1,TMTstop-control_1_7linestimulus14.png,TMTstop-control_1_7greenlinestimulus14.png,TMTstop-control_1_7redlinestimulus14.png,TMT_Control,7,167,0.0,,,,'--',,,,'--',,,,'--',
18,['2'],2,TMTstop-control_1_7linestimulus15.png,TMTstop-control_1_7greenlinestimulus15.png,TMTstop-control_1_7redlinestimulus15.png,TMT_Control,7,168,0.0,,,,'--',,,,'--',,,,'--',
19,['3'],3,TMTstop-control_1_7linestimulus16.png,TMTstop-control_1_7greenlinestimulus16.png,TMTstop-control_1_7redlinestimulus16.png,TMT_Control,7,169,0.0,,,,'--',,,,'--',,,,'--',
20,['2'],2,TMTstop-control_1_7linestimulus17.png,TMTstop-control_1_7greenlinestimulus17.png,TMTstop-control_1_7redlinestimulus17.png,TMT_Control,7,170,0.0,,,,'--',,,,'--',,,,'--',
21,['3'],3,TMTstop-control_1_7linestimulus18.png,TMTstop-control_1_7greenlinestimulus18.png,TMTstop-control_1_7redlinestimulus18.png,TMT_Control,7,171,0.0,,,,'--',,,,'--',,,,'--',
22,['2'],2,TMTstop-control_1_7linestimulus19.png,TMTstop-control_1_7greenlinestimulus19.png,TMTstop-control_1_7redlinestimulus19.png,TMT_Control,7,172,0.0,,,,'--',,,,'--',,,,'--',
23,['3'],3,TMTstop-control_1_7linestimulus20.png,TMTstop-control_1_7greenlinestimulus20.png,TMTstop-control_1_7redlinestimulus20.png,TMT_Control,7,173,0.0,,,,'--',,,,'--',,,,'--',
24,['2'],2,TMTstop-control_1_7linestimulus21.png,TMTstop-control_1_7greenlinestimulus21.png,TMTstop-control_1_7redlinestimulus21.png,TMT_Control,7,174,0.0,,,,'--',,,,'--',,,,'--',
25,['3'],3,TMTstop-control_1_7linestimulus22.png,TMTstop-control_1_7greenlinestimulus22.png,TMTstop-control_1_7redlinestimulus22.png,TMT_Control,7,175,0.0,,,,'--',,,,'--',,,,'--',
None,None,None,TMTstop-control_1_7linestimulus23.png,TMTstop-control_1_7greenlinestimulus23.png,TMTstop-control_1_7redlinestimulus23.png,TMT_Control,7,Feedback_last,0.0,,,,'--',,,,'--',,,,'--',

extraInfo
participant,
session,001
date,2022_May_10_1109
expName,TMT_fmri
psychopyVersion,2021.2.3
frameRate,122.71384113973052
﻿NumberLetter,corrAns,Correct,StimFile,Correct_StimFile,False_StimFile,Version,Block,TrialNumber_session,n,Stim.started_mean,Stim.started_raw,Stim.started_std,Stim.stopped_raw,key_resp_2.corr_mean,key_resp_2.corr_raw,key_resp_2.corr_std,key_resp_2.keys_raw,key_resp_2.started_mean,key_resp_2.started_raw,key_resp_2.started_std,key_resp_2.stopped_raw,order
1,['3'],3,TMTstop-control_1_8.png,TMTstop-control_1_8.png,TMTstop-control_1_8.png,TMT_Control,8,176,1.0,156.33360290527344,156.33360290527344,0.0,,0.0,0.0,0.0,,156.33360290527344,156.33360290527344,0.0,,0.0
2,['2'],2,TMTstop-control_1_8.png,TMTstop-control_1_8firstgreen.png,TMTstop-control_1_8firstred.png,TMT_Control,8,177,0.0,,,,'--',,,,'--',,,,'--',
3,['3'],3,TMTstop-control_1_8linestimulus0.png,TMTstop-control_1_8greenlinestimulus0.png,TMTstop-control_1_8redlinestimulus0.png,TMT_Control,8,178,0.0,,,,'--',,,,'--',,,,'--',
4,['2'],2,TMTstop-control_1_8linestimulus1.png,TMTstop-control_1_8greenlinestimulus1.png,TMTstop-control_1_8redlinestimulus1.png,TMT_Control,8,179,0.0,,,,'--',,,,'--',,,,'--',
5,['1'],1,TMTstop-control_1_8linestimulus2.png,TMTstop-control_1_8greenlinestimulus2.png,TMTstop-control_1_8redlinestimulus2.png,TMT_Control,8,180,0.0,,,,'--',,,,'--',,,,'--',
6,['2'],2,TMTstop-control_1_8linestimulus3.png,TMTstop-control_1_8greenlinestimulus3.png,TMTstop-control_1_8redlinestimulus3.png,TMT_Control,8,181,0.0,,,,'--',,,,'--',,,,'--',
7,['1'],1,TMTstop-control_1_8linestimulus4.png,TMTstop-control_1_8greenlinestimulus4.png,TMTstop-control_1_8redlinestimulus4.png,TMT_Control,8,182,0.0,,,,'--',,,,'--',,,,'--',
8,['2'],2,TMTstop-control_1_8linestimulus4.png,TMTstop-control_1_8greenlinestimulus5.png,TMTstop-control_1_8redlinestimulus5.png,TMT_Control,8,183,0.0,,,,'--',,,,'--',,,,'--',
9,['3'],3,TMTstop-control_1_8linestimulus6.png,TMTstop-control_1_8greenlinestimulus6.png,TMTstop-control_1_8redlinestimulus6.png,TMT_Control,8,184,0.0,,,,'--',,,,'--',,,,'--',
10,['2'],2,TMTstop-control_1_8linestimulus7.png,TMTstop-control_1_8greenlinestimulus7.png,TMTstop-control_1_8redlinestimulus7.png,TMT_Control,8,185,0.0,,,,'--',,,,'--',,,,'--',
11,['1'],1,TMTstop-control_1_8linestimulus8.png,TMTstop-control_1_8greenlinestimulus8.png,TMTstop-control_1_8redlinestimulus8.png,TMT_Control,8,186,0.0,,,,'--',,,,'--',,,,'--',
12,['3'],3,TMTstop-control_1_8linestimulus9.png,TMTstop-control_1_8greenlinestimulus9.png,TMTstop-control_1_8redlinestimulus9.png,TMT_Control,8,187,0.0,,,,'--',,,,'--',,,,'--',
13,['1'],1,TMTstop-control_1_8linestimulus10.png,TMTstop-control_1_8greenlinestimulus10.png,TMTstop-control_1_8redlinestimulus10.png,TMT_Control,8,188,0.0,,,,'--',,,,'--',,,,'--',
14,['3'],3,TMTstop-control_1_8linestimulus11.png,TMTstop-control_1_8greenlinestimulus11.png,TMTstop-control_1_8redlinestimulus11.png,TMT_Control,8,189,0.0,,,,'--',,,,'--',,,,'--',
15,['1'],1,TMTstop-control_1_8linestimulus12.png,TMTstop-control_1_8greenlinestimulus12.png,TMTstop-control_1_8redlinestimulus12.png,TMT_Control,8,190,0.0,,,,'--',,,,'--',,,,'--',
16,['3'],3,TMTstop-control_1_8linestimulus13.png,TMTstop-control_1_8greenlinestimulus13.png,TMTstop-control_1_8redlinestimulus13.png,TMT_Control,8,191,0.0,,,,'--',,,,'--',,,,'--',
17,['1'],1,TMTstop-control_1_8linestimulus14.png,TMTstop-control_1_8greenlinestimulus14.png,TMTstop-control_1_8redlinestimulus14.png,TMT_Control,8,192,0.0,,,,'--',,,,'--',,,,'--',
18,['2'],2,TMTstop-control_1_8linestimulus15.png,TMTstop-control_1_8greenlinestimulus15.png,TMTstop-control_1_8redlinestimulus15.png,TMT_Control,8,193,0.0,,,,'--',,,,'--',,,,'--',
19,['1'],1,TMTstop-control_1_8linestimulus16.png,TMTstop-control_1_8greenlinestimulus16.png,TMTstop-control_1_8redlinestimulus16.png,TMT_Control,8,194,0.0,,,,'--',,,,'--',,,,'--',
20,['3'],3,TMTstop-control_1_8linestimulus17.png,TMTstop-control_1_8greenlinestimulus17.png,TMTstop-control_1_8redlinestimulus17.png,TMT_Control,8,195,0.0,,,,'--',,,,'--',,,,'--',
21,['2'],2,TMTstop-control_1_8linestimulus18.png,TMTstop-control_1_8greenlinestimulus18.png,TMTstop-control_1_8redlinestimulus18.png,TMT_Control,8,196,0.0,,,,'--',,,,'--',,,,'--',
22,['3'],3,TMTstop-control_1_8linestimulus19.png,TMTstop-control_1_8greenlinestimulus19.png,TMTstop-control_1_8redlinestimulus19.png,TMT_Control,8,197,0.0,,,,'--',,,,'--',,,,'--',
23,['1'],1,TMTstop-control_1_8linestimulus20.png,TMTstop-control_1_8greenlinestimulus20.png,TMTstop-control_1_8redlinestimulus20.png,TMT_Control,8,198,0.0,,,,'--',,,,'--',,,,'--',
24,['2'],2,TMTstop-control_1_8linestimulus21.png,TMTstop-control_1_8greenlinestimulus21.png,TMTstop-control_1_8redlinestimulus21.png,TMT_Control,8,199,0.0,,,,'--',,,,'--',,,,'--',
25,['3'],3,TMTstop-control_1_8linestimulus22.png,TMTstop-control_1_8greenlinestimulus22.png,TMTstop-control_1_8redlinestimulus22.png,TMT_Control,8,200,0.0,,,,'--',,,,'--',,,,'--',
None,None,None,TMTstop-control_1_8linestimulus23.png,TMTstop-control_1_8greenlinestimulus23.png,TMTstop-control_1_8redlinestimulus23.png,TMT_Control,8,Feedback_last,0.0,,,,'--',,,,'--',,,,'--',

extraInfo
participant,
session,001
date,2022_May_10_1109
expName,TMT_fmri
psychopyVersion,2021.2.3
frameRate,122.71384113973052
