NumberLetter,corrAns,Correct,StimFile,Correct_StimFile,False_StimFile,Version,Paper,TrialNumber_Version,Round,Block,TrialNumber_total,n,Stim.started_mean,Stim.started_raw,Stim.started_std,Stim.stopped_raw,key_resp_2.corr_mean,key_resp_2.corr_raw,key_resp_2.corr_std,key_resp_2.keys_raw,key_resp_2.rt_raw,key_resp_2.started_mean,key_resp_2.started_raw,key_resp_2.started_std,key_resp_2.stopped_raw,order
1,['2'],2,Images/TMTstop-control_1_1.png,Images/TMTstop-control_1_1.png,Images/TMTstop-control_1_1.png,TMT_Control,C1,1,1,1,1,1.0,48.080142974853516,48.080142974853516,0.0,,1.0,1.0,0.0,1,2,0.5096114000189118,1.1697945999912918,48.080142974853516,48.080142974853516,0.0,,0.0
2,['1'],1,Images/TMTstop-control_1_1.png,Images/TMTstop-control_1_1firstgreen.png,Images/TMTstop-control_1_1firstred.png,TMT_Control,C1,2,None,1,2,1.0,49.30935287475586,49.30935287475586,0.0,,1.0,1.0,0.0,2,3,1,0.41663659998448566,0.5596137000247836,0.7986456999788061,49.30935287475586,49.30935287475586,0.0,,1.0
3,['3'],3,Images/TMTstop-control_1_1linestimulus0.png,Images/TMTstop-control_1_1greenlinestimulus0.png,Images/TMTstop-control_1_1redlinestimulus0.png,TMT_Control,C1,3,None,1,3,1.0,50.19660949707031,50.19660949707031,0.0,,1.0,1.0,0.0,2,3,0.00841549999313429,0.07725629996275529,50.19660949707031,50.19660949707031,0.0,,2.0
4,['1'],1,Images/TMTstop-control_1_1linestimulus1.png,Images/TMTstop-control_1_1greenlinestimulus1.png,Images/TMTstop-control_1_1redlinestimulus1.png,TMT_Control,C1,4,None,1,4,1.0,50.33430480957031,50.33430480957031,0.0,,1.0,1.0,0.0,1,0.14547920000040904,50.33430480957031,50.33430480957031,0.0,,3.0
5,['3'],3,Images/TMTstop-control_1_1linestimulus2.png,Images/TMTstop-control_1_1greenlinestimulus2.png,Images/TMTstop-control_1_1redlinestimulus2.png,TMT_Control,C1,5,None,1,5,1.0,50.542236328125,50.542236328125,0.0,,1.0,1.0,0.0,2,1,2,3,0.008323899994138628,0.617584399995394,0.6401899000047706,0.7577510999981314,50.542236328125,50.542236328125,0.0,,4.0
6,['1'],1,Images/TMTstop-control_1_1linestimulus3.png,Images/TMTstop-control_1_1greenlinestimulus3.png,Images/TMTstop-control_1_1redlinestimulus3.png,TMT_Control,C1,6,None,1,6,1.0,51.37329864501953,51.37329864501953,0.0,,1.0,1.0,0.0,1,0.08638079999946058,51.37329864501953,51.37329864501953,0.0,,5.0
7,['2'],2,Images/TMTstop-control_1_1linestimulus4.png,Images/TMTstop-control_1_1greenlinestimulus4.png,Images/TMTstop-control_1_1redlinestimulus4.png,TMT_Control,C1,7,None,1,7,1.0,51.523681640625,51.523681640625,0.0,,1.0,1.0,0.0,2,-0.01821499998914078,51.523681640625,51.523681640625,0.0,,6.0
8,['1'],1,Images/TMTstop-control_1_1linestimulus4.png,Images/TMTstop-control_1_1greenlinestimulus5.png,Images/TMTstop-control_1_1redlinestimulus5.png,TMT_Control,C1,8,None,1,8,1.0,51.58020782470703,51.58020782470703,0.0,,1.0,1.0,0.0,3,1,0.00922750000609085,0.14570399996591732,51.58020782470703,51.58020782470703,0.0,,7.0
9,['3'],3,Images/TMTstop-control_1_1linestimulus6.png,Images/TMTstop-control_1_1greenlinestimulus6.png,Images/TMTstop-control_1_1redlinestimulus6.png,TMT_Control,C1,9,None,1,9,1.0,51.80950164794922,51.80950164794922,0.0,,1.0,1.0,0.0,2,3,-0.03968439996242523,0.05013570003211498,51.80950164794922,51.80950164794922,0.0,,8.0
10,['2'],2,Images/TMTstop-control_1_1linestimulus7.png,Images/TMTstop-control_1_1greenlinestimulus7.png,Images/TMTstop-control_1_1redlinestimulus7.png,TMT_Control,C1,10,None,1,10,1.0,51.909549713134766,51.909549713134766,0.0,,1.0,1.0,0.0,1,2,0.1054020999581553,0.19072179996874183,51.909549713134766,51.909549713134766,0.0,,9.0
11,['1'],1,Images/TMTstop-control_1_1linestimulus8.png,Images/TMTstop-control_1_1greenlinestimulus8.png,Images/TMTstop-control_1_1redlinestimulus8.png,TMT_Control,C1,11,None,1,11,1.0,52.18851089477539,52.18851089477539,0.0,,1.0,1.0,0.0,3,1,2,2,3,1,-0.001244800048880279,0.5123116999748163,0.5304371999809518,0.5918089999468066,0.6982238999917172,0.8752929999609478,52.18851089477539,52.18851089477539,0.0,,10.0
12,['2'],2,Images/TMTstop-control_1_1linestimulus9.png,Images/TMTstop-control_1_1greenlinestimulus9.png,Images/TMTstop-control_1_1redlinestimulus9.png,TMT_Control,C1,12,None,1,12,1.0,53.14448928833008,53.14448928833008,0.0,,1.0,1.0,0.0,2,-0.027770599990617484,53.14448928833008,53.14448928833008,0.0,,11.0
13,['3'],3,Images/TMTstop-control_1_1linestimulus10.png,Images/TMTstop-control_1_1greenlinestimulus10.png,Images/TMTstop-control_1_1redlinestimulus10.png,TMT_Control,C1,13,None,1,13,1.0,53.196311950683594,53.196311950683594,0.0,,1.0,1.0,0.0,3,0.00640499999281019,53.196311950683594,53.196311950683594,0.0,,12.0
14,['2'],2,Images/TMTstop-control_1_1linestimulus11.png,Images/TMTstop-control_1_1greenlinestimulus11.png,Images/TMTstop-control_1_1redlinestimulus11.png,TMT_Control,C1,14,None,1,14,1.0,53.27970886230469,53.27970886230469,0.0,,1.0,1.0,0.0,1,2,0.08389790001092479,0.1290887999930419,53.27970886230469,53.27970886230469,0.0,,13.0
15,['3'],3,Images/TMTstop-control_1_1linestimulus12.png,Images/TMTstop-control_1_1greenlinestimulus12.png,Images/TMTstop-control_1_1redlinestimulus12.png,TMT_Control,C1,15,None,1,15,1.0,53.46803665161133,53.46803665161133,0.0,,1.0,1.0,0.0,3,0.019753600005060434,53.46803665161133,53.46803665161133,0.0,,14.0
16,['2'],2,Images/TMTstop-control_1_1linestimulus13.png,Images/TMTstop-control_1_1greenlinestimulus13.png,Images/TMTstop-control_1_1redlinestimulus13.png,TMT_Control,C1,16,None,1,16,1.0,53.55830383300781,53.55830383300781,0.0,,1.0,1.0,0.0,1,2,0.0936937999795191,0.12261459999717772,53.55830383300781,53.55830383300781,0.0,,15.0
17,['3'],3,Images/TMTstop-control_1_1linestimulus14.png,Images/TMTstop-control_1_1greenlinestimulus14.png,Images/TMTstop-control_1_1redlinestimulus14.png,TMT_Control,C1,17,None,1,17,1.0,53.758548736572266,53.758548736572266,0.0,,1.0,1.0,0.0,3,0.011764599999878556,53.758548736572266,53.758548736572266,0.0,,16.0
18,['2'],2,Images/TMTstop-control_1_1linestimulus15.png,Images/TMTstop-control_1_1greenlinestimulus15.png,Images/TMTstop-control_1_1redlinestimulus15.png,TMT_Control,C1,18,None,1,18,1.0,53.84144592285156,53.84144592285156,0.0,,1.0,1.0,0.0,1,2,0.07303580001462251,0.1158236000337638,53.84144592285156,53.84144592285156,0.0,,17.0
19,['1'],1,Images/TMTstop-control_1_1linestimulus16.png,Images/TMTstop-control_1_1greenlinestimulus16.png,Images/TMTstop-control_1_1redlinestimulus16.png,TMT_Control,C1,19,None,1,19,1.0,54.02561569213867,54.02561569213867,0.0,,1.0,1.0,0.0,3,1,0.011385100020561367,0.16014920000452548,54.02561569213867,54.02561569213867,0.0,,18.0
20,['3'],3,Images/TMTstop-control_1_1linestimulus17.png,Images/TMTstop-control_1_1greenlinestimulus17.png,Images/TMTstop-control_1_1redlinestimulus17.png,TMT_Control,C1,20,None,1,20,1.0,54.27694320678711,54.27694320678711,0.0,,1.0,1.0,0.0,2,3,-0.048495099996216595,0.047364900005050004,54.27694320678711,54.27694320678711,0.0,,19.0
21,['1'],1,Images/TMTstop-control_1_1linestimulus18.png,Images/TMTstop-control_1_1greenlinestimulus18.png,Images/TMTstop-control_1_1redlinestimulus18.png,TMT_Control,C1,21,None,1,21,1.0,54.37874221801758,54.37874221801758,0.0,,1.0,1.0,0.0,1,0.09405529999639839,54.37874221801758,54.37874221801758,0.0,,20.0
22,['2'],2,Images/TMTstop-control_1_1linestimulus19.png,Images/TMTstop-control_1_1greenlinestimulus19.png,Images/TMTstop-control_1_1redlinestimulus19.png,TMT_Control,C1,22,None,1,22,1.0,54.529685974121094,54.529685974121094,0.0,,1.0,1.0,0.0,2,-0.0058991999831050634,54.529685974121094,54.529685974121094,0.0,,21.0
23,['3'],3,Images/TMTstop-control_1_1linestimulus20.png,Images/TMTstop-control_1_1greenlinestimulus20.png,Images/TMTstop-control_1_1redlinestimulus20.png,TMT_Control,C1,23,None,1,23,1.0,54.586395263671875,54.586395263671875,0.0,,1.0,1.0,0.0,3,0.048290900012943894,54.586395263671875,54.586395263671875,0.0,,22.0
24,['2'],2,Images/TMTstop-control_1_1linestimulus21.png,Images/TMTstop-control_1_1greenlinestimulus21.png,Images/TMTstop-control_1_1redlinestimulus21.png,TMT_Control,C1,24,None,1,24,1.0,54.68653106689453,54.68653106689453,0.0,,1.0,1.0,0.0,2,0.4763276999583468,54.68653106689453,54.68653106689453,0.0,,23.0
25,['1'],1,Images/TMTstop-control_1_1linestimulus22.png,Images/TMTstop-control_1_1greenlinestimulus22.png,Images/TMTstop-control_1_1redlinestimulus22.png,TMT_Control,C1,25,None,1,25,1.0,55.231170654296875,55.231170654296875,0.0,,1.0,1.0,0.0,1,0.3316161999828182,55.231170654296875,55.231170654296875,0.0,,24.0
None,None,None,Images/TMTstop-control_1_1linestimulus23.png,Images/TMTstop-control_1_1greenlinestimulus23.png,Images/TMTstop-control_1_1redlinestimulus23.png,TMT_Control,C1,Feedback_last,None,1,Feedback_last,1.0,55.62244415283203,55.62244415283203,0.0,,1.0,1.0,0.0,,'--',55.62244415283203,55.62244415283203,0.0,,25.0

extraInfo
participant,
session,001
date,2022_Dec_20_1655
expName,TMT_fmri
psychopyVersion,2021.2.3
frameRate,59.88583364190807
﻿NumberLetter,corrAns,Correct,StimFile,Correct_StimFile,False_StimFile,Version,Paper,TrialNumber_Version,Round,Block,TrialNumber_total,n,Stim.started_mean,Stim.started_raw,Stim.started_std,Stim.stopped_raw,key_resp_2.corr_mean,key_resp_2.corr_raw,key_resp_2.corr_std,key_resp_2.keys_raw,key_resp_2.rt_raw,key_resp_2.started_mean,key_resp_2.started_raw,key_resp_2.started_std,key_resp_2.stopped_raw,order
1,['2'],2,Images/TMTstop-control_1_2.png,Images/TMTstop-control_1_2.png,Images/TMTstop-control_1_2.png,TMT_Control,C2,26,None,1,26,1.0,59.92709732055664,59.92709732055664,0.0,,1.0,1.0,0.0,1,2,0.2904746000422165,0.40775190002750605,59.92709732055664,59.92709732055664,0.0,,0.0
2,['3'],3,Images/TMTstop-control_1_2.png,Images/TMTstop-control_1_2firstgreen.png,Images/TMTstop-control_1_2firstred.png,TMT_Control,C2,27,None,1,27,1.0,60.414974212646484,60.414974212646484,0.0,,1.0,1.0,0.0,3,-0.0441385000012815,60.414974212646484,60.414974212646484,0.0,,1.0
3,['2'],2,Images/TMTstop-control_1_2linestimulus0.png,Images/TMTstop-control_1_2greenlinestimulus0.png,Images/TMTstop-control_1_2redlinestimulus0.png,TMT_Control,C2,28,None,1,28,1.0,60.47006607055664,60.47006607055664,0.0,,1.0,1.0,0.0,1,2,0.061426500033121556,0.11880550003843382,60.47006607055664,60.47006607055664,0.0,,2.0
4,['3'],3,Images/TMTstop-control_1_2linestimulus1.png,Images/TMTstop-control_1_2greenlinestimulus1.png,Images/TMTstop-control_1_2redlinestimulus1.png,TMT_Control,C2,29,None,1,29,1.0,60.66437911987305,60.66437911987305,0.0,,1.0,1.0,0.0,3,-0.00848670001141727,60.66437911987305,60.66437911987305,0.0,,3.0
5,['2'],2,Images/TMTstop-control_1_2linestimulus2.png,Images/TMTstop-control_1_2greenlinestimulus2.png,Images/TMTstop-control_1_2redlinestimulus2.png,TMT_Control,C2,30,None,1,30,1.0,60.71432876586914,60.71432876586914,0.0,,1.0,1.0,0.0,1,2,0.07764799997676164,0.1383728999644518,60.71432876586914,60.71432876586914,0.0,,4.0
6,['3'],3,Images/TMTstop-control_1_2linestimulus3.png,Images/TMTstop-control_1_2greenlinestimulus3.png,Images/TMTstop-control_1_2redlinestimulus3.png,TMT_Control,C2,31,None,1,31,1.0,60.95820999145508,60.95820999145508,0.0,,1.0,1.0,0.0,3,-0.03528710000682622,60.95820999145508,60.95820999145508,0.0,,5.0
7,['2'],2,Images/TMTstop-control_1_2linestimulus4.png,Images/TMTstop-control_1_2greenlinestimulus4.png,Images/TMTstop-control_1_2redlinestimulus4.png,TMT_Control,C2,32,None,1,32,1.0,61.008445739746094,61.008445739746094,0.0,,1.0,1.0,0.0,1,2,0.06337760004680604,0.10701560002053156,61.008445739746094,61.008445739746094,0.0,,6.0
8,['1'],1,Images/TMTstop-control_1_2linestimulus4.png,Images/TMTstop-control_1_2greenlinestimulus5.png,Images/TMTstop-control_1_2redlinestimulus5.png,TMT_Control,C2,33,None,1,33,1.0,61.18170166015625,61.18170166015625,0.0,,1.0,1.0,0.0,3,2,1,0.013195899955462664,0.20830659999046475,0.2120287999860011,61.18170166015625,61.18170166015625,0.0,,7.0
9,['3'],3,Images/TMTstop-control_1_2linestimulus6.png,Images/TMTstop-control_1_2greenlinestimulus6.png,Images/TMTstop-control_1_2redlinestimulus6.png,TMT_Control,C2,34,None,1,34,1.0,61.461036682128906,61.461036682128906,0.0,,1.0,1.0,0.0,3,0.16282930003944784,61.461036682128906,61.461036682128906,0.0,,8.0
10,['2'],2,Images/TMTstop-control_1_2linestimulus7.png,Images/TMTstop-control_1_2greenlinestimulus7.png,Images/TMTstop-control_1_2redlinestimulus7.png,TMT_Control,C2,35,None,1,35,1.0,61.677581787109375,61.677581787109375,0.0,,1.0,1.0,0.0,1,2,0.13650189997861162,0.1643243000144139,61.677581787109375,61.677581787109375,0.0,,9.0
11,['3'],3,Images/TMTstop-control_1_2linestimulus8.png,Images/TMTstop-control_1_2greenlinestimulus8.png,Images/TMTstop-control_1_2redlinestimulus8.png,TMT_Control,C2,36,None,1,36,1.0,61.936119079589844,61.936119079589844,0.0,,1.0,1.0,0.0,3,0.021356599987484515,61.936119079589844,61.936119079589844,0.0,,10.0
12,['2'],2,Images/TMTstop-control_1_2linestimulus9.png,Images/TMTstop-control_1_2greenlinestimulus9.png,Images/TMTstop-control_1_2redlinestimulus9.png,TMT_Control,C2,37,None,1,37,1.0,62.019187927246094,62.019187927246094,0.0,,1.0,1.0,0.0,1,2,0.10362220002571121,0.15731380000943318,62.019187927246094,62.019187927246094,0.0,,11.0
13,['3'],3,Images/TMTstop-control_1_2linestimulus10.png,Images/TMTstop-control_1_2greenlinestimulus10.png,Images/TMTstop-control_1_2redlinestimulus10.png,TMT_Control,C2,38,None,1,38,1.0,62.25141525268555,62.25141525268555,0.0,,1.0,1.0,0.0,3,-6.430002395063639e-05,62.25141525268555,62.25141525268555,0.0,,12.0
14,['2'],2,Images/TMTstop-control_1_2linestimulus11.png,Images/TMTstop-control_1_2greenlinestimulus11.png,Images/TMTstop-control_1_2redlinestimulus11.png,TMT_Control,C2,39,None,1,39,1.0,62.308502197265625,62.308502197265625,0.0,,1.0,1.0,0.0,1,2,0.09552410000469536,0.14583380002295598,62.308502197265625,62.308502197265625,0.0,,13.0
15,['3'],3,Images/TMTstop-control_1_2linestimulus12.png,Images/TMTstop-control_1_2greenlinestimulus12.png,Images/TMTstop-control_1_2redlinestimulus12.png,TMT_Control,C2,40,None,1,40,1.0,62.51900100708008,62.51900100708008,0.0,,1.0,1.0,0.0,3,0.026389900012873113,62.51900100708008,62.51900100708008,0.0,,14.0
16,['1'],1,Images/TMTstop-control_1_2linestimulus13.png,Images/TMTstop-control_1_2greenlinestimulus13.png,Images/TMTstop-control_1_2redlinestimulus13.png,TMT_Control,C2,41,None,1,41,1.0,62.6087646484375,62.6087646484375,0.0,,1.0,1.0,0.0,1,0.08456370001658797,62.6087646484375,62.6087646484375,0.0,,15.0
17,['2'],2,Images/TMTstop-control_1_2linestimulus14.png,Images/TMTstop-control_1_2greenlinestimulus14.png,Images/TMTstop-control_1_2redlinestimulus14.png,TMT_Control,C2,42,None,1,42,1.0,62.75888442993164,62.75888442993164,0.0,,1.0,1.0,0.0,2,-0.02492370002437383,62.75888442993164,62.75888442993164,0.0,,16.0
18,['1'],1,Images/TMTstop-control_1_2linestimulus15.png,Images/TMTstop-control_1_2greenlinestimulus15.png,Images/TMTstop-control_1_2redlinestimulus15.png,TMT_Control,C2,43,None,1,43,1.0,62.80903625488281,62.80903625488281,0.0,,1.0,1.0,0.0,3,1,0.013426900026388466,0.17740770004456863,62.80903625488281,62.80903625488281,0.0,,17.0
19,['2'],2,Images/TMTstop-control_1_2linestimulus16.png,Images/TMTstop-control_1_2greenlinestimulus16.png,Images/TMTstop-control_1_2redlinestimulus16.png,TMT_Control,C2,44,None,1,44,1.0,63.04201126098633,63.04201126098633,0.0,,1.0,1.0,0.0,2,-0.03099790000123903,63.04201126098633,63.04201126098633,0.0,,18.0
20,['3'],3,Images/TMTstop-control_1_2linestimulus17.png,Images/TMTstop-control_1_2greenlinestimulus17.png,Images/TMTstop-control_1_2redlinestimulus17.png,TMT_Control,C2,45,None,1,45,1.0,63.09254455566406,63.09254455566406,0.0,,1.0,1.0,0.0,3,0.0311935999779962,63.09254455566406,63.09254455566406,0.0,,19.0
21,['1'],1,Images/TMTstop-control_1_2linestimulus18.png,Images/TMTstop-control_1_2greenlinestimulus18.png,Images/TMTstop-control_1_2redlinestimulus18.png,TMT_Control,C2,46,None,1,46,1.0,63.19266891479492,63.19266891479492,0.0,,1.0,1.0,0.0,1,0.08843409997643903,63.19266891479492,63.19266891479492,0.0,,20.0
22,['3'],3,Images/TMTstop-control_1_2linestimulus19.png,Images/TMTstop-control_1_2greenlinestimulus19.png,Images/TMTstop-control_1_2redlinestimulus19.png,TMT_Control,C2,47,None,1,47,1.0,63.34268569946289,63.34268569946289,0.0,,1.0,1.0,0.0,2,3,-0.020598999981302768,0.06926380004733801,63.34268569946289,63.34268569946289,0.0,,21.0
23,['2'],2,Images/TMTstop-control_1_2linestimulus20.png,Images/TMTstop-control_1_2greenlinestimulus20.png,Images/TMTstop-control_1_2redlinestimulus20.png,TMT_Control,C2,48,None,1,48,1.0,63.50424575805664,63.50424575805664,0.0,,1.0,1.0,0.0,1,2,0.050172299961559474,0.11465679999673739,63.50424575805664,63.50424575805664,0.0,,22.0
24,['3'],3,Images/TMTstop-control_1_2linestimulus21.png,Images/TMTstop-control_1_2greenlinestimulus21.png,Images/TMTstop-control_1_2redlinestimulus21.png,TMT_Control,C2,49,None,1,49,1.0,63.70448684692383,63.70448684692383,0.0,,1.0,1.0,0.0,3,-0.008030500030145049,63.70448684692383,63.70448684692383,0.0,,23.0
25,['1'],1,Images/TMTstop-control_1_2linestimulus22.png,Images/TMTstop-control_1_2greenlinestimulus22.png,Images/TMTstop-control_1_2redlinestimulus22.png,TMT_Control,C2,50,None,1,50,1.0,63.754432678222656,63.754432678222656,0.0,,1.0,1.0,0.0,1,0.40150149998953566,63.754432678222656,63.754432678222656,0.0,,24.0
None,None,None,Images/TMTstop-control_1_2linestimulus23.png,Images/TMTstop-control_1_2greenlinestimulus23.png,Images/TMTstop-control_1_2redlinestimulus23.png,TMT_Control,C2,Feedback_last,None,1,Feedback_last,1.0,64.2334213256836,64.2334213256836,0.0,,1.0,1.0,0.0,,'--',64.2334213256836,64.2334213256836,0.0,,25.0

extraInfo
participant,
session,001
date,2022_Dec_20_1655
expName,TMT_fmri
psychopyVersion,2021.2.3
frameRate,59.88583364190807
﻿NumberLetter,corrAns,Correct,StimFile,Correct_StimFile,False_StimFile,Version,Paper,TrialNumber_Version,Round,Block,TrialNumber_total,n,Stim.started_mean,Stim.started_raw,Stim.started_std,Stim.stopped_raw,key_resp_2.corr_mean,key_resp_2.corr_raw,key_resp_2.corr_std,key_resp_2.keys_raw,key_resp_2.rt_raw,key_resp_2.started_mean,key_resp_2.started_raw,key_resp_2.started_std,key_resp_2.stopped_raw,order
1,['2'],2,Images/TMTstop-control_1_3.png,Images/TMTstop-control_1_3.png,Images/TMTstop-control_1_3.png,TMT_Control,C3,51,None,1,51,1.0,68.53759765625,68.53759765625,0.0,,1.0,1.0,0.0,1,2,0.4192602999974042,0.47721589996945113,68.53759765625,68.53759765625,0.0,,0.0
2,['1'],1,Images/TMTstop-control_1_3.png,Images/TMTstop-control_1_3firstgreen.png,Images/TMTstop-control_1_3firstred.png,TMT_Control,C3,52,None,1,52,1.0,69.10893249511719,69.10893249511719,0.0,,1.0,1.0,0.0,3,1,-0.009721099981106818,0.15801310003735125,69.10893249511719,69.10893249511719,0.0,,1.0
3,['2'],2,Images/TMTstop-control_1_3linestimulus0.png,Images/TMTstop-control_1_3greenlinestimulus0.png,Images/TMTstop-control_1_3redlinestimulus0.png,TMT_Control,C3,53,None,1,53,1.0,69.31644439697266,69.31644439697266,0.0,,1.0,1.0,0.0,2,-0.007712899998296052,69.31644439697266,69.31644439697266,0.0,,2.0
4,['1'],1,Images/TMTstop-control_1_3linestimulus1.png,Images/TMTstop-control_1_3greenlinestimulus1.png,Images/TMTstop-control_1_3redlinestimulus1.png,TMT_Control,C3,54,None,1,54,1.0,69.36666870117188,69.36666870117188,0.0,,1.0,1.0,0.0,3,1,0.02001680003013462,0.18337850004900247,69.36666870117188,69.36666870117188,0.0,,3.0
5,['3'],3,Images/TMTstop-control_1_3linestimulus2.png,Images/TMTstop-control_1_3greenlinestimulus2.png,Images/TMTstop-control_1_3redlinestimulus2.png,TMT_Control,C3,55,None,1,55,1.0,69.61705780029297,69.61705780029297,0.0,,1.0,1.0,0.0,2,3,-0.019997700001113117,0.05984070000704378,69.61705780029297,69.61705780029297,0.0,,4.0
6,['1'],1,Images/TMTstop-control_1_3linestimulus3.png,Images/TMTstop-control_1_3greenlinestimulus3.png,Images/TMTstop-control_1_3redlinestimulus3.png,TMT_Control,C3,56,None,1,56,1.0,69.76709747314453,69.76709747314453,0.0,,1.0,1.0,0.0,1,0.07053520000772551,69.76709747314453,69.76709747314453,0.0,,5.0
7,['2'],2,Images/TMTstop-control_1_3linestimulus4.png,Images/TMTstop-control_1_3greenlinestimulus4.png,Images/TMTstop-control_1_3redlinestimulus4.png,TMT_Control,C3,57,None,1,57,1.0,69.91716766357422,69.91716766357422,0.0,,1.0,1.0,0.0,2,-0.04135800001677126,69.91716766357422,69.91716766357422,0.0,,6.0
8,['3'],3,Images/TMTstop-control_1_3linestimulus4.png,Images/TMTstop-control_1_3greenlinestimulus5.png,Images/TMTstop-control_1_3redlinestimulus5.png,TMT_Control,C3,58,None,1,58,1.0,69.97401428222656,69.97401428222656,0.0,,1.0,1.0,0.0,3,-0.021006499999202788,69.97401428222656,69.97401428222656,0.0,,7.0
9,['1'],1,Images/TMTstop-control_1_3linestimulus6.png,Images/TMTstop-control_1_3greenlinestimulus6.png,Images/TMTstop-control_1_3redlinestimulus6.png,TMT_Control,C3,59,None,1,59,1.0,70.02410888671875,70.02410888671875,0.0,,1.0,1.0,0.0,1,0.08001799997873604,70.02410888671875,70.02410888671875,0.0,,8.0
10,['2'],2,Images/TMTstop-control_1_3linestimulus7.png,Images/TMTstop-control_1_3greenlinestimulus7.png,Images/TMTstop-control_1_3redlinestimulus7.png,TMT_Control,C3,60,None,1,60,1.0,70.15734100341797,70.15734100341797,0.0,,1.0,1.0,0.0,2,-0.012114599987398833,70.15734100341797,70.15734100341797,0.0,,9.0
11,['1'],1,Images/TMTstop-control_1_3linestimulus8.png,Images/TMTstop-control_1_3greenlinestimulus8.png,Images/TMTstop-control_1_3redlinestimulus8.png,TMT_Control,C3,61,None,1,61,1.0,70.21221923828125,70.21221923828125,0.0,,1.0,1.0,0.0,3,1,0.014685200003441423,0.15511609998065978,70.21221923828125,70.21221923828125,0.0,,10.0
12,['2'],2,Images/TMTstop-control_1_3linestimulus9.png,Images/TMTstop-control_1_3greenlinestimulus9.png,Images/TMTstop-control_1_3redlinestimulus9.png,TMT_Control,C3,62,None,1,62,1.0,70.45161437988281,70.45161437988281,0.0,,1.0,1.0,0.0,2,-0.04415610001888126,70.45161437988281,70.45161437988281,0.0,,11.0
13,['3'],3,Images/TMTstop-control_1_3linestimulus10.png,Images/TMTstop-control_1_3greenlinestimulus10.png,Images/TMTstop-control_1_3redlinestimulus10.png,TMT_Control,C3,63,None,1,63,1.0,70.50176239013672,70.50176239013672,0.0,,1.0,1.0,0.0,3,-0.004833900020457804,70.50176239013672,70.50176239013672,0.0,,12.0
14,['2'],2,Images/TMTstop-control_1_3linestimulus11.png,Images/TMTstop-control_1_3greenlinestimulus11.png,Images/TMTstop-control_1_3redlinestimulus11.png,TMT_Control,C3,64,None,1,64,1.0,70.55175018310547,70.55175018310547,0.0,,1.0,1.0,0.0,1,2,0.08591080002952367,0.1347548000048846,70.55175018310547,70.55175018310547,0.0,,13.0
15,['1'],1,Images/TMTstop-control_1_3linestimulus12.png,Images/TMTstop-control_1_3greenlinestimulus12.png,Images/TMTstop-control_1_3redlinestimulus12.png,TMT_Control,C3,65,None,1,65,1.0,70.75198364257812,70.75198364257812,0.0,,1.0,1.0,0.0,3,1,0.030672899971250445,0.16512699995655566,70.75198364257812,70.75198364257812,0.0,,14.0
16,['3'],3,Images/TMTstop-control_1_3linestimulus13.png,Images/TMTstop-control_1_3greenlinestimulus13.png,Images/TMTstop-control_1_3redlinestimulus13.png,TMT_Control,C3,66,None,1,66,1.0,70.99327850341797,70.99327850341797,0.0,,1.0,1.0,0.0,2,3,-0.017598100006580353,0.06258929998148233,70.99327850341797,70.99327850341797,0.0,,15.0
17,['1'],1,Images/TMTstop-control_1_3linestimulus14.png,Images/TMTstop-control_1_3greenlinestimulus14.png,Images/TMTstop-control_1_3redlinestimulus14.png,TMT_Control,C3,67,None,1,67,1.0,71.14348602294922,71.14348602294922,0.0,,1.0,1.0,0.0,1,0.06945800001267344,71.14348602294922,71.14348602294922,0.0,,16.0
18,['3'],3,Images/TMTstop-control_1_3linestimulus15.png,Images/TMTstop-control_1_3greenlinestimulus15.png,Images/TMTstop-control_1_3redlinestimulus15.png,TMT_Control,C3,68,None,1,68,1.0,71.27808380126953,71.27808380126953,0.0,,1.0,1.0,0.0,2,3,-0.016040300019085407,0.07645330001832917,71.27808380126953,71.27808380126953,0.0,,17.0
19,['2'],2,Images/TMTstop-control_1_3linestimulus16.png,Images/TMTstop-control_1_3greenlinestimulus16.png,Images/TMTstop-control_1_3redlinestimulus16.png,TMT_Control,C3,69,None,1,69,1.0,71.42835235595703,71.42835235595703,0.0,,1.0,1.0,0.0,1,2,0.0836855000234209,0.1311549000092782,71.42835235595703,71.42835235595703,0.0,,18.0
20,['1'],1,Images/TMTstop-control_1_3linestimulus17.png,Images/TMTstop-control_1_3greenlinestimulus17.png,Images/TMTstop-control_1_3redlinestimulus17.png,TMT_Control,C3,70,None,1,70,1.0,71.61614990234375,71.61614990234375,0.0,,1.0,1.0,0.0,3,1,0.037447000038810074,0.1947476000059396,71.61614990234375,71.61614990234375,0.0,,19.0
21,['3'],3,Images/TMTstop-control_1_3linestimulus18.png,Images/TMTstop-control_1_3greenlinestimulus18.png,Images/TMTstop-control_1_3redlinestimulus18.png,TMT_Control,C3,71,None,1,71,1.0,71.90650177001953,71.90650177001953,0.0,,1.0,1.0,0.0,2,3,-0.04543759999796748,0.0386222000233829,71.90650177001953,71.90650177001953,0.0,,20.0
22,['2'],2,Images/TMTstop-control_1_3linestimulus19.png,Images/TMTstop-control_1_3greenlinestimulus19.png,Images/TMTstop-control_1_3redlinestimulus19.png,TMT_Control,C3,72,None,1,72,1.0,72.00658416748047,72.00658416748047,0.0,,1.0,1.0,0.0,1,2,0.10557580000022426,0.15498490002937615,72.00658416748047,72.00658416748047,0.0,,21.0
23,['3'],3,Images/TMTstop-control_1_3linestimulus20.png,Images/TMTstop-control_1_3greenlinestimulus20.png,Images/TMTstop-control_1_3redlinestimulus20.png,TMT_Control,C3,73,None,1,73,1.0,72.22348022460938,72.22348022460938,0.0,,1.0,1.0,0.0,3,0.02701099996920675,72.22348022460938,72.22348022460938,0.0,,22.0
24,['1'],1,Images/TMTstop-control_1_3linestimulus21.png,Images/TMTstop-control_1_3greenlinestimulus21.png,Images/TMTstop-control_1_3redlinestimulus21.png,TMT_Control,C3,74,None,1,74,1.0,72.30692291259766,72.30692291259766,0.0,,1.0,1.0,0.0,1,0.08097629999974743,72.30692291259766,72.30692291259766,0.0,,23.0
25,['2'],2,Images/TMTstop-control_1_3linestimulus22.png,Images/TMTstop-control_1_3greenlinestimulus22.png,Images/TMTstop-control_1_3redlinestimulus22.png,TMT_Control,C3,75,None,1,75,1.0,72.44025421142578,72.44025421142578,0.0,,1.0,1.0,0.0,2,0.016849800013005733,72.44025421142578,72.44025421142578,0.0,,24.0
None,None,None,Images/TMTstop-control_1_3linestimulus23.png,Images/TMTstop-control_1_3greenlinestimulus23.png,Images/TMTstop-control_1_3redlinestimulus23.png,TMT_Control,C3,Feedback_last,None,1,Feedback_last,1.0,72.50714111328125,72.50714111328125,0.0,,1.0,1.0,0.0,,'--',72.50714111328125,72.50714111328125,0.0,,25.0

extraInfo
participant,
session,001
date,2022_Dec_20_1655
expName,TMT_fmri
psychopyVersion,2021.2.3
frameRate,59.88583364190807
﻿NumberLetter,corrAns,Correct,StimFile,Correct_StimFile,False_StimFile,Version,Paper,TrialNumber_Version,Round,Block,TrialNumber_total,n,Stim.started_mean,Stim.started_raw,Stim.started_std,Stim.stopped_raw,key_resp_2.corr_mean,key_resp_2.corr_raw,key_resp_2.corr_std,key_resp_2.keys_raw,key_resp_2.rt_raw,key_resp_2.started_mean,key_resp_2.started_raw,key_resp_2.started_std,key_resp_2.stopped_raw,order
1,['2'],2,Images/TMTstop-control_1_4.png,Images/TMTstop-control_1_4.png,Images/TMTstop-control_1_4.png,TMT_Control,C4,76,None,1,76,1.0,76.87494659423828,76.87494659423828,0.0,,1.0,1.0,0.0,1,2,2.206997799978126,2.300736900011543,76.87494659423828,76.87494659423828,0.0,,0.0
2,['1'],1,Images/TMTstop-control_1_4.png,Images/TMTstop-control_1_4firstgreen.png,Images/TMTstop-control_1_4firstred.png,TMT_Control,C4,77,None,1,77,1.0,79.24837493896484,79.24837493896484,0.0,,1.0,1.0,0.0,3,1,-0.011273300042375922,0.14818499999819323,79.24837493896484,79.24837493896484,0.0,,1.0
3,['3'],3,Images/TMTstop-control_1_4linestimulus0.png,Images/TMTstop-control_1_4greenlinestimulus0.png,Images/TMTstop-control_1_4redlinestimulus0.png,TMT_Control,C4,78,None,1,78,1.0,79.45294189453125,79.45294189453125,0.0,,1.0,1.0,0.0,2,3,-0.02489379997132346,0.05285380000714213,79.45294189453125,79.45294189453125,0.0,,2.0
4,['1'],1,Images/TMTstop-control_1_4linestimulus1.png,Images/TMTstop-control_1_4greenlinestimulus1.png,Images/TMTstop-control_1_4redlinestimulus1.png,TMT_Control,C4,79,None,1,79,1.0,79.60330200195312,79.60330200195312,0.0,,1.0,1.0,0.0,1,0.04162620002171025,79.60330200195312,79.60330200195312,0.0,,3.0
5,['3'],3,Images/TMTstop-control_1_4linestimulus2.png,Images/TMTstop-control_1_4greenlinestimulus2.png,Images/TMTstop-control_1_4redlinestimulus2.png,TMT_Control,C4,80,None,1,80,1.0,79.71288299560547,79.71288299560547,0.0,,1.0,1.0,0.0,2,3,-0.03756500000599772,0.04994519997853786,79.71288299560547,79.71288299560547,0.0,,4.0
6,['1'],1,Images/TMTstop-control_1_4linestimulus3.png,Images/TMTstop-control_1_4greenlinestimulus3.png,Images/TMTstop-control_1_4redlinestimulus3.png,TMT_Control,C4,81,None,1,81,1.0,79.81322479248047,79.81322479248047,0.0,,1.0,1.0,0.0,1,0.08755279995966703,79.81322479248047,79.81322479248047,0.0,,5.0
7,['3'],3,Images/TMTstop-control_1_4linestimulus4.png,Images/TMTstop-control_1_4greenlinestimulus4.png,Images/TMTstop-control_1_4redlinestimulus4.png,TMT_Control,C4,82,None,1,82,1.0,79.96337890625,79.96337890625,0.0,,1.0,1.0,0.0,2,3,-0.016664299997501075,0.04973589995643124,79.96337890625,79.96337890625,0.0,,6.0
8,['1'],1,Images/TMTstop-control_1_4linestimulus4.png,Images/TMTstop-control_1_4greenlinestimulus5.png,Images/TMTstop-control_1_4redlinestimulus5.png,TMT_Control,C4,83,None,1,83,1.0,80.06974029541016,80.06974029541016,0.0,,1.0,1.0,0.0,1,0.09210250002797693,80.06974029541016,80.06974029541016,0.0,,7.0
9,['3'],3,Images/TMTstop-control_1_4linestimulus6.png,Images/TMTstop-control_1_4greenlinestimulus6.png,Images/TMTstop-control_1_4redlinestimulus6.png,TMT_Control,C4,84,None,1,84,1.0,80.22309112548828,80.22309112548828,0.0,,1.0,1.0,0.0,2,3,-0.02187280001817271,0.06214920000638813,80.22309112548828,80.22309112548828,0.0,,8.0
10,['2'],2,Images/TMTstop-control_1_4linestimulus7.png,Images/TMTstop-control_1_4greenlinestimulus7.png,Images/TMTstop-control_1_4redlinestimulus7.png,TMT_Control,C4,85,None,1,85,1.0,80.35747528076172,80.35747528076172,0.0,,1.0,1.0,0.0,1,2,0.09766540001146495,0.10947099997429177,80.35747528076172,80.35747528076172,0.0,,9.0
11,['1'],1,Images/TMTstop-control_1_4linestimulus8.png,Images/TMTstop-control_1_4greenlinestimulus8.png,Images/TMTstop-control_1_4redlinestimulus8.png,TMT_Control,C4,86,None,1,86,1.0,80.56827545166016,80.56827545166016,0.0,,1.0,1.0,0.0,3,1,0.03652750002220273,0.18369879998499528,80.56827545166016,80.56827545166016,0.0,,10.0
12,['3'],3,Images/TMTstop-control_1_4linestimulus9.png,Images/TMTstop-control_1_4greenlinestimulus9.png,Images/TMTstop-control_1_4redlinestimulus9.png,TMT_Control,C4,87,None,1,87,1.0,80.80780792236328,80.80780792236328,0.0,,1.0,1.0,0.0,2,3,-0.007742100046016276,0.0953190999571234,80.80780792236328,80.80780792236328,0.0,,11.0
13,['2'],2,Images/TMTstop-control_1_4linestimulus10.png,Images/TMTstop-control_1_4greenlinestimulus10.png,Images/TMTstop-control_1_4redlinestimulus10.png,TMT_Control,C4,88,None,1,88,1.0,80.96099853515625,80.96099853515625,0.0,,1.0,1.0,0.0,1,2,0.086576999980025,0.13225659995805472,80.96099853515625,80.96099853515625,0.0,,12.0
14,['3'],3,Images/TMTstop-control_1_4linestimulus11.png,Images/TMTstop-control_1_4greenlinestimulus11.png,Images/TMTstop-control_1_4redlinestimulus11.png,TMT_Control,C4,89,None,1,89,1.0,81.16120910644531,81.16120910644531,0.0,,1.0,1.0,0.0,3,0.012810499989427626,81.16120910644531,81.16120910644531,0.0,,13.0
15,['2'],2,Images/TMTstop-control_1_4linestimulus12.png,Images/TMTstop-control_1_4greenlinestimulus12.png,Images/TMTstop-control_1_4redlinestimulus12.png,TMT_Control,C4,90,None,1,90,1.0,81.24464416503906,81.24464416503906,0.0,,1.0,1.0,0.0,1,2,0.08264489995781332,0.13486579997697845,81.24464416503906,81.24464416503906,0.0,,14.0
16,['1'],1,Images/TMTstop-control_1_4linestimulus13.png,Images/TMTstop-control_1_4greenlinestimulus13.png,Images/TMTstop-control_1_4redlinestimulus13.png,TMT_Control,C4,91,None,1,91,1.0,81.42810821533203,81.42810821533203,0.0,,1.0,1.0,0.0,3,1,0.02193089999491349,0.1739652999676764,81.42810821533203,81.42810821533203,0.0,,15.0
17,['3'],3,Images/TMTstop-control_1_4linestimulus14.png,Images/TMTstop-control_1_4greenlinestimulus14.png,Images/TMTstop-control_1_4redlinestimulus14.png,TMT_Control,C4,92,None,1,92,1.0,81.66175842285156,81.66175842285156,0.0,,1.0,1.0,0.0,2,3,-0.018681999994441867,0.06732939998619258,81.66175842285156,81.66175842285156,0.0,,16.0
18,['1'],1,Images/TMTstop-control_1_4linestimulus15.png,Images/TMTstop-control_1_4greenlinestimulus15.png,Images/TMTstop-control_1_4redlinestimulus15.png,TMT_Control,C4,93,None,1,93,1.0,81.81172943115234,81.81172943115234,0.0,,1.0,1.0,0.0,1,0.06724929995834827,81.81172943115234,81.81172943115234,0.0,,17.0
19,['2'],2,Images/TMTstop-control_1_4linestimulus16.png,Images/TMTstop-control_1_4greenlinestimulus16.png,Images/TMTstop-control_1_4redlinestimulus16.png,TMT_Control,C4,94,None,1,94,1.0,81.93232727050781,81.93232727050781,0.0,,1.0,1.0,0.0,2,-0.004302300047129393,81.93232727050781,81.93232727050781,0.0,,18.0
20,['1'],1,Images/TMTstop-control_1_4linestimulus17.png,Images/TMTstop-control_1_4greenlinestimulus17.png,Images/TMTstop-control_1_4redlinestimulus17.png,TMT_Control,C4,95,None,1,95,1.0,81.98896789550781,81.98896789550781,0.0,,1.0,1.0,0.0,3,1,0.01007779996143654,0.17316080001182854,81.98896789550781,81.98896789550781,0.0,,19.0
21,['2'],2,Images/TMTstop-control_1_4linestimulus18.png,Images/TMTstop-control_1_4greenlinestimulus18.png,Images/TMTstop-control_1_4redlinestimulus18.png,TMT_Control,C4,96,None,1,96,1.0,82.25325775146484,82.25325775146484,0.0,,1.0,1.0,0.0,2,-0.051687999977730215,82.25325775146484,82.25325775146484,0.0,,20.0
22,['1'],1,Images/TMTstop-control_1_4linestimulus19.png,Images/TMTstop-control_1_4greenlinestimulus19.png,Images/TMTstop-control_1_4redlinestimulus19.png,TMT_Control,C4,97,None,1,97,1.0,82.31060791015625,82.31060791015625,0.0,,1.0,1.0,0.0,3,1,-0.011487200041301548,0.13237759994808584,82.31060791015625,82.31060791015625,0.0,,21.0
23,['2'],2,Images/TMTstop-control_1_4linestimulus20.png,Images/TMTstop-control_1_4greenlinestimulus20.png,Images/TMTstop-control_1_4redlinestimulus20.png,TMT_Control,C4,98,None,1,98,1.0,82.51081085205078,82.51081085205078,0.0,,1.0,1.0,0.0,2,-0.03281920001609251,82.51081085205078,82.51081085205078,0.0,,22.0
24,['1'],1,Images/TMTstop-control_1_4linestimulus21.png,Images/TMTstop-control_1_4greenlinestimulus21.png,Images/TMTstop-control_1_4redlinestimulus21.png,TMT_Control,C4,99,None,1,99,1.0,82.56098175048828,82.56098175048828,0.0,,1.0,1.0,0.0,3,1,0.0645619000424631,0.1991363000124693,82.56098175048828,82.56098175048828,0.0,,23.0
25,['2'],2,Images/TMTstop-control_1_4linestimulus22.png,Images/TMTstop-control_1_4greenlinestimulus22.png,Images/TMTstop-control_1_4redlinestimulus22.png,TMT_Control,C4,100,None,1,100,1.0,82.83751678466797,82.83751678466797,0.0,,1.0,1.0,0.0,2,-0.04679839999880642,82.83751678466797,82.83751678466797,0.0,,24.0
None,None,None,Images/TMTstop-control_1_4linestimulus23.png,Images/TMTstop-control_1_4greenlinestimulus23.png,Images/TMTstop-control_1_4redlinestimulus23.png,TMT_Control,C4,Feedback_last,None,1,Feedback_last,1.0,82.88775634765625,82.88775634765625,0.0,,1.0,1.0,0.0,,'--',82.88775634765625,82.88775634765625,0.0,,25.0

extraInfo
participant,
session,001
date,2022_Dec_20_1655
expName,TMT_fmri
psychopyVersion,2021.2.3
frameRate,59.88583364190807
