NumberLetter,corrAns,Correct,StimFile,Correct_StimFile,False_StimFile,Version,Block,TrialNumber_session,n,Stim.started_mean,Stim.started_raw,Stim.started_std,Stim.stopped_raw,key_resp_2.corr_mean,key_resp_2.corr_raw,key_resp_2.corr_std,key_resp_2.keys_raw,key_resp_2.rt_raw,key_resp_2.started_mean,key_resp_2.started_raw,key_resp_2.started_std,key_resp_2.stopped_raw,order
1,['3'],3,TMTstop-B_1_1.png,TMTstop-B_1_1.png,TMTstop-B_1_1.png,TMT_B,1,1,1.0,128.77359008789062,128.77359008789062,0.0,,1.0,1.0,0.0,1,3,1.5932931999996072,1.8320482000126503,128.77359008789062,128.77359008789062,0.0,,0.0
A,['1'],1,TMTstop-B_1_1.png,TMTstop-B_1_1firstgreen.png,TMTstop-B_1_1firstred.png,TMT_B,1,2,1.0,130.72103881835938,130.72103881835938,0.0,,1.0,1.0,0.0,2,1,-0.10145089999423362,0.1760614000086207,130.72103881835938,130.72103881835938,0.0,,1.0
2,['3'],3,TMTstop-B_1_1linestimulus0.png,TMTstop-B_1_1greenlinestimulus0.png,TMTstop-B_1_1redlinestimulus0.png,TMT_B,1,3,1.0,130.98907470703125,130.98907470703125,0.0,,1.0,1.0,0.0,3,2,1,3,-0.0723423999879742,-0.0360818999906769,0.1579519000079017,0.29851060001237784,130.98907470703125,130.98907470703125,0.0,,2.0
B,['2'],2,TMTstop-B_1_1linestimulus1.png,TMTstop-B_1_1greenlinestimulus1.png,TMTstop-B_1_1redlinestimulus1.png,TMT_B,1,4,1.0,131.45460510253906,131.45460510253906,0.0,,1.0,1.0,0.0,2,-0.13459609998972155,131.45460510253906,131.45460510253906,0.0,,3.0
3,['1'],1,TMTstop-B_1_1linestimulus2.png,TMTstop-B_1_1greenlinestimulus2.png,TMTstop-B_1_1redlinestimulus2.png,TMT_B,1,5,1.0,131.59628295898438,131.59628295898438,0.0,,1.0,1.0,0.0,1,-0.10932709999906365,131.59628295898438,131.59628295898438,0.0,,4.0
C,['3'],3,TMTstop-B_1_1linestimulus3.png,TMTstop-B_1_1greenlinestimulus3.png,TMTstop-B_1_1redlinestimulus3.png,TMT_B,1,6,1.0,131.73629760742188,131.73629760742188,0.0,,1.0,1.0,0.0,3,2,1,3,-0.11213789999601431,-0.0914753999968525,0.07038940000347793,0.21735160000389442,131.73629760742188,131.73629760742188,0.0,,5.0
4,['2'],2,TMTstop-B_1_1linestimulus4.png,TMTstop-B_1_1greenlinestimulus4.png,TMTstop-B_1_1redlinestimulus4.png,TMT_B,1,7,1.0,132.1266326904297,132.1266326904297,0.0,,1.0,1.0,0.0,2,1,3,2,-0.1337855000019772,-0.0009174000006169081,0.14993949999916367,0.17983860000094865,132.1266326904297,132.1266326904297,0.0,,6.0
D,['1'],1,TMTstop-B_1_1linestimulus5.png,TMTstop-B_1_1greenlinestimulus5.png,TMTstop-B_1_1redlinestimulus5.png,TMT_B,1,8,1.0,132.53611755371094,132.53611755371094,0.0,,1.0,1.0,0.0,1,-0.0893936000065878,132.53611755371094,132.53611755371094,0.0,,7.0
5,['3'],3,TMTstop-B_1_1linestimulus6.png,TMTstop-B_1_1greenlinestimulus6.png,TMTstop-B_1_1redlinestimulus6.png,TMT_B,1,9,1.0,132.66220092773438,132.66220092773438,0.0,,1.0,1.0,0.0,3,2,1,3,2,1,3,2,1,2,1,2,2,1,2,3,-0.07116680000035558,-0.04741179999837186,0.12600460000976454,0.266902300005313,0.32057710000663064,0.4679400000022724,0.6336872000101721,0.6559542000031797,0.8288315000099828,1.3765253000019584,1.4072167000122136,2.3068991000036476,3.8870831000094768,3.912932000006549,4.20564960000047,4.217873300003703,132.66220092773438,132.66220092773438,0.0,,8.0
E,['1'],1,TMTstop-B_1_1linestimulus7.png,TMTstop-B_1_1greenlinestimulus7.png,TMTstop-B_1_1redlinestimulus7.png,TMT_B,1,10,1.0,136.96365356445312,136.96365356445312,0.0,,1.0,1.0,0.0,1,0.11018599999079015,136.96365356445312,136.96365356445312,0.0,,9.0
6,['3'],3,TMTstop-B_1_1linestimulus8.png,TMTstop-B_1_1greenlinestimulus8.png,TMTstop-B_1_1redlinestimulus8.png,TMT_B,1,11,1.0,137.2306671142578,137.2306671142578,0.0,,1.0,1.0,0.0,2,1,3,2,1,3,0.04253420000895858,0.1619018000055803,0.33304189999762457,0.3496530999982497,0.5197904000087874,0.666131599995424,137.2306671142578,137.2306671142578,0.0,,10.0
F,['1'],1,TMTstop-B_1_1linestimulus9.png,TMTstop-B_1_1greenlinestimulus9.png,TMTstop-B_1_1redlinestimulus9.png,TMT_B,1,12,1.0,138.02801513671875,138.02801513671875,0.0,,1.0,1.0,0.0,2,1,-0.10255969999707304,0.0709043999959249,138.02801513671875,138.02801513671875,0.0,,11.0
7,['3'],3,TMTstop-B_1_1linestimulus10.png,TMTstop-B_1_1greenlinestimulus10.png,TMTstop-B_1_1redlinestimulus10.png,TMT_B,1,13,1.0,138.29185485839844,138.29185485839844,0.0,,1.0,1.0,0.0,3,-0.02742769999895245,138.29185485839844,138.29185485839844,0.0,,12.0
G,['2'],2,TMTstop-B_1_1linestimulus11.png,TMTstop-B_1_1greenlinestimulus11.png,TMTstop-B_1_1redlinestimulus11.png,TMT_B,1,14,1.0,138.4195556640625,138.4195556640625,0.0,,1.0,1.0,0.0,2,-0.10502649999398272,138.4195556640625,138.4195556640625,0.0,,13.0
8,['3'],3,TMTstop-B_1_1linestimulus12.png,TMTstop-B_1_1greenlinestimulus12.png,TMTstop-B_1_1redlinestimulus12.png,TMT_B,1,15,1.0,138.5442352294922,138.5442352294922,0.0,,1.0,1.0,0.0,1,3,2,1,3,-0.08602180000161752,0.07873649999964982,0.08918920000724029,0.2517309999966528,0.39400250000471715,138.5442352294922,138.5442352294922,0.0,,14.0
H,['1'],1,TMTstop-B_1_1linestimulus13.png,TMTstop-B_1_1greenlinestimulus13.png,TMTstop-B_1_1redlinestimulus13.png,TMT_B,1,16,1.0,139.0785675048828,139.0785675048828,0.0,,1.0,1.0,0.0,2,1,-0.09368879999965429,0.05274420000205282,139.0785675048828,139.0785675048828,0.0,,15.0
9,['3'],3,TMTstop-B_1_1linestimulus14.png,TMTstop-B_1_1greenlinestimulus14.png,TMTstop-B_1_1redlinestimulus14.png,TMT_B,1,17,1.0,139.3280487060547,139.3280487060547,0.0,,1.0,1.0,0.0,3,0.013877299992600456,139.3280487060547,139.3280487060547,0.0,,16.0
I,['2'],2,TMTstop-B_1_1linestimulus15.png,TMTstop-B_1_1greenlinestimulus15.png,TMTstop-B_1_1redlinestimulus15.png,TMT_B,1,18,1.0,139.4547576904297,139.4547576904297,0.0,,1.0,1.0,0.0,2,-0.0583792999968864,139.4547576904297,139.4547576904297,0.0,,17.0
10,['3'],3,TMTstop-B_1_1linestimulus16.png,TMTstop-B_1_1greenlinestimulus16.png,TMTstop-B_1_1redlinestimulus16.png,TMT_B,1,19,1.0,139.59396362304688,139.59396362304688,0.0,,1.0,1.0,0.0,1,3,-0.06285980000393465,0.11219099999289028,139.59396362304688,139.59396362304688,0.0,,18.0
J,['2'],2,TMTstop-B_1_1linestimulus17.png,TMTstop-B_1_1greenlinestimulus17.png,TMTstop-B_1_1redlinestimulus17.png,TMT_B,1,20,1.0,139.84646606445312,139.84646606445312,0.0,,1.0,1.0,0.0,2,-0.09335900000587571,139.84646606445312,139.84646606445312,0.0,,19.0
11,['1'],1,TMTstop-B_1_1linestimulus18.png,TMTstop-B_1_1greenlinestimulus18.png,TMTstop-B_1_1redlinestimulus18.png,TMT_B,1,21,1.0,139.9888916015625,139.9888916015625,0.0,,1.0,1.0,0.0,1,-0.08342840000113938,139.9888916015625,139.9888916015625,0.0,,20.0
K,['2'],2,TMTstop-B_1_1linestimulus19.png,TMTstop-B_1_1greenlinestimulus19.png,TMTstop-B_1_1redlinestimulus19.png,TMT_B,1,22,1.0,140.114501953125,140.114501953125,0.0,,1.0,1.0,0.0,3,2,-0.07631970000511501,-0.048352199999499135,140.114501953125,140.114501953125,0.0,,21.0
12,['1'],1,TMTstop-B_1_1linestimulus20.png,TMTstop-B_1_1greenlinestimulus20.png,TMTstop-B_1_1redlinestimulus20.png,TMT_B,1,23,1.0,140.24314880371094,140.24314880371094,0.0,,1.0,1.0,0.0,1,-0.012723599997116253,140.24314880371094,140.24314880371094,0.0,,22.0
L,['2'],2,TMTstop-B_1_1linestimulus21.png,TMTstop-B_1_1greenlinestimulus21.png,TMTstop-B_1_1redlinestimulus21.png,TMT_B,1,24,1.0,140.38357543945312,140.38357543945312,0.0,,1.0,1.0,0.0,3,2,0.040508399993996136,0.15328519999457058,140.38357543945312,140.38357543945312,0.0,,23.0
13,['1'],1,TMTstop-B_1_1linestimulus22.png,TMTstop-B_1_1greenlinestimulus22.png,TMTstop-B_1_1redlinestimulus22.png,TMT_B,1,25,1.0,140.6509552001953,140.6509552001953,0.0,,1.0,1.0,0.0,2,3,1,0.4185504999913974,0.4814073000015924,1.0677022000018042,140.6509552001953,140.6509552001953,0.0,,24.0
None,None,None,TMTstop-B_1_1linestimulus23.png,TMTstop-B_1_1greenlinestimulus23.png,TMTstop-B_1_1redlinestimulus23.png,TMT_B,1,Feedback_last,1.0,141.8678741455078,141.8678741455078,0.0,,1.0,1.0,0.0,,'--',141.8678741455078,141.8678741455078,0.0,,25.0

extraInfo
participant,
session,001
date,2022_May_10_1115
expName,TMT_fmri
psychopyVersion,2021.2.3
frameRate,117.71879805739613
﻿NumberLetter,corrAns,Correct,StimFile,Correct_StimFile,False_StimFile,Version,Block,TrialNumber_session,n,Stim.started_mean,Stim.started_raw,Stim.started_std,Stim.stopped_raw,key_resp_2.corr_mean,key_resp_2.corr_raw,key_resp_2.corr_std,key_resp_2.keys_raw,key_resp_2.rt_raw,key_resp_2.started_mean,key_resp_2.started_raw,key_resp_2.started_std,key_resp_2.stopped_raw,order
1,['1'],1,TMTstop-B_1_2.png,TMTstop-B_1_2.png,TMTstop-B_1_2.png,TMT_B,2,26,1.0,146.02633666992188,146.02633666992188,0.0,,1.0,1.0,0.0,2,1,2.199386599997524,2.641930700003286,146.02633666992188,146.02633666992188,0.0,,0.0
A,['2'],2,TMTstop-B_1_2.png,TMTstop-B_1_2firstgreen.png,TMTstop-B_1_2firstred.png,TMT_B,2,27,1.0,148.81690979003906,148.81690979003906,0.0,,1.0,1.0,0.0,2,3,2,3,1,3,2,1,3,2,0.20245089998934418,0.21728159999474883,0.5074649000016507,0.5109259000018938,0.6681138999992982,0.8099441999947885,1.0297100999887334,1.0701930999930482,1.2080394999939017,1.2633672999945702,148.81690979003906,148.81690979003906,0.0,,1.0
2,['1'],1,TMTstop-B_1_2linestimulus0.png,TMTstop-B_1_2greenlinestimulus0.png,TMTstop-B_1_2redlinestimulus0.png,TMT_B,2,28,1.0,150.17660522460938,150.17660522460938,0.0,,1.0,1.0,0.0,1,0.5401724999974249,150.17660522460938,150.17660522460938,0.0,,2.0
B,['2'],2,TMTstop-B_1_2linestimulus1.png,TMTstop-B_1_2greenlinestimulus1.png,TMTstop-B_1_2redlinestimulus1.png,TMT_B,2,29,1.0,150.86080932617188,150.86080932617188,0.0,,1.0,1.0,0.0,3,2,0.10406830000283662,0.10779229999752715,150.86080932617188,150.86080932617188,0.0,,3.0
3,['1'],1,TMTstop-B_1_2linestimulus2.png,TMTstop-B_1_2greenlinestimulus2.png,TMTstop-B_1_2redlinestimulus2.png,TMT_B,2,30,1.0,151.13824462890625,151.13824462890625,0.0,,1.0,1.0,0.0,1,0.03677390000666492,151.13824462890625,151.13824462890625,0.0,,4.0
C,['3'],3,TMTstop-B_1_2linestimulus3.png,TMTstop-B_1_2greenlinestimulus3.png,TMTstop-B_1_2redlinestimulus3.png,TMT_B,2,31,1.0,151.28797912597656,151.28797912597656,0.0,,0.0,0.0,0.0,,'--',151.28797912597656,151.28797912597656,0.0,,5.0
4,['2'],2,TMTstop-B_1_2linestimulus4.png,TMTstop-B_1_2greenlinestimulus4.png,TMTstop-B_1_2redlinestimulus4.png,TMT_B,2,32,0.0,,,,'--',,,,'--','--',,,,'--',
D,['1'],1,TMTstop-B_1_2linestimulus5.png,TMTstop-B_1_2greenlinestimulus5.png,TMTstop-B_1_2redlinestimulus5.png,TMT_B,2,33,0.0,,,,'--',,,,'--','--',,,,'--',
5,['2'],2,TMTstop-B_1_2linestimulus6.png,TMTstop-B_1_2greenlinestimulus6.png,TMTstop-B_1_2redlinestimulus6.png,TMT_B,2,34,0.0,,,,'--',,,,'--','--',,,,'--',
E,['3'],3,TMTstop-B_1_2linestimulus7.png,TMTstop-B_1_2greenlinestimulus7.png,TMTstop-B_1_2redlinestimulus7.png,TMT_B,2,35,0.0,,,,'--',,,,'--','--',,,,'--',
6,['1'],1,TMTstop-B_1_2linestimulus8.png,TMTstop-B_1_2greenlinestimulus8.png,TMTstop-B_1_2redlinestimulus8.png,TMT_B,2,36,0.0,,,,'--',,,,'--','--',,,,'--',
F,['3'],3,TMTstop-B_1_2linestimulus9.png,TMTstop-B_1_2greenlinestimulus9.png,TMTstop-B_1_2redlinestimulus9.png,TMT_B,2,37,0.0,,,,'--',,,,'--','--',,,,'--',
7,['1'],1,TMTstop-B_1_2linestimulus10.png,TMTstop-B_1_2greenlinestimulus10.png,TMTstop-B_1_2redlinestimulus10.png,TMT_B,2,38,0.0,,,,'--',,,,'--','--',,,,'--',
G,['2'],2,TMTstop-B_1_2linestimulus11.png,TMTstop-B_1_2greenlinestimulus11.png,TMTstop-B_1_2redlinestimulus11.png,TMT_B,2,39,0.0,,,,'--',,,,'--','--',,,,'--',
8,['1'],1,TMTstop-B_1_2linestimulus12.png,TMTstop-B_1_2greenlinestimulus12.png,TMTstop-B_1_2redlinestimulus12.png,TMT_B,2,40,0.0,,,,'--',,,,'--','--',,,,'--',
H,['2'],2,TMTstop-B_1_2linestimulus13.png,TMTstop-B_1_2greenlinestimulus13.png,TMTstop-B_1_2redlinestimulus13.png,TMT_B,2,41,0.0,,,,'--',,,,'--','--',,,,'--',
9,['3'],3,TMTstop-B_1_2linestimulus14.png,TMTstop-B_1_2greenlinestimulus14.png,TMTstop-B_1_2redlinestimulus14.png,TMT_B,2,42,0.0,,,,'--',,,,'--','--',,,,'--',
I,['1'],1,TMTstop-B_1_2linestimulus15.png,TMTstop-B_1_2greenlinestimulus15.png,TMTstop-B_1_2redlinestimulus15.png,TMT_B,2,43,0.0,,,,'--',,,,'--','--',,,,'--',
10,['2'],2,TMTstop-B_1_2linestimulus16.png,TMTstop-B_1_2greenlinestimulus16.png,TMTstop-B_1_2redlinestimulus16.png,TMT_B,2,44,0.0,,,,'--',,,,'--','--',,,,'--',
J,['1'],1,TMTstop-B_1_2linestimulus17.png,TMTstop-B_1_2greenlinestimulus17.png,TMTstop-B_1_2redlinestimulus17.png,TMT_B,2,45,0.0,,,,'--',,,,'--','--',,,,'--',
11,['3'],3,TMTstop-B_1_2linestimulus18.png,TMTstop-B_1_2greenlinestimulus18.png,TMTstop-B_1_2redlinestimulus18.png,TMT_B,2,46,0.0,,,,'--',,,,'--','--',,,,'--',
K,['2'],2,TMTstop-B_1_2linestimulus19.png,TMTstop-B_1_2greenlinestimulus19.png,TMTstop-B_1_2redlinestimulus19.png,TMT_B,2,47,0.0,,,,'--',,,,'--','--',,,,'--',
12,['1'],1,TMTstop-B_1_2linestimulus20.png,TMTstop-B_1_2greenlinestimulus20.png,TMTstop-B_1_2redlinestimulus20.png,TMT_B,2,48,0.0,,,,'--',,,,'--','--',,,,'--',
L,['2'],2,TMTstop-B_1_2linestimulus21.png,TMTstop-B_1_2greenlinestimulus21.png,TMTstop-B_1_2redlinestimulus21.png,TMT_B,2,49,0.0,,,,'--',,,,'--','--',,,,'--',
13,['1'],1,TMTstop-B_1_2linestimulus22.png,TMTstop-B_1_2greenlinestimulus22.png,TMTstop-B_1_2redlinestimulus22.png,TMT_B,2,50,0.0,,,,'--',,,,'--','--',,,,'--',
None,None,None,TMTstop-B_1_2linestimulus23.png,TMTstop-B_1_2greenlinestimulus23.png,TMTstop-B_1_2redlinestimulus23.png,TMT_B,2,Feedback_last,0.0,,,,'--',,,,'--','--',,,,'--',

extraInfo
participant,
session,001
date,2022_May_10_1115
expName,TMT_fmri
psychopyVersion,2021.2.3
frameRate,117.71879805739613
