NumberLetter,corrAns,Correct,StimFile,Correct_StimFile,False_StimFile,Block,TrialNumber_session,n,Stim.started_mean,Stim.started_raw,Stim.started_std,Stim.stopped_raw,key_resp_2.corr_mean,key_resp_2.corr_raw,key_resp_2.corr_std,key_resp_2.keys_raw,key_resp_2.rt_raw,key_resp_2.started_mean,key_resp_2.started_raw,key_resp_2.started_std,key_resp_2.stopped_raw,order
1,['2'],2,TMTstop-control_1_1.png,TMTstop-control_1_1.png,TMTstop-control_1_1.png,1,1,1.0,10.748068809509277,10.748068809509277,0.0,,1.0,1.0,0.0,1,2,0.3734937000554055,0.47729010018520057,10.748068809509277,10.748068809509277,0.0,,0.0
2,['1'],1,TMTstop-control_1_1.png,TMTstop-control_1_1firstgreen.png,TMTstop-control_1_1firstred.png,1,2,1.0,11.317654609680176,11.317654609680176,0.0,,1.0,1.0,0.0,3,1,-0.037171800155192614,0.10383159993216395,11.317654609680176,11.317654609680176,0.0,,1.0
3,['2'],2,TMTstop-control_1_1linestimulus0.png,TMTstop-control_1_1greenlinestimulus0.png,TMTstop-control_1_1redlinestimulus0.png,1,3,1.0,11.512887001037598,11.512887001037598,0.0,,1.0,1.0,0.0,2,-0.029826899990439415,11.512887001037598,11.512887001037598,0.0,,2.0
4,['3'],3,TMTstop-control_1_1linestimulus1.png,TMTstop-control_1_1greenlinestimulus1.png,TMTstop-control_1_1redlinestimulus1.png,1,4,1.0,11.582002639770508,11.582002639770508,0.0,,1.0,1.0,0.0,3,-0.023281400091946125,11.582002639770508,11.582002639770508,0.0,,3.0
5,['2'],2,TMTstop-control_1_1linestimulus2.png,TMTstop-control_1_1greenlinestimulus2.png,TMTstop-control_1_1redlinestimulus2.png,1,5,1.0,11.659646987915039,11.659646987915039,0.0,,1.0,1.0,0.0,1,2,0.02709529991261661,0.06175989983603358,11.659646987915039,11.659646987915039,0.0,,4.0
6,['1'],1,TMTstop-control_1_1linestimulus3.png,TMTstop-control_1_1greenlinestimulus3.png,TMTstop-control_1_1redlinestimulus3.png,1,6,1.0,11.818487167358398,11.818487167358398,0.0,,1.0,1.0,0.0,3,1,-0.0003185998648405075,0.1313050000462681,11.818487167358398,11.818487167358398,0.0,,5.0
7,['3'],3,TMTstop-control_1_1linestimulus4.png,TMTstop-control_1_1greenlinestimulus4.png,TMTstop-control_1_1redlinestimulus4.png,1,7,1.0,12.061203956604004,12.061203956604004,0.0,,1.0,1.0,0.0,2,3,-0.019550699973478913,0.03042319999076426,12.061203956604004,12.061203956604004,0.0,,6.0
8,['2'],2,TMTstop-control_1_1linestimulus4.png,TMTstop-control_1_1greenlinestimulus5.png,TMTstop-control_1_1redlinestimulus5.png,1,8,1.0,12.172527313232422,12.172527313232422,0.0,,1.0,1.0,0.0,1,2,0.06146860006265342,0.08735790010541677,12.172527313232422,12.172527313232422,0.0,,7.0
9,['3'],3,TMTstop-control_1_1linestimulus6.png,TMTstop-control_1_1greenlinestimulus6.png,TMTstop-control_1_1redlinestimulus6.png,1,9,1.0,12.349038124084473,12.349038124084473,0.0,,1.0,1.0,0.0,3,0.006804100004956126,12.349038124084473,12.349038124084473,0.0,,8.0
10,['2'],2,TMTstop-control_1_1linestimulus7.png,TMTstop-control_1_1greenlinestimulus7.png,TMTstop-control_1_1redlinestimulus7.png,1,10,1.0,12.437183380126953,12.437183380126953,0.0,,1.0,1.0,0.0,1,2,0.06255539995618165,0.10432050004601479,12.437183380126953,12.437183380126953,0.0,,9.0
11,['3'],3,TMTstop-control_1_1linestimulus8.png,TMTstop-control_1_1greenlinestimulus8.png,TMTstop-control_1_1redlinestimulus8.png,1,11,1.0,12.658390045166016,12.658390045166016,0.0,,1.0,1.0,0.0,3,-0.011585800210013986,12.658390045166016,12.658390045166016,0.0,,10.0
12,['1'],1,TMTstop-control_1_1linestimulus9.png,TMTstop-control_1_1greenlinestimulus9.png,TMTstop-control_1_1redlinestimulus9.png,1,12,1.0,12.734585762023926,12.734585762023926,0.0,,1.0,1.0,0.0,1,0.04811470001004636,12.734585762023926,12.734585762023926,0.0,,11.0
13,['3'],3,TMTstop-control_1_1linestimulus10.png,TMTstop-control_1_1greenlinestimulus10.png,TMTstop-control_1_1redlinestimulus10.png,1,13,1.0,12.867645263671875,12.867645263671875,0.0,,1.0,1.0,0.0,2,3,-0.05526979989372194,0.049357299925759435,12.867645263671875,12.867645263671875,0.0,,12.0
14,['1'],1,TMTstop-control_1_1linestimulus11.png,TMTstop-control_1_1greenlinestimulus11.png,TMTstop-control_1_1redlinestimulus11.png,1,14,1.0,13.020403861999512,13.020403861999512,0.0,,1.0,1.0,0.0,1,0.04136979999020696,13.020403861999512,13.020403861999512,0.0,,13.0
15,['3'],3,TMTstop-control_1_1linestimulus12.png,TMTstop-control_1_1greenlinestimulus12.png,TMTstop-control_1_1redlinestimulus12.png,1,15,1.0,13.144293785095215,13.144293785095215,0.0,,1.0,1.0,0.0,2,3,-0.05030729994177818,0.08009340008720756,13.144293785095215,13.144293785095215,0.0,,14.0
16,['1'],1,TMTstop-control_1_1linestimulus13.png,TMTstop-control_1_1greenlinestimulus13.png,TMTstop-control_1_1redlinestimulus13.png,1,16,1.0,13.303815841674805,13.303815841674805,0.0,,1.0,1.0,0.0,1,0.06947200000286102,13.303815841674805,13.303815841674805,0.0,,15.0
17,['2'],2,TMTstop-control_1_1linestimulus14.png,TMTstop-control_1_1greenlinestimulus14.png,TMTstop-control_1_1redlinestimulus14.png,1,17,1.0,13.450961112976074,13.450961112976074,0.0,,1.0,1.0,0.0,2,-0.04058589995838702,13.450961112976074,13.450961112976074,0.0,,16.0
18,['1'],1,TMTstop-control_1_1linestimulus15.png,TMTstop-control_1_1greenlinestimulus15.png,TMTstop-control_1_1redlinestimulus15.png,1,18,1.0,13.519129753112793,13.519129753112793,0.0,,1.0,1.0,0.0,3,1,0.023729699896648526,0.1547910999506712,13.519129753112793,13.519129753112793,0.0,,17.0
19,['3'],3,TMTstop-control_1_1linestimulus16.png,TMTstop-control_1_1greenlinestimulus16.png,TMTstop-control_1_1redlinestimulus16.png,1,19,1.0,13.755574226379395,13.755574226379395,0.0,,1.0,1.0,0.0,2,3,-0.051040199818089604,0.06437300005927682,13.755574226379395,13.755574226379395,0.0,,18.0
20,['1'],1,TMTstop-control_1_1linestimulus17.png,TMTstop-control_1_1greenlinestimulus17.png,TMTstop-control_1_1redlinestimulus17.png,1,20,1.0,13.914871215820312,13.914871215820312,0.0,,1.0,1.0,0.0,1,0.03718730015680194,13.914871215820312,13.914871215820312,0.0,,19.0
21,['3'],3,TMTstop-control_1_1linestimulus18.png,TMTstop-control_1_1greenlinestimulus18.png,TMTstop-control_1_1redlinestimulus18.png,1,21,1.0,14.031973838806152,14.031973838806152,0.0,,1.0,1.0,0.0,2,3,-0.011296199867501855,0.09071000013500452,14.031973838806152,14.031973838806152,0.0,,20.0
22,['1'],1,TMTstop-control_1_1linestimulus19.png,TMTstop-control_1_1greenlinestimulus19.png,TMTstop-control_1_1redlinestimulus19.png,1,22,1.0,14.227570533752441,14.227570533752441,0.0,,1.0,1.0,0.0,1,0.03452989994548261,14.227570533752441,14.227570533752441,0.0,,21.0
23,['3'],3,TMTstop-control_1_1linestimulus20.png,TMTstop-control_1_1greenlinestimulus20.png,TMTstop-control_1_1redlinestimulus20.png,1,23,1.0,14.332184791564941,14.332184791564941,0.0,,1.0,1.0,0.0,2,3,-0.027515799971297383,0.09111290005967021,14.332184791564941,14.332184791564941,0.0,,22.0
24,['1'],1,TMTstop-control_1_1linestimulus21.png,TMTstop-control_1_1greenlinestimulus21.png,TMTstop-control_1_1redlinestimulus21.png,1,24,1.0,14.533195495605469,14.533195495605469,0.0,,1.0,1.0,0.0,1,0.04160680016502738,14.533195495605469,14.533195495605469,0.0,,23.0
25,['3'],3,TMTstop-control_1_1linestimulus22.png,TMTstop-control_1_1greenlinestimulus22.png,TMTstop-control_1_1redlinestimulus22.png,1,25,1.0,14.651634216308594,14.651634216308594,0.0,,1.0,1.0,0.0,2,3,-0.029106799978762865,0.09306570002809167,14.651634216308594,14.651634216308594,0.0,,24.0
None,None,None,TMTstop-control_1_1linestimulus23.png,TMTstop-control_1_1greenlinestimulus23.png,TMTstop-control_1_1redlinestimulus23.png,1,Feedback_last,1.0,14.846436500549316,14.846436500549316,0.0,,0.0,0.0,0.0,1,2,0.05221040011383593,0.20098880003206432,14.846436500549316,14.846436500549316,0.0,,25.0

extraInfo
participant,
session,001
date,2022_Feb_02_1715
expName,TMTAstop-A
psychopyVersion,2021.2.3
frameRate,None
﻿NumberLetter,corrAns,Correct,StimFile,Correct_StimFile,False_StimFile,Block,TrialNumber_session,n,Stim.started_mean,Stim.started_raw,Stim.started_std,Stim.stopped_raw,key_resp_2.corr_mean,key_resp_2.corr_raw,key_resp_2.corr_std,key_resp_2.keys_raw,key_resp_2.rt_raw,key_resp_2.started_mean,key_resp_2.started_raw,key_resp_2.started_std,key_resp_2.stopped_raw,order
1,['1'],1,TMTstop-control_1_2.png,TMTstop-control_1_2.png,TMTstop-control_1_2.png,2,26,1.0,18.98390769958496,18.98390769958496,0.0,,1.0,1.0,0.0,1,0.4524528000038117,18.98390769958496,18.98390769958496,0.0,,0.0
2,['3'],3,TMTstop-control_1_2.png,TMTstop-control_1_2firstgreen.png,TMTstop-control_1_2firstred.png,2,27,1.0,19.519527435302734,19.519527435302734,0.0,,1.0,1.0,0.0,2,3,0.008988699875772,0.09436869993805885,19.519527435302734,19.519527435302734,0.0,,1.0
3,['2'],2,TMTstop-control_1_2linestimulus0.png,TMTstop-control_1_2greenlinestimulus0.png,TMTstop-control_1_2redlinestimulus0.png,2,28,1.0,19.69261932373047,19.69261932373047,0.0,,1.0,1.0,0.0,1,2,0.06462819990701973,0.11350989993661642,19.69261932373047,19.69261932373047,0.0,,2.0
4,['3'],3,TMTstop-control_1_2linestimulus1.png,TMTstop-control_1_2greenlinestimulus1.png,TMTstop-control_1_2redlinestimulus1.png,2,29,1.0,19.92211151123047,19.92211151123047,0.0,,1.0,1.0,0.0,3,-0.0035098998341709375,19.92211151123047,19.92211151123047,0.0,,3.0
5,['1'],1,TMTstop-control_1_2linestimulus2.png,TMTstop-control_1_2greenlinestimulus2.png,TMTstop-control_1_2redlinestimulus2.png,2,30,1.0,19.998205184936523,19.998205184936523,0.0,,0.0,0.0,0.0,,'--',19.998205184936523,19.998205184936523,0.0,,4.0
6,['3'],3,TMTstop-control_1_2linestimulus3.png,TMTstop-control_1_2greenlinestimulus3.png,TMTstop-control_1_2redlinestimulus3.png,2,31,0.0,,,,'--',,,,'--','--',,,,'--',
7,['2'],2,TMTstop-control_1_2linestimulus4.png,TMTstop-control_1_2greenlinestimulus4.png,TMTstop-control_1_2redlinestimulus4.png,2,32,0.0,,,,'--',,,,'--','--',,,,'--',
8,['1'],1,TMTstop-control_1_2linestimulus4.png,TMTstop-control_1_2greenlinestimulus5.png,TMTstop-control_1_2redlinestimulus5.png,2,33,0.0,,,,'--',,,,'--','--',,,,'--',
9,['2'],2,TMTstop-control_1_2linestimulus6.png,TMTstop-control_1_2greenlinestimulus6.png,TMTstop-control_1_2redlinestimulus6.png,2,34,0.0,,,,'--',,,,'--','--',,,,'--',
10,['3'],3,TMTstop-control_1_2linestimulus7.png,TMTstop-control_1_2greenlinestimulus7.png,TMTstop-control_1_2redlinestimulus7.png,2,35,0.0,,,,'--',,,,'--','--',,,,'--',
11,['1'],1,TMTstop-control_1_2linestimulus8.png,TMTstop-control_1_2greenlinestimulus8.png,TMTstop-control_1_2redlinestimulus8.png,2,36,0.0,,,,'--',,,,'--','--',,,,'--',
12,['2'],2,TMTstop-control_1_2linestimulus9.png,TMTstop-control_1_2greenlinestimulus9.png,TMTstop-control_1_2redlinestimulus9.png,2,37,0.0,,,,'--',,,,'--','--',,,,'--',
13,['3'],3,TMTstop-control_1_2linestimulus10.png,TMTstop-control_1_2greenlinestimulus10.png,TMTstop-control_1_2redlinestimulus10.png,2,38,0.0,,,,'--',,,,'--','--',,,,'--',
14,['1'],1,TMTstop-control_1_2linestimulus11.png,TMTstop-control_1_2greenlinestimulus11.png,TMTstop-control_1_2redlinestimulus11.png,2,39,0.0,,,,'--',,,,'--','--',,,,'--',
15,['2'],2,TMTstop-control_1_2linestimulus12.png,TMTstop-control_1_2greenlinestimulus12.png,TMTstop-control_1_2redlinestimulus12.png,2,40,0.0,,,,'--',,,,'--','--',,,,'--',
16,['1'],1,TMTstop-control_1_2linestimulus13.png,TMTstop-control_1_2greenlinestimulus13.png,TMTstop-control_1_2redlinestimulus13.png,2,41,0.0,,,,'--',,,,'--','--',,,,'--',
17,['2'],2,TMTstop-control_1_2linestimulus14.png,TMTstop-control_1_2greenlinestimulus14.png,TMTstop-control_1_2redlinestimulus14.png,2,42,0.0,,,,'--',,,,'--','--',,,,'--',
18,['1'],1,TMTstop-control_1_2linestimulus15.png,TMTstop-control_1_2greenlinestimulus15.png,TMTstop-control_1_2redlinestimulus15.png,2,43,0.0,,,,'--',,,,'--','--',,,,'--',
19,['3'],3,TMTstop-control_1_2linestimulus16.png,TMTstop-control_1_2greenlinestimulus16.png,TMTstop-control_1_2redlinestimulus16.png,2,44,0.0,,,,'--',,,,'--','--',,,,'--',
20,['1'],1,TMTstop-control_1_2linestimulus17.png,TMTstop-control_1_2greenlinestimulus17.png,TMTstop-control_1_2redlinestimulus17.png,2,45,0.0,,,,'--',,,,'--','--',,,,'--',
21,['2'],2,TMTstop-control_1_2linestimulus18.png,TMTstop-control_1_2greenlinestimulus18.png,TMTstop-control_1_2redlinestimulus18.png,2,46,0.0,,,,'--',,,,'--','--',,,,'--',
22,['1'],1,TMTstop-control_1_2linestimulus19.png,TMTstop-control_1_2greenlinestimulus19.png,TMTstop-control_1_2redlinestimulus19.png,2,47,0.0,,,,'--',,,,'--','--',,,,'--',
23,['3'],3,TMTstop-control_1_2linestimulus20.png,TMTstop-control_1_2greenlinestimulus20.png,TMTstop-control_1_2redlinestimulus20.png,2,48,0.0,,,,'--',,,,'--','--',,,,'--',
24,['1'],1,TMTstop-control_1_2linestimulus21.png,TMTstop-control_1_2greenlinestimulus21.png,TMTstop-control_1_2redlinestimulus21.png,2,49,0.0,,,,'--',,,,'--','--',,,,'--',
25,['3'],3,TMTstop-control_1_2linestimulus22.png,TMTstop-control_1_2greenlinestimulus22.png,TMTstop-control_1_2redlinestimulus22.png,2,50,0.0,,,,'--',,,,'--','--',,,,'--',
None,None,None,TMTstop-control_1_2linestimulus23.png,TMTstop-control_1_2greenlinestimulus23.png,TMTstop-control_1_2redlinestimulus23.png,2,Feedback_last,0.0,,,,'--',,,,'--','--',,,,'--',

extraInfo
participant,
session,001
date,2022_Feb_02_1715
expName,TMTAstop-A
psychopyVersion,2021.2.3
frameRate,None
﻿NumberLetter,corrAns,Correct,StimFile,Correct_StimFile,False_StimFile,Block,TrialNumber_session,n,Stim.started_raw,Stim.stopped_raw,key_resp_2.corr_mean,key_resp_2.corr_raw,key_resp_2.corr_std,key_resp_2.keys_raw,key_resp_2.started_raw,key_resp_2.stopped_raw,order
1,['3'],3,TMTstop-control_1_3.png,TMTstop-control_1_3.png,TMTstop-control_1_3.png,3,51,1.0,28.829545080149543,,0.0,0.0,0.0,,28.829545080149543,,0.0
2,['1'],1,TMTstop-control_1_3.png,TMTstop-control_1_3firstgreen.png,TMTstop-control_1_3firstred.png,3,52,0.0,'--','--',,,,'--','--','--',
3,['3'],3,TMTstop-control_1_3linestimulus0.png,TMTstop-control_1_3greenlinestimulus0.png,TMTstop-control_1_3redlinestimulus0.png,3,53,0.0,'--','--',,,,'--','--','--',
4,['1'],1,TMTstop-control_1_3linestimulus1.png,TMTstop-control_1_3greenlinestimulus1.png,TMTstop-control_1_3redlinestimulus1.png,3,54,0.0,'--','--',,,,'--','--','--',
5,['3'],3,TMTstop-control_1_3linestimulus2.png,TMTstop-control_1_3greenlinestimulus2.png,TMTstop-control_1_3redlinestimulus2.png,3,55,0.0,'--','--',,,,'--','--','--',
6,['2'],2,TMTstop-control_1_3linestimulus3.png,TMTstop-control_1_3greenlinestimulus3.png,TMTstop-control_1_3redlinestimulus3.png,3,56,0.0,'--','--',,,,'--','--','--',
7,['1'],1,TMTstop-control_1_3linestimulus4.png,TMTstop-control_1_3greenlinestimulus4.png,TMTstop-control_1_3redlinestimulus4.png,3,57,0.0,'--','--',,,,'--','--','--',
8,['3'],3,TMTstop-control_1_3linestimulus4.png,TMTstop-control_1_3greenlinestimulus5.png,TMTstop-control_1_3redlinestimulus5.png,3,58,0.0,'--','--',,,,'--','--','--',
9,['2'],2,TMTstop-control_1_3linestimulus6.png,TMTstop-control_1_3greenlinestimulus6.png,TMTstop-control_1_3redlinestimulus6.png,3,59,0.0,'--','--',,,,'--','--','--',
10,['3'],3,TMTstop-control_1_3linestimulus7.png,TMTstop-control_1_3greenlinestimulus7.png,TMTstop-control_1_3redlinestimulus7.png,3,60,0.0,'--','--',,,,'--','--','--',
11,['2'],2,TMTstop-control_1_3linestimulus8.png,TMTstop-control_1_3greenlinestimulus8.png,TMTstop-control_1_3redlinestimulus8.png,3,61,0.0,'--','--',,,,'--','--','--',
12,['1'],1,TMTstop-control_1_3linestimulus9.png,TMTstop-control_1_3greenlinestimulus9.png,TMTstop-control_1_3redlinestimulus9.png,3,62,0.0,'--','--',,,,'--','--','--',
13,['2'],2,TMTstop-control_1_3linestimulus10.png,TMTstop-control_1_3greenlinestimulus10.png,TMTstop-control_1_3redlinestimulus10.png,3,63,0.0,'--','--',,,,'--','--','--',
14,['3'],3,TMTstop-control_1_3linestimulus11.png,TMTstop-control_1_3greenlinestimulus11.png,TMTstop-control_1_3redlinestimulus11.png,3,64,0.0,'--','--',,,,'--','--','--',
15,['2'],2,TMTstop-control_1_3linestimulus12.png,TMTstop-control_1_3greenlinestimulus12.png,TMTstop-control_1_3redlinestimulus12.png,3,65,0.0,'--','--',,,,'--','--','--',
16,['1'],1,TMTstop-control_1_3linestimulus13.png,TMTstop-control_1_3greenlinestimulus13.png,TMTstop-control_1_3redlinestimulus13.png,3,66,0.0,'--','--',,,,'--','--','--',
17,['2'],2,TMTstop-control_1_3linestimulus14.png,TMTstop-control_1_3greenlinestimulus14.png,TMTstop-control_1_3redlinestimulus14.png,3,67,0.0,'--','--',,,,'--','--','--',
18,['3'],3,TMTstop-control_1_3linestimulus15.png,TMTstop-control_1_3greenlinestimulus15.png,TMTstop-control_1_3redlinestimulus15.png,3,68,0.0,'--','--',,,,'--','--','--',
19,['1'],1,TMTstop-control_1_3linestimulus16.png,TMTstop-control_1_3greenlinestimulus16.png,TMTstop-control_1_3redlinestimulus16.png,3,69,0.0,'--','--',,,,'--','--','--',
20,['2'],2,TMTstop-control_1_3linestimulus17.png,TMTstop-control_1_3greenlinestimulus17.png,TMTstop-control_1_3redlinestimulus17.png,3,70,0.0,'--','--',,,,'--','--','--',
21,['3'],3,TMTstop-control_1_3linestimulus18.png,TMTstop-control_1_3greenlinestimulus18.png,TMTstop-control_1_3redlinestimulus18.png,3,71,0.0,'--','--',,,,'--','--','--',
22,['2'],2,TMTstop-control_1_3linestimulus19.png,TMTstop-control_1_3greenlinestimulus19.png,TMTstop-control_1_3redlinestimulus19.png,3,72,0.0,'--','--',,,,'--','--','--',
23,['1'],1,TMTstop-control_1_3linestimulus20.png,TMTstop-control_1_3greenlinestimulus20.png,TMTstop-control_1_3redlinestimulus20.png,3,73,0.0,'--','--',,,,'--','--','--',
24,['3'],3,TMTstop-control_1_3linestimulus21.png,TMTstop-control_1_3greenlinestimulus21.png,TMTstop-control_1_3redlinestimulus21.png,3,74,0.0,'--','--',,,,'--','--','--',
25,['1'],1,TMTstop-control_1_3linestimulus22.png,TMTstop-control_1_3greenlinestimulus22.png,TMTstop-control_1_3redlinestimulus22.png,3,75,0.0,'--','--',,,,'--','--','--',
None,None,None,TMTstop-control_1_3linestimulus23.png,TMTstop-control_1_3greenlinestimulus23.png,TMTstop-control_1_3redlinestimulus23.png,3,Feedback_last,0.0,'--','--',,,,'--','--','--',

extraInfo
participant,
session,001
date,2022_Feb_02_1715
expName,TMTAstop-A
psychopyVersion,2021.2.3
frameRate,None
﻿NumberLetter,corrAns,Correct,StimFile,Correct_StimFile,False_StimFile,Block,TrialNumber_session,n,Stim.started_raw,Stim.stopped_raw,key_resp_2.corr_mean,key_resp_2.corr_raw,key_resp_2.corr_std,key_resp_2.keys_raw,key_resp_2.started_raw,key_resp_2.stopped_raw,order
1,['2'],2,TMTstop-control_1_4.png,TMTstop-control_1_4.png,TMTstop-control_1_4.png,4,76,1.0,31.906110790069214,,0.0,0.0,0.0,,31.906110790069214,,0.0
2,['1'],1,TMTstop-control_1_4.png,TMTstop-control_1_4firstgreen.png,TMTstop-control_1_4firstred.png,4,77,0.0,'--','--',,,,'--','--','--',
3,['3'],3,TMTstop-control_1_4linestimulus0.png,TMTstop-control_1_4greenlinestimulus0.png,TMTstop-control_1_4redlinestimulus0.png,4,78,0.0,'--','--',,,,'--','--','--',
4,['1'],1,TMTstop-control_1_4linestimulus1.png,TMTstop-control_1_4greenlinestimulus1.png,TMTstop-control_1_4redlinestimulus1.png,4,79,0.0,'--','--',,,,'--','--','--',
5,['2'],2,TMTstop-control_1_4linestimulus2.png,TMTstop-control_1_4greenlinestimulus2.png,TMTstop-control_1_4redlinestimulus2.png,4,80,0.0,'--','--',,,,'--','--','--',
6,['1'],1,TMTstop-control_1_4linestimulus3.png,TMTstop-control_1_4greenlinestimulus3.png,TMTstop-control_1_4redlinestimulus3.png,4,81,0.0,'--','--',,,,'--','--','--',
7,['3'],3,TMTstop-control_1_4linestimulus4.png,TMTstop-control_1_4greenlinestimulus4.png,TMTstop-control_1_4redlinestimulus4.png,4,82,0.0,'--','--',,,,'--','--','--',
8,['1'],1,TMTstop-control_1_4linestimulus4.png,TMTstop-control_1_4greenlinestimulus5.png,TMTstop-control_1_4redlinestimulus5.png,4,83,0.0,'--','--',,,,'--','--','--',
9,['2'],2,TMTstop-control_1_4linestimulus6.png,TMTstop-control_1_4greenlinestimulus6.png,TMTstop-control_1_4redlinestimulus6.png,4,84,0.0,'--','--',,,,'--','--','--',
10,['1'],1,TMTstop-control_1_4linestimulus7.png,TMTstop-control_1_4greenlinestimulus7.png,TMTstop-control_1_4redlinestimulus7.png,4,85,0.0,'--','--',,,,'--','--','--',
11,['2'],2,TMTstop-control_1_4linestimulus8.png,TMTstop-control_1_4greenlinestimulus8.png,TMTstop-control_1_4redlinestimulus8.png,4,86,0.0,'--','--',,,,'--','--','--',
12,['1'],1,TMTstop-control_1_4linestimulus9.png,TMTstop-control_1_4greenlinestimulus9.png,TMTstop-control_1_4redlinestimulus9.png,4,87,0.0,'--','--',,,,'--','--','--',
13,['2'],2,TMTstop-control_1_4linestimulus10.png,TMTstop-control_1_4greenlinestimulus10.png,TMTstop-control_1_4redlinestimulus10.png,4,88,0.0,'--','--',,,,'--','--','--',
14,['1'],1,TMTstop-control_1_4linestimulus11.png,TMTstop-control_1_4greenlinestimulus11.png,TMTstop-control_1_4redlinestimulus11.png,4,89,0.0,'--','--',,,,'--','--','--',
15,['2'],2,TMTstop-control_1_4linestimulus12.png,TMTstop-control_1_4greenlinestimulus12.png,TMTstop-control_1_4redlinestimulus12.png,4,90,0.0,'--','--',,,,'--','--','--',
16,['3'],3,TMTstop-control_1_4linestimulus13.png,TMTstop-control_1_4greenlinestimulus13.png,TMTstop-control_1_4redlinestimulus13.png,4,91,0.0,'--','--',,,,'--','--','--',
17,['2'],2,TMTstop-control_1_4linestimulus14.png,TMTstop-control_1_4greenlinestimulus14.png,TMTstop-control_1_4redlinestimulus14.png,4,92,0.0,'--','--',,,,'--','--','--',
18,['3'],3,TMTstop-control_1_4linestimulus15.png,TMTstop-control_1_4greenlinestimulus15.png,TMTstop-control_1_4redlinestimulus15.png,4,93,0.0,'--','--',,,,'--','--','--',
19,['1'],1,TMTstop-control_1_4linestimulus16.png,TMTstop-control_1_4greenlinestimulus16.png,TMTstop-control_1_4redlinestimulus16.png,4,94,0.0,'--','--',,,,'--','--','--',
20,['3'],3,TMTstop-control_1_4linestimulus17.png,TMTstop-control_1_4greenlinestimulus17.png,TMTstop-control_1_4redlinestimulus17.png,4,95,0.0,'--','--',,,,'--','--','--',
21,['2'],2,TMTstop-control_1_4linestimulus18.png,TMTstop-control_1_4greenlinestimulus18.png,TMTstop-control_1_4redlinestimulus18.png,4,96,0.0,'--','--',,,,'--','--','--',
22,['3'],3,TMTstop-control_1_4linestimulus19.png,TMTstop-control_1_4greenlinestimulus19.png,TMTstop-control_1_4redlinestimulus19.png,4,97,0.0,'--','--',,,,'--','--','--',
23,['2'],2,TMTstop-control_1_4linestimulus20.png,TMTstop-control_1_4greenlinestimulus20.png,TMTstop-control_1_4redlinestimulus20.png,4,98,0.0,'--','--',,,,'--','--','--',
24,['1'],1,TMTstop-control_1_4linestimulus21.png,TMTstop-control_1_4greenlinestimulus21.png,TMTstop-control_1_4redlinestimulus21.png,4,99,0.0,'--','--',,,,'--','--','--',
25,['3'],3,TMTstop-control_1_4linestimulus22.png,TMTstop-control_1_4greenlinestimulus22.png,TMTstop-control_1_4redlinestimulus22.png,4,100,0.0,'--','--',,,,'--','--','--',
None,None,None,TMTstop-control_1_4linestimulus23.png,TMTstop-control_1_4greenlinestimulus23.png,TMTstop-control_1_4redlinestimulus23.png,4,Feedback_last,0.0,'--','--',,,,'--','--','--',

extraInfo
participant,
session,001
date,2022_Feb_02_1715
expName,TMTAstop-A
psychopyVersion,2021.2.3
frameRate,None
﻿NumberLetter,corrAns,Correct,StimFile,Correct_StimFile,False_StimFile,Block,TrialNumber_session,n,Stim.started_raw,Stim.stopped_raw,key_resp_2.corr_mean,key_resp_2.corr_raw,key_resp_2.corr_std,key_resp_2.keys_raw,key_resp_2.started_raw,key_resp_2.stopped_raw,order
1,['1'],1,TMTstop-control_1_5.png,TMTstop-control_1_5.png,TMTstop-control_1_5.png,5,101,1.0,34.98449929009657,,0.0,0.0,0.0,,34.98449929009657,,0.0
2,['2'],2,TMTstop-control_1_5.png,TMTstop-control_1_5firstgreen.png,TMTstop-control_1_5firstred.png,5,102,0.0,'--','--',,,,'--','--','--',
3,['3'],3,TMTstop-control_1_5linestimulus0.png,TMTstop-control_1_5greenlinestimulus0.png,TMTstop-control_1_5redlinestimulus0.png,5,103,0.0,'--','--',,,,'--','--','--',
4,['1'],1,TMTstop-control_1_5linestimulus1.png,TMTstop-control_1_5greenlinestimulus1.png,TMTstop-control_1_5redlinestimulus1.png,5,104,0.0,'--','--',,,,'--','--','--',
5,['2'],2,TMTstop-control_1_5linestimulus2.png,TMTstop-control_1_5greenlinestimulus2.png,TMTstop-control_1_5redlinestimulus2.png,5,105,0.0,'--','--',,,,'--','--','--',
6,['3'],3,TMTstop-control_1_5linestimulus3.png,TMTstop-control_1_5greenlinestimulus3.png,TMTstop-control_1_5redlinestimulus3.png,5,106,0.0,'--','--',,,,'--','--','--',
7,['2'],2,TMTstop-control_1_5linestimulus4.png,TMTstop-control_1_5greenlinestimulus4.png,TMTstop-control_1_5redlinestimulus4.png,5,107,0.0,'--','--',,,,'--','--','--',
8,['3'],3,TMTstop-control_1_5linestimulus4.png,TMTstop-control_1_5greenlinestimulus5.png,TMTstop-control_1_5redlinestimulus5.png,5,108,0.0,'--','--',,,,'--','--','--',
9,['2'],2,TMTstop-control_1_5linestimulus6.png,TMTstop-control_1_5greenlinestimulus6.png,TMTstop-control_1_5redlinestimulus6.png,5,109,0.0,'--','--',,,,'--','--','--',
10,['3'],3,TMTstop-control_1_5linestimulus7.png,TMTstop-control_1_5greenlinestimulus7.png,TMTstop-control_1_5redlinestimulus7.png,5,110,0.0,'--','--',,,,'--','--','--',
11,['1'],1,TMTstop-control_1_5linestimulus8.png,TMTstop-control_1_5greenlinestimulus8.png,TMTstop-control_1_5redlinestimulus8.png,5,111,0.0,'--','--',,,,'--','--','--',
12,['2'],2,TMTstop-control_1_5linestimulus9.png,TMTstop-control_1_5greenlinestimulus9.png,TMTstop-control_1_5redlinestimulus9.png,5,112,0.0,'--','--',,,,'--','--','--',
13,['1'],1,TMTstop-control_1_5linestimulus10.png,TMTstop-control_1_5greenlinestimulus10.png,TMTstop-control_1_5redlinestimulus10.png,5,113,0.0,'--','--',,,,'--','--','--',
14,['2'],2,TMTstop-control_1_5linestimulus11.png,TMTstop-control_1_5greenlinestimulus11.png,TMTstop-control_1_5redlinestimulus11.png,5,114,0.0,'--','--',,,,'--','--','--',
15,['1'],1,TMTstop-control_1_5linestimulus12.png,TMTstop-control_1_5greenlinestimulus12.png,TMTstop-control_1_5redlinestimulus12.png,5,115,0.0,'--','--',,,,'--','--','--',
16,['3'],3,TMTstop-control_1_5linestimulus13.png,TMTstop-control_1_5greenlinestimulus13.png,TMTstop-control_1_5redlinestimulus13.png,5,116,0.0,'--','--',,,,'--','--','--',
17,['2'],2,TMTstop-control_1_5linestimulus14.png,TMTstop-control_1_5greenlinestimulus14.png,TMTstop-control_1_5redlinestimulus14.png,5,117,0.0,'--','--',,,,'--','--','--',
18,['1'],1,TMTstop-control_1_5linestimulus15.png,TMTstop-control_1_5greenlinestimulus15.png,TMTstop-control_1_5redlinestimulus15.png,5,118,0.0,'--','--',,,,'--','--','--',
19,['3'],3,TMTstop-control_1_5linestimulus16.png,TMTstop-control_1_5greenlinestimulus16.png,TMTstop-control_1_5redlinestimulus16.png,5,119,0.0,'--','--',,,,'--','--','--',
20,['2'],2,TMTstop-control_1_5linestimulus17.png,TMTstop-control_1_5greenlinestimulus17.png,TMTstop-control_1_5redlinestimulus17.png,5,120,0.0,'--','--',,,,'--','--','--',
21,['3'],3,TMTstop-control_1_5linestimulus18.png,TMTstop-control_1_5greenlinestimulus18.png,TMTstop-control_1_5redlinestimulus18.png,5,121,0.0,'--','--',,,,'--','--','--',
22,['2'],2,TMTstop-control_1_5linestimulus19.png,TMTstop-control_1_5greenlinestimulus19.png,TMTstop-control_1_5redlinestimulus19.png,5,122,0.0,'--','--',,,,'--','--','--',
23,['3'],3,TMTstop-control_1_5linestimulus20.png,TMTstop-control_1_5greenlinestimulus20.png,TMTstop-control_1_5redlinestimulus20.png,5,123,0.0,'--','--',,,,'--','--','--',
24,['2'],2,TMTstop-control_1_5linestimulus21.png,TMTstop-control_1_5greenlinestimulus21.png,TMTstop-control_1_5redlinestimulus21.png,5,124,0.0,'--','--',,,,'--','--','--',
25,['3'],3,TMTstop-control_1_5linestimulus22.png,TMTstop-control_1_5greenlinestimulus22.png,TMTstop-control_1_5redlinestimulus22.png,5,125,0.0,'--','--',,,,'--','--','--',
None,None,None,TMTstop-control_1_5linestimulus23.png,TMTstop-control_1_5greenlinestimulus23.png,TMTstop-control_1_5redlinestimulus23.png,5,Feedback_last,0.0,'--','--',,,,'--','--','--',

extraInfo
participant,
session,001
date,2022_Feb_02_1715
expName,TMTAstop-A
psychopyVersion,2021.2.3
frameRate,None
﻿NumberLetter,corrAns,Correct,StimFile,Correct_StimFile,False_StimFile,Block,TrialNumber_session,n,Stim.started_raw,Stim.stopped_raw,key_resp_2.corr_mean,key_resp_2.corr_raw,key_resp_2.corr_std,key_resp_2.keys_raw,key_resp_2.started_raw,key_resp_2.stopped_raw,order
1,['1'],1,TMTstop-control_1_6.png,TMTstop-control_1_6.png,TMTstop-control_1_6.png,6,126,1.0,38.09230336002074,,0.0,0.0,0.0,,38.09230336002074,,0.0
2,['3'],3,TMTstop-control_1_6.png,TMTstop-control_1_6firstgreen.png,TMTstop-control_1_6firstred.png,6,127,0.0,'--','--',,,,'--','--','--',
3,['2'],2,TMTstop-control_1_6linestimulus0.png,TMTstop-control_1_6greenlinestimulus0.png,TMTstop-control_1_6redlinestimulus0.png,6,128,0.0,'--','--',,,,'--','--','--',
4,['1'],1,TMTstop-control_1_6linestimulus1.png,TMTstop-control_1_6greenlinestimulus1.png,TMTstop-control_1_6redlinestimulus1.png,6,129,0.0,'--','--',,,,'--','--','--',
5,['3'],3,TMTstop-control_1_6linestimulus2.png,TMTstop-control_1_6greenlinestimulus2.png,TMTstop-control_1_6redlinestimulus2.png,6,130,0.0,'--','--',,,,'--','--','--',
6,['2'],2,TMTstop-control_1_6linestimulus3.png,TMTstop-control_1_6greenlinestimulus3.png,TMTstop-control_1_6redlinestimulus3.png,6,131,0.0,'--','--',,,,'--','--','--',
7,['1'],1,TMTstop-control_1_6linestimulus4.png,TMTstop-control_1_6greenlinestimulus4.png,TMTstop-control_1_6redlinestimulus4.png,6,132,0.0,'--','--',,,,'--','--','--',
8,['2'],2,TMTstop-control_1_6linestimulus4.png,TMTstop-control_1_6greenlinestimulus5.png,TMTstop-control_1_6redlinestimulus5.png,6,133,0.0,'--','--',,,,'--','--','--',
9,['3'],3,TMTstop-control_1_6linestimulus6.png,TMTstop-control_1_6greenlinestimulus6.png,TMTstop-control_1_6redlinestimulus6.png,6,134,0.0,'--','--',,,,'--','--','--',
10,['1'],1,TMTstop-control_1_6linestimulus7.png,TMTstop-control_1_6greenlinestimulus7.png,TMTstop-control_1_6redlinestimulus7.png,6,135,0.0,'--','--',,,,'--','--','--',
11,['3'],3,TMTstop-control_1_6linestimulus8.png,TMTstop-control_1_6greenlinestimulus8.png,TMTstop-control_1_6redlinestimulus8.png,6,136,0.0,'--','--',,,,'--','--','--',
12,['1'],1,TMTstop-control_1_6linestimulus9.png,TMTstop-control_1_6greenlinestimulus9.png,TMTstop-control_1_6redlinestimulus9.png,6,137,0.0,'--','--',,,,'--','--','--',
13,['3'],3,TMTstop-control_1_6linestimulus10.png,TMTstop-control_1_6greenlinestimulus10.png,TMTstop-control_1_6redlinestimulus10.png,6,138,0.0,'--','--',,,,'--','--','--',
14,['1'],1,TMTstop-control_1_6linestimulus11.png,TMTstop-control_1_6greenlinestimulus11.png,TMTstop-control_1_6redlinestimulus11.png,6,139,0.0,'--','--',,,,'--','--','--',
15,['3'],3,TMTstop-control_1_6linestimulus12.png,TMTstop-control_1_6greenlinestimulus12.png,TMTstop-control_1_6redlinestimulus12.png,6,140,0.0,'--','--',,,,'--','--','--',
16,['1'],1,TMTstop-control_1_6linestimulus13.png,TMTstop-control_1_6greenlinestimulus13.png,TMTstop-control_1_6redlinestimulus13.png,6,141,0.0,'--','--',,,,'--','--','--',
17,['2'],2,TMTstop-control_1_6linestimulus14.png,TMTstop-control_1_6greenlinestimulus14.png,TMTstop-control_1_6redlinestimulus14.png,6,142,0.0,'--','--',,,,'--','--','--',
18,['1'],1,TMTstop-control_1_6linestimulus15.png,TMTstop-control_1_6greenlinestimulus15.png,TMTstop-control_1_6redlinestimulus15.png,6,143,0.0,'--','--',,,,'--','--','--',
19,['3'],3,TMTstop-control_1_6linestimulus16.png,TMTstop-control_1_6greenlinestimulus16.png,TMTstop-control_1_6redlinestimulus16.png,6,144,0.0,'--','--',,,,'--','--','--',
20,['1'],1,TMTstop-control_1_6linestimulus17.png,TMTstop-control_1_6greenlinestimulus17.png,TMTstop-control_1_6redlinestimulus17.png,6,145,0.0,'--','--',,,,'--','--','--',
21,['3'],3,TMTstop-control_1_6linestimulus18.png,TMTstop-control_1_6greenlinestimulus18.png,TMTstop-control_1_6redlinestimulus18.png,6,146,0.0,'--','--',,,,'--','--','--',
22,['1'],1,TMTstop-control_1_6linestimulus19.png,TMTstop-control_1_6greenlinestimulus19.png,TMTstop-control_1_6redlinestimulus19.png,6,147,0.0,'--','--',,,,'--','--','--',
23,['3'],3,TMTstop-control_1_6linestimulus20.png,TMTstop-control_1_6greenlinestimulus20.png,TMTstop-control_1_6redlinestimulus20.png,6,148,0.0,'--','--',,,,'--','--','--',
24,['2'],2,TMTstop-control_1_6linestimulus21.png,TMTstop-control_1_6greenlinestimulus21.png,TMTstop-control_1_6redlinestimulus21.png,6,149,0.0,'--','--',,,,'--','--','--',
25,['1'],1,TMTstop-control_1_6linestimulus22.png,TMTstop-control_1_6greenlinestimulus22.png,TMTstop-control_1_6redlinestimulus22.png,6,150,0.0,'--','--',,,,'--','--','--',
None,None,None,TMTstop-control_1_6linestimulus23.png,TMTstop-control_1_6greenlinestimulus23.png,TMTstop-control_1_6redlinestimulus23.png,6,Feedback_last,0.0,'--','--',,,,'--','--','--',

extraInfo
participant,
session,001
date,2022_Feb_02_1715
expName,TMTAstop-A
psychopyVersion,2021.2.3
frameRate,None
﻿NumberLetter,corrAns,Correct,StimFile,Correct_StimFile,False_StimFile,Block,TrialNumber_session,n,Stim.started_raw,Stim.stopped_raw,key_resp_2.corr_mean,key_resp_2.corr_raw,key_resp_2.corr_std,key_resp_2.keys_raw,key_resp_2.started_raw,key_resp_2.stopped_raw,order
1,['1'],1,TMTstop-control_1_7.png,TMTstop-control_1_7.png,TMTstop-control_1_7.png,7,151,1.0,41.17866637995466,,0.0,0.0,0.0,,41.17866637995466,,0.0
2,['2'],2,TMTstop-control_1_7.png,TMTstop-control_1_7firstgreen.png,TMTstop-control_1_7firstred.png,7,152,0.0,'--','--',,,,'--','--','--',
3,['3'],3,TMTstop-control_1_7linestimulus0.png,TMTstop-control_1_7greenlinestimulus0.png,TMTstop-control_1_7redlinestimulus0.png,7,153,0.0,'--','--',,,,'--','--','--',
4,['2'],2,TMTstop-control_1_7linestimulus1.png,TMTstop-control_1_7greenlinestimulus1.png,TMTstop-control_1_7redlinestimulus1.png,7,154,0.0,'--','--',,,,'--','--','--',
5,['3'],3,TMTstop-control_1_7linestimulus2.png,TMTstop-control_1_7greenlinestimulus2.png,TMTstop-control_1_7redlinestimulus2.png,7,155,0.0,'--','--',,,,'--','--','--',
6,['2'],2,TMTstop-control_1_7linestimulus3.png,TMTstop-control_1_7greenlinestimulus3.png,TMTstop-control_1_7redlinestimulus3.png,7,156,0.0,'--','--',,,,'--','--','--',
7,['1'],1,TMTstop-control_1_7linestimulus4.png,TMTstop-control_1_7greenlinestimulus4.png,TMTstop-control_1_7redlinestimulus4.png,7,157,0.0,'--','--',,,,'--','--','--',
8,['3'],3,TMTstop-control_1_7linestimulus4.png,TMTstop-control_1_7greenlinestimulus5.png,TMTstop-control_1_7redlinestimulus5.png,7,158,0.0,'--','--',,,,'--','--','--',
9,['2'],2,TMTstop-control_1_7linestimulus6.png,TMTstop-control_1_7greenlinestimulus6.png,TMTstop-control_1_7redlinestimulus6.png,7,159,0.0,'--','--',,,,'--','--','--',
10,['3'],3,TMTstop-control_1_7linestimulus7.png,TMTstop-control_1_7greenlinestimulus7.png,TMTstop-control_1_7redlinestimulus7.png,7,160,0.0,'--','--',,,,'--','--','--',
11,['2'],2,TMTstop-control_1_7linestimulus8.png,TMTstop-control_1_7greenlinestimulus8.png,TMTstop-control_1_7redlinestimulus8.png,7,161,0.0,'--','--',,,,'--','--','--',
12,['1'],1,TMTstop-control_1_7linestimulus9.png,TMTstop-control_1_7greenlinestimulus9.png,TMTstop-control_1_7redlinestimulus9.png,7,162,0.0,'--','--',,,,'--','--','--',
13,['2'],2,TMTstop-control_1_7linestimulus10.png,TMTstop-control_1_7greenlinestimulus10.png,TMTstop-control_1_7redlinestimulus10.png,7,163,0.0,'--','--',,,,'--','--','--',
14,['3'],3,TMTstop-control_1_7linestimulus11.png,TMTstop-control_1_7greenlinestimulus11.png,TMTstop-control_1_7redlinestimulus11.png,7,164,0.0,'--','--',,,,'--','--','--',
15,['2'],2,TMTstop-control_1_7linestimulus12.png,TMTstop-control_1_7greenlinestimulus12.png,TMTstop-control_1_7redlinestimulus12.png,7,165,0.0,'--','--',,,,'--','--','--',
16,['3'],3,TMTstop-control_1_7linestimulus13.png,TMTstop-control_1_7greenlinestimulus13.png,TMTstop-control_1_7redlinestimulus13.png,7,166,0.0,'--','--',,,,'--','--','--',
17,['1'],1,TMTstop-control_1_7linestimulus14.png,TMTstop-control_1_7greenlinestimulus14.png,TMTstop-control_1_7redlinestimulus14.png,7,167,0.0,'--','--',,,,'--','--','--',
18,['3'],3,TMTstop-control_1_7linestimulus15.png,TMTstop-control_1_7greenlinestimulus15.png,TMTstop-control_1_7redlinestimulus15.png,7,168,0.0,'--','--',,,,'--','--','--',
19,['2'],2,TMTstop-control_1_7linestimulus16.png,TMTstop-control_1_7greenlinestimulus16.png,TMTstop-control_1_7redlinestimulus16.png,7,169,0.0,'--','--',,,,'--','--','--',
20,['3'],3,TMTstop-control_1_7linestimulus17.png,TMTstop-control_1_7greenlinestimulus17.png,TMTstop-control_1_7redlinestimulus17.png,7,170,0.0,'--','--',,,,'--','--','--',
21,['1'],1,TMTstop-control_1_7linestimulus18.png,TMTstop-control_1_7greenlinestimulus18.png,TMTstop-control_1_7redlinestimulus18.png,7,171,0.0,'--','--',,,,'--','--','--',
22,['3'],3,TMTstop-control_1_7linestimulus19.png,TMTstop-control_1_7greenlinestimulus19.png,TMTstop-control_1_7redlinestimulus19.png,7,172,0.0,'--','--',,,,'--','--','--',
23,['2'],2,TMTstop-control_1_7linestimulus20.png,TMTstop-control_1_7greenlinestimulus20.png,TMTstop-control_1_7redlinestimulus20.png,7,173,0.0,'--','--',,,,'--','--','--',
24,['1'],1,TMTstop-control_1_7linestimulus21.png,TMTstop-control_1_7greenlinestimulus21.png,TMTstop-control_1_7redlinestimulus21.png,7,174,0.0,'--','--',,,,'--','--','--',
25,['2'],2,TMTstop-control_1_7linestimulus22.png,TMTstop-control_1_7greenlinestimulus22.png,TMTstop-control_1_7redlinestimulus22.png,7,175,0.0,'--','--',,,,'--','--','--',
None,None,None,TMTstop-control_1_7linestimulus23.png,TMTstop-control_1_7greenlinestimulus23.png,TMTstop-control_1_7redlinestimulus23.png,7,Feedback_last,0.0,'--','--',,,,'--','--','--',

extraInfo
participant,
session,001
date,2022_Feb_02_1715
expName,TMTAstop-A
psychopyVersion,2021.2.3
frameRate,None
﻿NumberLetter,corrAns,Correct,StimFile,Correct_StimFile,False_StimFile,Block,TrialNumber_session,n,Stim.started_raw,Stim.stopped_raw,key_resp_2.corr_mean,key_resp_2.corr_raw,key_resp_2.corr_std,key_resp_2.keys_raw,key_resp_2.started_raw,key_resp_2.stopped_raw,order
1,['3'],3,TMTstop-control_1_8.png,TMTstop-control_1_8.png,TMTstop-control_1_8.png,8,176,1.0,44.260098880110306,,0.0,0.0,0.0,,44.260098880110306,,0.0
2,['1'],1,TMTstop-control_1_8.png,TMTstop-control_1_8firstgreen.png,TMTstop-control_1_8firstred.png,8,177,0.0,'--','--',,,,'--','--','--',
3,['3'],3,TMTstop-control_1_8linestimulus0.png,TMTstop-control_1_8greenlinestimulus0.png,TMTstop-control_1_8redlinestimulus0.png,8,178,0.0,'--','--',,,,'--','--','--',
4,['1'],1,TMTstop-control_1_8linestimulus1.png,TMTstop-control_1_8greenlinestimulus1.png,TMTstop-control_1_8redlinestimulus1.png,8,179,0.0,'--','--',,,,'--','--','--',
5,['3'],3,TMTstop-control_1_8linestimulus2.png,TMTstop-control_1_8greenlinestimulus2.png,TMTstop-control_1_8redlinestimulus2.png,8,180,0.0,'--','--',,,,'--','--','--',
6,['2'],2,TMTstop-control_1_8linestimulus3.png,TMTstop-control_1_8greenlinestimulus3.png,TMTstop-control_1_8redlinestimulus3.png,8,181,0.0,'--','--',,,,'--','--','--',
7,['3'],3,TMTstop-control_1_8linestimulus4.png,TMTstop-control_1_8greenlinestimulus4.png,TMTstop-control_1_8redlinestimulus4.png,8,182,0.0,'--','--',,,,'--','--','--',
8,['2'],2,TMTstop-control_1_8linestimulus4.png,TMTstop-control_1_8greenlinestimulus5.png,TMTstop-control_1_8redlinestimulus5.png,8,183,0.0,'--','--',,,,'--','--','--',
9,['3'],3,TMTstop-control_1_8linestimulus6.png,TMTstop-control_1_8greenlinestimulus6.png,TMTstop-control_1_8redlinestimulus6.png,8,184,0.0,'--','--',,,,'--','--','--',
10,['1'],1,TMTstop-control_1_8linestimulus7.png,TMTstop-control_1_8greenlinestimulus7.png,TMTstop-control_1_8redlinestimulus7.png,8,185,0.0,'--','--',,,,'--','--','--',
11,['2'],2,TMTstop-control_1_8linestimulus8.png,TMTstop-control_1_8greenlinestimulus8.png,TMTstop-control_1_8redlinestimulus8.png,8,186,0.0,'--','--',,,,'--','--','--',
12,['3'],3,TMTstop-control_1_8linestimulus9.png,TMTstop-control_1_8greenlinestimulus9.png,TMTstop-control_1_8redlinestimulus9.png,8,187,0.0,'--','--',,,,'--','--','--',
13,['2'],2,TMTstop-control_1_8linestimulus10.png,TMTstop-control_1_8greenlinestimulus10.png,TMTstop-control_1_8redlinestimulus10.png,8,188,0.0,'--','--',,,,'--','--','--',
14,['3'],3,TMTstop-control_1_8linestimulus11.png,TMTstop-control_1_8greenlinestimulus11.png,TMTstop-control_1_8redlinestimulus11.png,8,189,0.0,'--','--',,,,'--','--','--',
15,['2'],2,TMTstop-control_1_8linestimulus12.png,TMTstop-control_1_8greenlinestimulus12.png,TMTstop-control_1_8redlinestimulus12.png,8,190,0.0,'--','--',,,,'--','--','--',
16,['1'],1,TMTstop-control_1_8linestimulus13.png,TMTstop-control_1_8greenlinestimulus13.png,TMTstop-control_1_8redlinestimulus13.png,8,191,0.0,'--','--',,,,'--','--','--',
17,['2'],2,TMTstop-control_1_8linestimulus14.png,TMTstop-control_1_8greenlinestimulus14.png,TMTstop-control_1_8redlinestimulus14.png,8,192,0.0,'--','--',,,,'--','--','--',
18,['1'],1,TMTstop-control_1_8linestimulus15.png,TMTstop-control_1_8greenlinestimulus15.png,TMTstop-control_1_8redlinestimulus15.png,8,193,0.0,'--','--',,,,'--','--','--',
19,['2'],2,TMTstop-control_1_8linestimulus16.png,TMTstop-control_1_8greenlinestimulus16.png,TMTstop-control_1_8redlinestimulus16.png,8,194,0.0,'--','--',,,,'--','--','--',
20,['3'],3,TMTstop-control_1_8linestimulus17.png,TMTstop-control_1_8greenlinestimulus17.png,TMTstop-control_1_8redlinestimulus17.png,8,195,0.0,'--','--',,,,'--','--','--',
21,['2'],2,TMTstop-control_1_8linestimulus18.png,TMTstop-control_1_8greenlinestimulus18.png,TMTstop-control_1_8redlinestimulus18.png,8,196,0.0,'--','--',,,,'--','--','--',
22,['1'],1,TMTstop-control_1_8linestimulus19.png,TMTstop-control_1_8greenlinestimulus19.png,TMTstop-control_1_8redlinestimulus19.png,8,197,0.0,'--','--',,,,'--','--','--',
23,['2'],2,TMTstop-control_1_8linestimulus20.png,TMTstop-control_1_8greenlinestimulus20.png,TMTstop-control_1_8redlinestimulus20.png,8,198,0.0,'--','--',,,,'--','--','--',
24,['1'],1,TMTstop-control_1_8linestimulus21.png,TMTstop-control_1_8greenlinestimulus21.png,TMTstop-control_1_8redlinestimulus21.png,8,199,0.0,'--','--',,,,'--','--','--',
25,['3'],3,TMTstop-control_1_8linestimulus22.png,TMTstop-control_1_8greenlinestimulus22.png,TMTstop-control_1_8redlinestimulus22.png,8,200,0.0,'--','--',,,,'--','--','--',
None,None,None,TMTstop-control_1_8linestimulus23.png,TMTstop-control_1_8greenlinestimulus23.png,TMTstop-control_1_8redlinestimulus23.png,8,Feedback_last,0.0,'--','--',,,,'--','--','--',

extraInfo
participant,
session,001
date,2022_Feb_02_1715
expName,TMTAstop-A
psychopyVersion,2021.2.3
frameRate,None
