NumberLetter,corrAns,Correct,StimFile,Correct_StimFile,False_StimFile,Version,Paper,TrialNumber_Version,Round,Block,n,Stim_2.started_mean,Stim_2.started_raw,Stim_2.started_std,Stim_2.stopped_raw,key_resp_8.corr_mean,key_resp_8.corr_raw,key_resp_8.corr_std,key_resp_8.keys_raw,key_resp_8.rt_raw,key_resp_8.started_mean,key_resp_8.started_raw,key_resp_8.started_std,key_resp_8.stopped_raw,order
1,['1'],1,TMTstop-control_1_7.png,TMTstop-control_1_7.png,TMTstop-control_1_7.png,TMT_Control,7,151,None,4,1.0,261.5304870605469,261.5304870605469,0.0,,1.0,1.0,0.0,1,0.5430888999981107,261.5304870605469,261.5304870605469,0.0,,0.0
2,['2'],2,TMTstop-control_1_7.png,TMTstop-control_1_7firstgreen.png,TMTstop-control_1_7firstred.png,TMT_Control,7,152,None,4,1.0,262.13916015625,262.13916015625,0.0,,1.0,1.0,0.0,2,0.031229399995936546,262.13916015625,262.13916015625,0.0,,1.0
3,['3'],3,TMTstop-control_1_7linestimulus0.png,TMTstop-control_1_7greenlinestimulus0.png,TMTstop-control_1_7redlinestimulus0.png,TMT_Control,7,153,None,4,1.0,262.2225341796875,262.2225341796875,0.0,,1.0,1.0,0.0,3,0.06258070000330918,262.2225341796875,262.2225341796875,0.0,,2.0
4,['2'],2,TMTstop-control_1_7linestimulus1.png,TMTstop-control_1_7greenlinestimulus1.png,TMTstop-control_1_7redlinestimulus1.png,TMT_Control,7,154,None,4,1.0,262.3393249511719,262.3393249511719,0.0,,1.0,1.0,0.0,1,2,0.10398849999910453,0.1730364000031841,262.3393249511719,262.3393249511719,0.0,,3.0
5,['3'],3,TMTstop-control_1_7linestimulus2.png,TMTstop-control_1_7greenlinestimulus2.png,TMTstop-control_1_7redlinestimulus2.png,TMT_Control,7,155,None,4,1.0,262.5618896484375,262.5618896484375,0.0,,1.0,1.0,0.0,3,0.06692320000001928,262.5618896484375,262.5618896484375,0.0,,4.0
6,['1'],1,TMTstop-control_1_7linestimulus3.png,TMTstop-control_1_7greenlinestimulus3.png,TMTstop-control_1_7redlinestimulus3.png,TMT_Control,7,156,None,4,1.0,262.6780700683594,262.6780700683594,0.0,,1.0,1.0,0.0,1,0.11648520000017015,262.6780700683594,262.6780700683594,0.0,,5.0
7,['3'],3,TMTstop-control_1_7linestimulus4.png,TMTstop-control_1_7greenlinestimulus4.png,TMTstop-control_1_7redlinestimulus4.png,TMT_Control,7,157,None,4,1.0,262.8533630371094,262.8533630371094,0.0,,1.0,1.0,0.0,2,3,-0.020274100003007334,0.12308789999951841,262.8533630371094,262.8533630371094,0.0,,6.0
8,['2'],2,TMTstop-control_1_7linestimulus4.png,TMTstop-control_1_7greenlinestimulus5.png,TMTstop-control_1_7redlinestimulus5.png,TMT_Control,7,158,None,4,1.0,263.0649108886719,263.0649108886719,0.0,,1.0,1.0,0.0,1,2,0.06083550000039395,0.1542730000001029,263.0649108886719,263.0649108886719,0.0,,7.0
9,['3'],3,TMTstop-control_1_7linestimulus6.png,TMTstop-control_1_7greenlinestimulus6.png,TMTstop-control_1_7redlinestimulus6.png,TMT_Control,7,159,None,4,1.0,263.2953186035156,263.2953186035156,0.0,,1.0,1.0,0.0,3,0.02854510000179289,263.2953186035156,263.2953186035156,0.0,,8.0
10,['2'],2,TMTstop-control_1_7linestimulus7.png,TMTstop-control_1_7greenlinestimulus7.png,TMTstop-control_1_7redlinestimulus7.png,TMT_Control,7,160,None,4,1.0,263.3954162597656,263.3954162597656,0.0,,1.0,1.0,0.0,1,2,0.06648739999945974,0.14458749999903375,263.3954162597656,263.3954162597656,0.0,,9.0
11,['1'],1,TMTstop-control_1_7linestimulus8.png,TMTstop-control_1_7greenlinestimulus8.png,TMTstop-control_1_7redlinestimulus8.png,TMT_Control,7,161,None,4,1.0,263.6244201660156,263.6244201660156,0.0,,1.0,1.0,0.0,3,1,0.03947909999988042,0.19291250000242144,263.6244201660156,263.6244201660156,0.0,,10.0
12,['2'],2,TMTstop-control_1_7linestimulus9.png,TMTstop-control_1_7greenlinestimulus9.png,TMTstop-control_1_7redlinestimulus9.png,TMT_Control,7,162,None,4,1.0,263.8748474121094,263.8748474121094,0.0,,1.0,1.0,0.0,2,-0.015514400001848117,263.8748474121094,263.8748474121094,0.0,,11.0
13,['3'],3,TMTstop-control_1_7linestimulus10.png,TMTstop-control_1_7greenlinestimulus10.png,TMTstop-control_1_7redlinestimulus10.png,TMT_Control,7,163,None,4,1.0,263.9248352050781,263.9248352050781,0.0,,1.0,1.0,0.0,3,0.07712849999370519,263.9248352050781,263.9248352050781,0.0,,12.0
14,['1'],1,TMTstop-control_1_7linestimulus11.png,TMTstop-control_1_7greenlinestimulus11.png,TMTstop-control_1_7redlinestimulus11.png,TMT_Control,7,164,None,4,1.0,264.0583190917969,264.0583190917969,0.0,,1.0,1.0,0.0,1,0.1637263000011444,264.0583190917969,264.0583190917969,0.0,,13.0
15,['2'],2,TMTstop-control_1_7linestimulus12.png,TMTstop-control_1_7greenlinestimulus12.png,TMTstop-control_1_7redlinestimulus12.png,TMT_Control,7,165,None,4,1.0,264.28302001953125,264.28302001953125,0.0,,1.0,1.0,0.0,2,-0.02374969999800669,264.28302001953125,264.28302001953125,0.0,,14.0
16,['3'],3,TMTstop-control_1_7linestimulus13.png,TMTstop-control_1_7greenlinestimulus13.png,TMTstop-control_1_7redlinestimulus13.png,TMT_Control,7,166,None,4,1.0,264.3330993652344,264.3330993652344,0.0,,1.0,1.0,0.0,1,2,3,0.3832174999988638,0.4488229999988107,0.5575634999986505,264.3330993652344,264.3330993652344,0.0,,15.0
17,['1'],1,TMTstop-control_1_7linestimulus14.png,TMTstop-control_1_7greenlinestimulus14.png,TMTstop-control_1_7redlinestimulus14.png,TMT_Control,7,167,None,4,1.0,264.9626770019531,264.9626770019531,0.0,,1.0,1.0,0.0,1,0.10338079999928595,264.9626770019531,264.9626770019531,0.0,,16.0
18,['2'],2,TMTstop-control_1_7linestimulus15.png,TMTstop-control_1_7greenlinestimulus15.png,TMTstop-control_1_7redlinestimulus15.png,TMT_Control,7,168,None,4,1.0,265.1300964355469,265.1300964355469,0.0,,1.0,1.0,0.0,2,0.03227290000359062,265.1300964355469,265.1300964355469,0.0,,17.0
19,['3'],3,TMTstop-control_1_7linestimulus16.png,TMTstop-control_1_7greenlinestimulus16.png,TMTstop-control_1_7redlinestimulus16.png,TMT_Control,7,169,None,4,1.0,265.21356201171875,265.21356201171875,0.0,,1.0,1.0,0.0,1,2,3,0.414253999995708,0.46600999999645865,0.6084856999950716,265.21356201171875,265.21356201171875,0.0,,18.0
20,['2'],2,TMTstop-control_1_7linestimulus17.png,TMTstop-control_1_7greenlinestimulus17.png,TMTstop-control_1_7redlinestimulus17.png,TMT_Control,7,170,None,4,1.0,265.8997802734375,265.8997802734375,0.0,,1.0,1.0,0.0,1,2,0.08533549999992829,0.10801799999899231,265.8997802734375,265.8997802734375,0.0,,19.0
21,['3'],3,TMTstop-control_1_7linestimulus18.png,TMTstop-control_1_7greenlinestimulus18.png,TMTstop-control_1_7redlinestimulus18.png,TMT_Control,7,171,None,4,1.0,266.104248046875,266.104248046875,0.0,,1.0,1.0,0.0,1,2,3,0.4297819999992498,0.5100996999972267,0.633467899999232,266.104248046875,266.104248046875,0.0,,20.0
22,['2'],2,TMTstop-control_1_7linestimulus19.png,TMTstop-control_1_7greenlinestimulus19.png,TMTstop-control_1_7redlinestimulus19.png,TMT_Control,7,172,None,4,1.0,266.8121032714844,266.8121032714844,0.0,,1.0,1.0,0.0,1,2,0.10652340000524418,0.14830939999956172,266.8121032714844,266.8121032714844,0.0,,21.0
23,['3'],3,TMTstop-control_1_7linestimulus20.png,TMTstop-control_1_7greenlinestimulus20.png,TMTstop-control_1_7redlinestimulus20.png,TMT_Control,7,173,None,4,1.0,267.029052734375,267.029052734375,0.0,,1.0,1.0,0.0,3,0.09669530000246596,267.029052734375,267.029052734375,0.0,,22.0
24,['2'],2,TMTstop-control_1_7linestimulus21.png,TMTstop-control_1_7greenlinestimulus21.png,TMTstop-control_1_7redlinestimulus21.png,TMT_Control,7,174,None,4,1.0,267.1790771484375,267.1790771484375,0.0,,1.0,1.0,0.0,1,2,0.09772479999810457,0.12500549999822397,267.1790771484375,267.1790771484375,0.0,,23.0
25,['3'],3,TMTstop-control_1_7linestimulus22.png,TMTstop-control_1_7greenlinestimulus22.png,TMTstop-control_1_7redlinestimulus22.png,TMT_Control,7,175,None,4,1.0,267.3699035644531,267.3699035644531,0.0,,1.0,1.0,0.0,1,2,3,0.4136876000047778,0.5244879000019864,0.6568268000046373,267.3699035644531,267.3699035644531,0.0,,24.0
None,None,None,TMTstop-control_1_7linestimulus23.png,TMTstop-control_1_7greenlinestimulus23.png,TMTstop-control_1_7redlinestimulus23.png,TMT_Control,7,Feedback_last,None,4,1.0,268.1058349609375,268.1058349609375,0.0,,0.0,0.0,0.0,1,2,3,1,2,3,0.10854290000133915,0.2025006999974721,0.3560746000002837,0.4994026999993366,0.547862500003248,0.7097506999998586,268.1058349609375,268.1058349609375,0.0,,25.0

extraInfo
participant,
session,001
date,2022_May_23_1222
expName,TMT_fmri
psychopyVersion,2021.2.3
frameRate,59.98821831237917
﻿NumberLetter,corrAns,Correct,StimFile,Correct_StimFile,False_StimFile,Version,Paper,TrialNumber_Version,Round,Block,n,Stim_2.started_mean,Stim_2.started_raw,Stim_2.started_std,Stim_2.stopped_raw,key_resp_8.corr_mean,key_resp_8.corr_raw,key_resp_8.corr_std,key_resp_8.keys_raw,key_resp_8.rt_raw,key_resp_8.started_mean,key_resp_8.started_raw,key_resp_8.started_std,key_resp_8.stopped_raw,order
1,['3'],3,TMTstop-control_1_8.png,TMTstop-control_1_8.png,TMTstop-control_1_8.png,TMT_Control,8,176,None,4,1.0,272.25640869140625,272.25640869140625,0.0,,1.0,1.0,0.0,1,2,3,0.5497841999967932,0.6332653999998001,0.7740809000024456,272.25640869140625,272.25640869140625,0.0,,0.0
2,['2'],2,TMTstop-control_1_8.png,TMTstop-control_1_8firstgreen.png,TMTstop-control_1_8firstred.png,TMT_Control,8,177,None,4,1.0,273.0834655761719,273.0834655761719,0.0,,1.0,1.0,0.0,1,2,0.13278310000168858,0.1576093999974546,273.0834655761719,273.0834655761719,0.0,,1.0
3,['3'],3,TMTstop-control_1_8linestimulus0.png,TMTstop-control_1_8greenlinestimulus0.png,TMTstop-control_1_8redlinestimulus0.png,TMT_Control,8,178,None,4,1.0,273.30792236328125,273.30792236328125,0.0,,1.0,1.0,0.0,3,0.10256789999402827,273.30792236328125,273.30792236328125,0.0,,2.0
4,['2'],2,TMTstop-control_1_8linestimulus1.png,TMTstop-control_1_8greenlinestimulus1.png,TMTstop-control_1_8redlinestimulus1.png,TMT_Control,8,179,None,4,1.0,273.48272705078125,273.48272705078125,0.0,,1.0,1.0,0.0,1,2,0.1641823000027216,0.1965388000025996,273.48272705078125,273.48272705078125,0.0,,3.0
5,['1'],1,TMTstop-control_1_8linestimulus2.png,TMTstop-control_1_8greenlinestimulus2.png,TMTstop-control_1_8redlinestimulus2.png,TMT_Control,8,180,None,4,1.0,273.7568359375,273.7568359375,0.0,,1.0,1.0,0.0,3,1,0.06876370000099996,0.7070768000048702,273.7568359375,273.7568359375,0.0,,4.0
6,['2'],2,TMTstop-control_1_8linestimulus3.png,TMTstop-control_1_8greenlinestimulus3.png,TMTstop-control_1_8redlinestimulus3.png,TMT_Control,8,181,None,4,1.0,274.5184631347656,274.5184631347656,0.0,,1.0,1.0,0.0,2,-0.006820700000389479,274.5184631347656,274.5184631347656,0.0,,5.0
7,['1'],1,TMTstop-control_1_8linestimulus4.png,TMTstop-control_1_8greenlinestimulus4.png,TMTstop-control_1_8redlinestimulus4.png,TMT_Control,8,182,None,4,1.0,274.5712585449219,274.5712585449219,0.0,,1.0,1.0,0.0,3,1,0.081512600001588,0.22412420000182465,274.5712585449219,274.5712585449219,0.0,,6.0
8,['2'],2,TMTstop-control_1_8linestimulus4.png,TMTstop-control_1_8greenlinestimulus5.png,TMTstop-control_1_8redlinestimulus5.png,TMT_Control,8,183,None,4,1.0,274.8548889160156,274.8548889160156,0.0,,1.0,1.0,0.0,2,0.045765800001390744,274.8548889160156,274.8548889160156,0.0,,7.0
9,['3'],3,TMTstop-control_1_8linestimulus6.png,TMTstop-control_1_8greenlinestimulus6.png,TMTstop-control_1_8redlinestimulus6.png,TMT_Control,8,184,None,4,1.0,274.9555969238281,274.9555969238281,0.0,,1.0,1.0,0.0,3,0.06790950000140583,274.9555969238281,274.9555969238281,0.0,,8.0
10,['2'],2,TMTstop-control_1_8linestimulus7.png,TMTstop-control_1_8greenlinestimulus7.png,TMTstop-control_1_8redlinestimulus7.png,TMT_Control,8,185,None,4,1.0,275.07183837890625,275.07183837890625,0.0,,1.0,1.0,0.0,1,2,0.11740510000527138,0.1809525000062422,275.07183837890625,275.07183837890625,0.0,,9.0
11,['1'],1,TMTstop-control_1_8linestimulus8.png,TMTstop-control_1_8greenlinestimulus8.png,TMTstop-control_1_8redlinestimulus8.png,TMT_Control,8,186,None,4,1.0,275.3481750488281,275.3481750488281,0.0,,1.0,1.0,0.0,3,1,0.03166639999835752,0.17366580000089016,275.3481750488281,275.3481750488281,0.0,,10.0
12,['3'],3,TMTstop-control_1_8linestimulus9.png,TMTstop-control_1_8greenlinestimulus9.png,TMTstop-control_1_8redlinestimulus9.png,TMT_Control,8,187,None,4,1.0,275.5892028808594,275.5892028808594,0.0,,1.0,1.0,0.0,2,1,2,3,-0.009652900000219233,0.6835704000041005,0.7375457000016468,0.8887995000040974,275.5892028808594,275.5892028808594,0.0,,11.0
13,['1'],1,TMTstop-control_1_8linestimulus10.png,TMTstop-control_1_8greenlinestimulus10.png,TMTstop-control_1_8redlinestimulus10.png,TMT_Control,8,188,None,4,1.0,276.5494079589844,276.5494079589844,0.0,,1.0,1.0,0.0,1,0.11848489999829326,276.5494079589844,276.5494079589844,0.0,,12.0
14,['3'],3,TMTstop-control_1_8linestimulus11.png,TMTstop-control_1_8greenlinestimulus11.png,TMTstop-control_1_8redlinestimulus11.png,TMT_Control,8,189,None,4,1.0,276.7178649902344,276.7178649902344,0.0,,1.0,1.0,0.0,2,1,2,1,2,3,-0.005834100003994536,0.37591479999537114,0.40887809999549063,0.7479499999972177,0.7892608999973163,0.9589755999986664,276.7178649902344,276.7178649902344,0.0,,13.0
15,['1'],1,TMTstop-control_1_8linestimulus12.png,TMTstop-control_1_8greenlinestimulus12.png,TMTstop-control_1_8redlinestimulus12.png,TMT_Control,8,190,None,4,1.0,277.7329406738281,277.7329406738281,0.0,,1.0,1.0,0.0,1,0.29846090000501135,277.7329406738281,277.7329406738281,0.0,,14.0
16,['3'],3,TMTstop-control_1_8linestimulus13.png,TMTstop-control_1_8greenlinestimulus13.png,TMTstop-control_1_8redlinestimulus13.png,TMT_Control,8,191,None,4,1.0,278.0916442871094,278.0916442871094,0.0,,1.0,1.0,0.0,2,3,-0.046452900001895614,0.265026900000521,278.0916442871094,278.0916442871094,0.0,,15.0
17,['1'],1,TMTstop-control_1_8linestimulus14.png,TMTstop-control_1_8greenlinestimulus14.png,TMTstop-control_1_8redlinestimulus14.png,TMT_Control,8,192,None,4,1.0,278.45281982421875,278.45281982421875,0.0,,1.0,1.0,0.0,1,0.4962193000028492,278.45281982421875,278.45281982421875,0.0,,16.0
18,['2'],2,TMTstop-control_1_8linestimulus15.png,TMTstop-control_1_8greenlinestimulus15.png,TMTstop-control_1_8redlinestimulus15.png,TMT_Control,8,193,None,4,1.0,279.0137939453125,279.0137939453125,0.0,,1.0,1.0,0.0,1,2,0.387260100003914,0.511323300001095,279.0137939453125,279.0137939453125,0.0,,17.0
19,['1'],1,TMTstop-control_1_8linestimulus16.png,TMTstop-control_1_8greenlinestimulus16.png,TMTstop-control_1_8redlinestimulus16.png,TMT_Control,8,194,None,4,1.0,279.61126708984375,279.61126708984375,0.0,,1.0,1.0,0.0,3,1,0.20129840000299737,0.6699277000006987,279.61126708984375,279.61126708984375,0.0,,18.0
20,['3'],3,TMTstop-control_1_8linestimulus17.png,TMTstop-control_1_8greenlinestimulus17.png,TMTstop-control_1_8redlinestimulus17.png,TMT_Control,8,195,None,4,1.0,280.33062744140625,280.33062744140625,0.0,,1.0,1.0,0.0,2,3,-0.01831839999795193,0.183061000003363,280.33062744140625,280.33062744140625,0.0,,19.0
21,['2'],2,TMTstop-control_1_8linestimulus18.png,TMTstop-control_1_8greenlinestimulus18.png,TMTstop-control_1_8redlinestimulus18.png,TMT_Control,8,196,None,4,1.0,280.5885925292969,280.5885925292969,0.0,,1.0,1.0,0.0,1,2,0.1038881999993464,0.1793863999992027,280.5885925292969,280.5885925292969,0.0,,20.0
22,['3'],3,TMTstop-control_1_8linestimulus19.png,TMTstop-control_1_8greenlinestimulus19.png,TMTstop-control_1_8redlinestimulus19.png,TMT_Control,8,197,None,4,1.0,280.86578369140625,280.86578369140625,0.0,,1.0,1.0,0.0,3,0.2227201999994577,280.86578369140625,280.86578369140625,0.0,,21.0
23,['1'],1,TMTstop-control_1_8linestimulus20.png,TMTstop-control_1_8greenlinestimulus20.png,TMTstop-control_1_8redlinestimulus20.png,TMT_Control,8,198,None,4,1.0,281.1572570800781,281.1572570800781,0.0,,1.0,1.0,0.0,1,-0.022751700002118014,281.1572570800781,281.1572570800781,0.0,,22.0
24,['2'],2,TMTstop-control_1_8linestimulus21.png,TMTstop-control_1_8greenlinestimulus21.png,TMTstop-control_1_8redlinestimulus21.png,TMT_Control,8,199,None,4,1.0,281.20709228515625,281.20709228515625,0.0,,1.0,1.0,0.0,2,0.00697799999761628,281.20709228515625,281.20709228515625,0.0,,23.0
25,['3'],3,TMTstop-control_1_8linestimulus22.png,TMTstop-control_1_8greenlinestimulus22.png,TMTstop-control_1_8redlinestimulus22.png,TMT_Control,8,200,None,4,1.0,281.2904357910156,281.2904357910156,0.0,,1.0,1.0,0.0,3,0.09236750000127358,281.2904357910156,281.2904357910156,0.0,,24.0
None,None,None,TMTstop-control_1_8linestimulus23.png,TMTstop-control_1_8greenlinestimulus23.png,TMTstop-control_1_8redlinestimulus23.png,TMT_Control,8,Feedback_last,None,4,1.0,281.44293212890625,281.44293212890625,0.0,,0.0,0.0,0.0,1,2,3,1,2,3,0.3134996000007959,0.32686139999714214,0.5239406999971834,0.6756984000021475,0.7449750000014319,0.9015991999985999,281.44293212890625,281.44293212890625,0.0,,25.0

extraInfo
participant,
session,001
date,2022_May_23_1222
expName,TMT_fmri
psychopyVersion,2021.2.3
frameRate,59.98821831237917
