Block_file,Condition_rows,NumberLetter,corrAns,Correct,StimFile,Correct_StimFile,False_StimFile,Version,Block,TrialNumber_session,Blocks_TMTControl.thisRepN,Blocks_TMTControl.thisTrialN,Blocks_TMTControl.thisN,Blocks_TMTControl.thisIndex,trials_TMTControl.thisRepN,trials_TMTControl.thisTrialN,trials_TMTControl.thisN,trials_TMTControl.thisIndex,Blocks_TMTA.thisRepN,Blocks_TMTA.thisTrialN,Blocks_TMTA.thisN,Blocks_TMTA.thisIndex,trials_TMTA.thisRepN,trials_TMTA.thisTrialN,trials_TMTA.thisN,trials_TMTA.thisIndex,Blocks_TMTB.thisRepN,Blocks_TMTB.thisTrialN,Blocks_TMTB.thisN,Blocks_TMTB.thisIndex,trials_TMTB.thisRepN,trials_TMTB.thisTrialN,trials_TMTB.thisN,trials_TMTB.thisIndex,Attempts,First_attempt,Stim.started,Stim.stopped,key_resp_2.keys,key_resp_2.corr,key_resp_2.rt,key_resp_2.started,key_resp_2.stopped,participant,session,date,expName,psychopyVersion,frameRate,
TMTstop-Control_1_1.xlsx,0:26,1,['2'],2,TMTstop-control_1_1.png,TMTstop-control_1_1.png,TMTstop-control_1_1.png,TMT_Control,1,1,0,0,0,0,0,0,0,0,,,,,,,,,,,,,,,,,1,1,22.025733999995282,None,['2'],1,[1.2053669000015361],22.025733999995282,None,,001,2022_Mar_30_1015,TMT_fmri,2021.2.3,143.5661545785615,
TMTstop-Control_1_1.xlsx,0:26,2,['1'],1,TMTstop-control_1_1.png,TMTstop-control_1_1firstgreen.png,TMTstop-control_1_1firstred.png,TMT_Control,1,2,0,0,0,0,0,1,1,1,,,,,,,,,,,,,,,,,1,1,23.31780720000097,None,['1'],1,[0.8597355000092648],23.31780720000097,None,,001,2022_Mar_30_1015,TMT_fmri,2021.2.3,143.5661545785615,
TMTstop-Control_1_1.xlsx,0:26,3,['2'],2,TMTstop-control_1_1linestimulus0.png,TMTstop-control_1_1greenlinestimulus0.png,TMTstop-control_1_1redlinestimulus0.png,TMT_Control,1,3,0,0,0,0,0,2,2,2,,,,,,,,,,,,,,,,,2,0,24.262597299995832,None,"['3', '2']",1,"[0.5196501000027638, 0.8603790000051958]",24.262597299995832,None,,001,2022_Mar_30_1015,TMT_fmri,2021.2.3,143.5661545785615,
TMTstop-Control_1_1.xlsx,0:26,4,['3'],3,TMTstop-control_1_1linestimulus1.png,TMTstop-control_1_1greenlinestimulus1.png,TMTstop-control_1_1redlinestimulus1.png,TMT_Control,1,4,0,0,0,0,0,3,3,3,,,,,,,,,,,,,,,,,1,1,25.24120160000166,None,['3'],1,[0.3302497999975458],25.24120160000166,None,,001,2022_Mar_30_1015,TMT_fmri,2021.2.3,143.5661545785615,
TMTstop-Control_1_1.xlsx,0:26,5,['2'],2,TMTstop-control_1_1linestimulus2.png,TMTstop-control_1_1greenlinestimulus2.png,TMTstop-control_1_1redlinestimulus2.png,TMT_Control,1,5,0,0,0,0,0,4,4,4,,,,,,,,,,,,,,,,,2,0,25.65087090000452,None,"['1', '2']",1,"[0.08437810000032187, 0.28031600000394974]",25.65087090000452,None,,001,2022_Mar_30_1015,TMT_fmri,2021.2.3,143.5661545785615,
TMTstop-Control_1_1.xlsx,0:26,6,['1'],1,TMTstop-control_1_1linestimulus3.png,TMTstop-control_1_1greenlinestimulus3.png,TMTstop-control_1_1redlinestimulus3.png,TMT_Control,1,6,0,0,0,0,0,5,5,5,,,,,,,,,,,,,,,,,2,0,26.026422599999933,None,"['3', '1']",1,"[-0.04683089999889489, 0.17909430000872817]",26.026422599999933,None,,001,2022_Mar_30_1015,TMT_fmri,2021.2.3,143.5661545785615,
TMTstop-Control_1_1.xlsx,0:26,7,['3'],3,TMTstop-control_1_1linestimulus4.png,TMTstop-control_1_1greenlinestimulus4.png,TMTstop-control_1_1redlinestimulus4.png,TMT_Control,1,7,0,0,0,0,0,6,6,6,,,,,,,,,,,,,,,,,2,0,26.310700400004862,None,"['2', '3']",1,"[0.013249600000563078, 0.10735690000001341]",26.310700400004862,None,,001,2022_Mar_30_1015,TMT_fmri,2021.2.3,143.5661545785615,
TMTstop-Control_1_1.xlsx,0:26,8,['2'],2,TMTstop-control_1_1linestimulus4.png,TMTstop-control_1_1greenlinestimulus5.png,TMTstop-control_1_1redlinestimulus5.png,TMT_Control,1,8,0,0,0,0,0,7,7,7,,,,,,,,,,,,,,,,,2,0,26.519559199994546,None,"['1', '2']",1,"[0.06806200000573881, 0.13660240000172053]",26.519559199994546,None,,001,2022_Mar_30_1015,TMT_fmri,2021.2.3,143.5661545785615,
TMTstop-Control_1_1.xlsx,0:26,9,['3'],3,TMTstop-control_1_1linestimulus6.png,TMTstop-control_1_1greenlinestimulus6.png,TMTstop-control_1_1redlinestimulus6.png,TMT_Control,1,9,0,0,0,0,0,8,8,8,,,,,,,,,,,,,,,,,1,1,26.741546699995524,None,['3'],1,[0.0005835000047227368],26.741546699995524,None,,001,2022_Mar_30_1015,TMT_fmri,2021.2.3,143.5661545785615,
TMTstop-Control_1_1.xlsx,0:26,10,['2'],2,TMTstop-control_1_1linestimulus7.png,TMTstop-control_1_1greenlinestimulus7.png,TMTstop-control_1_1redlinestimulus7.png,TMT_Control,1,10,0,0,0,0,0,9,9,9,,,,,,,,,,,,,,,,,2,0,26.810660499992082,None,"['1', '2']",1,"[0.06582510001317132, 0.17807360000733752]",26.810660499992082,None,,001,2022_Mar_30_1015,TMT_fmri,2021.2.3,143.5661545785615,
TMTstop-Control_1_1.xlsx,0:26,11,['3'],3,TMTstop-control_1_1linestimulus8.png,TMTstop-control_1_1greenlinestimulus8.png,TMTstop-control_1_1redlinestimulus8.png,TMT_Control,1,11,0,0,0,0,0,10,10,10,,,,,,,,,,,,,,,,,1,1,27.081792400000268,None,['3'],1,[-0.025208600010955706],27.081792400000268,None,,001,2022_Mar_30_1015,TMT_fmri,2021.2.3,143.5661545785615,
TMTstop-Control_1_1.xlsx,0:26,12,['1'],1,TMTstop-control_1_1linestimulus9.png,TMTstop-control_1_1greenlinestimulus9.png,TMTstop-control_1_1redlinestimulus9.png,TMT_Control,1,12,0,0,0,0,0,11,11,11,,,,,,,,,,,,,,,,,1,1,27.151259199992637,None,['1'],1,[0.09355950000463054],27.151259199992637,None,,001,2022_Mar_30_1015,TMT_fmri,2021.2.3,143.5661545785615,
TMTstop-Control_1_1.xlsx,0:26,13,['3'],3,TMTstop-control_1_1linestimulus10.png,TMTstop-control_1_1greenlinestimulus10.png,TMTstop-control_1_1redlinestimulus10.png,TMT_Control,1,13,0,0,0,0,0,12,12,12,,,,,,,,,,,,,,,,,2,0,27.324841900001047,None,"['2', '3']",1,"[0.0035795000003417954, 0.11119239999970887]",27.324841900001047,None,,001,2022_Mar_30_1015,TMT_fmri,2021.2.3,143.5661545785615,
TMTstop-Control_1_1.xlsx,0:26,14,['1'],1,TMTstop-control_1_1linestimulus11.png,TMTstop-control_1_1greenlinestimulus11.png,TMTstop-control_1_1redlinestimulus11.png,TMT_Control,1,14,0,0,0,0,0,13,13,13,,,,,,,,,,,,,,,,,1,1,27.533175999997184,None,['1'],1,[0.0491494000016246],27.533175999997184,None,,001,2022_Mar_30_1015,TMT_fmri,2021.2.3,143.5661545785615,
TMTstop-Control_1_1.xlsx,0:26,15,['3'],3,TMTstop-control_1_1linestimulus12.png,TMTstop-control_1_1greenlinestimulus12.png,TMTstop-control_1_1redlinestimulus12.png,TMT_Control,1,15,0,0,0,0,0,14,14,14,,,,,,,,,,,,,,,,,2,0,27.65821949999372,None,"['2', '3']",1,"[-0.017282499989960343, 0.11002700000244658]",27.65821949999372,None,,001,2022_Mar_30_1015,TMT_fmri,2021.2.3,143.5661545785615,
TMTstop-Control_1_1.xlsx,0:26,16,['1'],1,TMTstop-control_1_1linestimulus13.png,TMTstop-control_1_1greenlinestimulus13.png,TMTstop-control_1_1redlinestimulus13.png,TMT_Control,1,16,0,0,0,0,0,15,15,15,,,,,,,,,,,,,,,,,1,1,27.852593100004015,None,['1'],1,[0.04319810000015423],27.852593100004015,None,,001,2022_Mar_30_1015,TMT_fmri,2021.2.3,143.5661545785615,
TMTstop-Control_1_1.xlsx,0:26,17,['2'],2,TMTstop-control_1_1linestimulus14.png,TMTstop-control_1_1greenlinestimulus14.png,TMTstop-control_1_1redlinestimulus14.png,TMT_Control,1,17,0,0,0,0,0,16,16,16,,,,,,,,,,,,,,,,,1,1,27.97742830000061,None,['2'],1,[-0.007143299997551367],27.97742830000061,None,,001,2022_Mar_30_1015,TMT_fmri,2021.2.3,143.5661545785615,
TMTstop-Control_1_1.xlsx,0:26,18,['1'],1,TMTstop-control_1_1linestimulus15.png,TMTstop-control_1_1greenlinestimulus15.png,TMTstop-control_1_1redlinestimulus15.png,TMT_Control,1,18,0,0,0,0,0,17,17,17,,,,,,,,,,,,,,,,,2,0,28.047208999996656,None,"['3', '1']",1,"[0.013914800001657568, 0.14172499999403954]",28.047208999996656,None,,001,2022_Mar_30_1015,TMT_fmri,2021.2.3,143.5661545785615,
TMTstop-Control_1_1.xlsx,0:26,19,['3'],3,TMTstop-control_1_1linestimulus16.png,TMTstop-control_1_1greenlinestimulus16.png,TMTstop-control_1_1redlinestimulus16.png,TMT_Control,1,19,0,0,0,0,0,18,18,18,,,,,,,,,,,,,,,,,2,0,28.297106600002735,None,"['2', '3']",1,"[-0.01378570000815671, 0.06410969998978544]",28.297106600002735,None,,001,2022_Mar_30_1015,TMT_fmri,2021.2.3,143.5661545785615,
TMTstop-Control_1_1.xlsx,0:26,20,['1'],1,TMTstop-control_1_1linestimulus17.png,TMTstop-control_1_1greenlinestimulus17.png,TMTstop-control_1_1redlinestimulus17.png,TMT_Control,1,20,0,0,0,0,0,19,19,19,,,,,,,,,,,,,,,,,1,1,28.449773600004846,None,['1'],1,[0.030656999995699152],28.449773600004846,None,,001,2022_Mar_30_1015,TMT_fmri,2021.2.3,143.5661545785615,
TMTstop-Control_1_1.xlsx,0:26,21,['3'],3,TMTstop-control_1_1linestimulus18.png,TMTstop-control_1_1greenlinestimulus18.png,TMTstop-control_1_1redlinestimulus18.png,TMT_Control,1,21,0,0,0,0,0,20,20,20,,,,,,,,,,,,,,,,,2,0,28.59532369999215,None,"['2', '3']",1,"[-0.02379460001247935, 0.07191519999469165]",28.59532369999215,None,,001,2022_Mar_30_1015,TMT_fmri,2021.2.3,143.5661545785615,
TMTstop-Control_1_1.xlsx,0:26,22,['1'],1,TMTstop-control_1_1linestimulus19.png,TMTstop-control_1_1greenlinestimulus19.png,TMTstop-control_1_1redlinestimulus19.png,TMT_Control,1,22,0,0,0,0,0,21,21,21,,,,,,,,,,,,,,,,,1,1,28.74832260000403,None,['1'],1,[0.04442770000605378],28.74832260000403,None,,001,2022_Mar_30_1015,TMT_fmri,2021.2.3,143.5661545785615,
TMTstop-Control_1_1.xlsx,0:26,23,['3'],3,TMTstop-control_1_1linestimulus20.png,TMTstop-control_1_1greenlinestimulus20.png,TMTstop-control_1_1redlinestimulus20.png,TMT_Control,1,23,0,0,0,0,0,22,22,22,,,,,,,,,,,,,,,,,2,0,28.87346269999398,None,"['2', '3']",1,"[0.013332999995327555, 0.09678259999782313]",28.87346269999398,None,,001,2022_Mar_30_1015,TMT_fmri,2021.2.3,143.5661545785615,
TMTstop-Control_1_1.xlsx,0:26,24,['1'],1,TMTstop-control_1_1linestimulus21.png,TMTstop-control_1_1greenlinestimulus21.png,TMTstop-control_1_1redlinestimulus21.png,TMT_Control,1,24,0,0,0,0,0,23,23,23,,,,,,,,,,,,,,,,,1,1,29.046971000003396,None,['1'],1,[0.053849599993554875],29.046971000003396,None,,001,2022_Mar_30_1015,TMT_fmri,2021.2.3,143.5661545785615,
TMTstop-Control_1_1.xlsx,0:26,25,['3'],3,TMTstop-control_1_1linestimulus22.png,TMTstop-control_1_1greenlinestimulus22.png,TMTstop-control_1_1redlinestimulus22.png,TMT_Control,1,25,0,0,0,0,0,24,24,24,,,,,,,,,,,,,,,,,2,0,29.171858999994583,None,"['2', '3']",1,"[-0.010553700005402789, 0.11284449999220669]",29.171858999994583,None,,001,2022_Mar_30_1015,TMT_fmri,2021.2.3,143.5661545785615,
TMTstop-Control_1_1.xlsx,0:26,None,None,None,TMTstop-control_1_1linestimulus23.png,TMTstop-control_1_1greenlinestimulus23.png,TMTstop-control_1_1redlinestimulus23.png,TMT_Control,1,Feedback_last,0,0,0,0,0,25,25,25,,,,,,,,,,,,,,,,,1,1,29.366202200006228,None,['2'],0,[0.1621572999865748],29.366202200006228,None,,001,2022_Mar_30_1015,TMT_fmri,2021.2.3,143.5661545785615,
TMTstop-Control_1_2.xlsx,26:52,1,['1'],1,TMTstop-control_1_2.png,TMTstop-control_1_2.png,TMTstop-control_1_2.png,TMT_Control,2,26,0,1,1,1,0,0,0,0,,,,,,,,,,,,,,,,,3,0,33.49099720000231,None,"['2', '3', '1']",1,"[0.6307458000082988, 1.1257197000086308, 1.3881153000111226]",33.49099720000231,None,,001,2022_Mar_30_1015,TMT_fmri,2021.2.3,143.5661545785615,
TMTstop-Control_1_2.xlsx,26:52,2,['3'],3,TMTstop-control_1_2.png,TMTstop-control_1_2firstgreen.png,TMTstop-control_1_2firstred.png,TMT_Control,2,27,0,1,1,1,0,1,1,1,,,,,,,,,,,,,,,,,2,0,35.0331268000009,None,"['2', '3']",1,"[0.4338791000045603, 0.9982529000117211]",35.0331268000009,None,,001,2022_Mar_30_1015,TMT_fmri,2021.2.3,143.5661545785615,
TMTstop-Control_1_2.xlsx,26:52,3,['2'],2,TMTstop-control_1_2linestimulus0.png,TMTstop-control_1_2greenlinestimulus0.png,TMTstop-control_1_2redlinestimulus0.png,TMT_Control,2,28,0,1,1,1,0,2,2,2,,,,,,,,,,,,,,,,,0,0,36.11620449999464,None,None,0,,36.11620449999464,None,,001,2022_Mar_30_1015,TMT_fmri,2021.2.3,143.5661545785615,
TMTstop-A_1_1.xlsx,0:26,1,['2'],2,TMTstop-A_1_1.png,TMTstop-A_1_1.png,TMTstop-A_1_1.png,TMT_A,1,1,,,,,,,,,0,0,0,0,0,0,0,0,,,,,,,,,1,1,55.44170130000566,None,['2'],1,[1.0446910000027856],55.44170130000566,None,,001,2022_Mar_30_1015,TMT_fmri,2021.2.3,143.5661545785615,
TMTstop-A_1_1.xlsx,0:26,2,['1'],1,TMTstop-A_1_1.png,TMTstop-A_1_1firstgreen.png,TMTstop-A_1_1firstred.png,TMT_A,1,2,,,,,,,,,0,0,0,0,0,1,1,1,,,,,,,,,1,1,56.56689620000543,None,['1'],1,[0.4618107999995118],56.56689620000543,None,,001,2022_Mar_30_1015,TMT_fmri,2021.2.3,143.5661545785615,
TMTstop-A_1_1.xlsx,0:26,3,['2'],2,TMTstop-A_1_1linestimulus0.png,TMTstop-A_1_1greenlinestimulus0.png,TMTstop-A_1_1redlinestimulus0.png,TMT_A,1,3,,,,,,,,,0,0,0,0,0,2,2,2,,,,,,,,,1,1,57.10886369999207,None,['2'],1,[0.1783897999994224],57.10886369999207,None,,001,2022_Mar_30_1015,TMT_fmri,2021.2.3,143.5661545785615,
TMTstop-A_1_1.xlsx,0:26,4,['3'],3,TMTstop-A_1_1linestimulus1.png,TMTstop-A_1_1greenlinestimulus1.png,TMTstop-A_1_1redlinestimulus1.png,TMT_A,1,4,,,,,,,,,0,0,0,0,0,3,3,3,,,,,,,,,1,1,57.358914399999776,None,['3'],1,[0.26618529998813756],57.358914399999776,None,,001,2022_Mar_30_1015,TMT_fmri,2021.2.3,143.5661545785615,
TMTstop-A_1_1.xlsx,0:26,5,['2'],2,TMTstop-A_1_1linestimulus2.png,TMTstop-A_1_1greenlinestimulus2.png,TMTstop-A_1_1redlinestimulus2.png,TMT_A,1,5,,,,,,,,,0,0,0,0,0,4,4,4,,,,,,,,,2,0,57.699154500005534,None,"['1', '2']",1,"[0.17227600001206156, 0.2845019000087632]",57.699154500005534,None,,001,2022_Mar_30_1015,TMT_fmri,2021.2.3,143.5661545785615,
TMTstop-A_1_1.xlsx,0:26,6,['3'],3,TMTstop-A_1_1linestimulus3.png,TMTstop-A_1_1greenlinestimulus3.png,TMTstop-A_1_1redlinestimulus3.png,TMT_A,1,6,,,,,,,,,0,0,0,0,0,5,5,5,,,,,,,,,1,1,58.08104319999984,None,['3'],1,[0.0509334999951534],58.08104319999984,None,,001,2022_Mar_30_1015,TMT_fmri,2021.2.3,143.5661545785615,
TMTstop-A_1_1.xlsx,0:26,7,['2'],2,TMTstop-A_1_1linestimulus4.png,TMTstop-A_1_1greenlinestimulus4.png,TMTstop-A_1_1redlinestimulus4.png,TMT_A,1,7,,,,,,,,,0,0,0,0,0,6,6,6,,,,,,,,,2,0,58.20636419999937,None,"['1', '2']",1,"[0.057222000003093854, 0.17342240001016762]",58.20636419999937,None,,001,2022_Mar_30_1015,TMT_fmri,2021.2.3,143.5661545785615,
TMTstop-A_1_1.xlsx,0:26,8,['1'],1,TMTstop-A_1_1linestimulus5.png,TMTstop-A_1_1greenlinestimulus5.png,TMTstop-A_1_1redlinestimulus5.png,TMT_A,1,8,,,,,,,,,0,0,0,0,0,7,7,7,,,,,,,,,2,0,58.47003369999584,None,"['3', '1']",1,"[0.03893310000421479, 0.22031760000390932]",58.47003369999584,None,,001,2022_Mar_30_1015,TMT_fmri,2021.2.3,143.5661545785615,
TMTstop-A_1_1.xlsx,0:26,9,['2'],2,TMTstop-A_1_1linestimulus6.png,TMTstop-A_1_1greenlinestimulus6.png,TMTstop-A_1_1redlinestimulus6.png,TMT_A,1,9,,,,,,,,,0,0,0,0,0,8,8,8,,,,,,,,,1,1,58.796188299995265,None,['2'],1,[-0.027469699998619035],58.796188299995265,None,,001,2022_Mar_30_1015,TMT_fmri,2021.2.3,143.5661545785615,
TMTstop-A_1_1.xlsx,0:26,10,['1'],1,TMTstop-A_1_1linestimulus7.png,TMTstop-A_1_1greenlinestimulus7.png,TMTstop-A_1_1redlinestimulus7.png,TMT_A,1,10,,,,,,,,,0,0,0,0,0,9,9,9,,,,,,,,,2,0,58.87950080000155,None,"['3', '1']",1,"[0.003124399998341687, 0.1907063999969978]",58.87950080000155,None,,001,2022_Mar_30_1015,TMT_fmri,2021.2.3,143.5661545785615,
TMTstop-A_1_1.xlsx,0:26,11,['2'],2,TMTstop-A_1_1linestimulus8.png,TMTstop-A_1_1greenlinestimulus8.png,TMTstop-A_1_1redlinestimulus8.png,TMT_A,1,11,,,,,,,,,0,0,0,0,0,10,10,10,,,,,,,,,1,1,59.178185500000836,None,['2'],1,[-0.034725000004982576],59.178185500000836,None,,001,2022_Mar_30_1015,TMT_fmri,2021.2.3,143.5661545785615,
TMTstop-A_1_1.xlsx,0:26,12,['3'],3,TMTstop-A_1_1linestimulus9.png,TMTstop-A_1_1greenlinestimulus9.png,TMTstop-A_1_1redlinestimulus9.png,TMT_A,1,12,,,,,,,,,0,0,0,0,0,11,11,11,,,,,,,,,1,1,59.25462799999514,None,['3'],1,[0.028586399988853373],59.25462799999514,None,,001,2022_Mar_30_1015,TMT_fmri,2021.2.3,143.5661545785615,
TMTstop-A_1_1.xlsx,0:26,13,['2'],2,TMTstop-A_1_1linestimulus10.png,TMTstop-A_1_1greenlinestimulus10.png,TMTstop-A_1_1redlinestimulus10.png,TMT_A,1,13,,,,,,,,,0,0,0,0,0,12,12,12,,,,,,,,,2,0,59.365647600003285,None,"['1', '2']",1,"[0.1141974000056507, 0.16688370000338182]",59.365647600003285,None,,001,2022_Mar_30_1015,TMT_fmri,2021.2.3,143.5661545785615,
TMTstop-A_1_1.xlsx,0:26,14,['3'],3,TMTstop-A_1_1linestimulus11.png,TMTstop-A_1_1greenlinestimulus11.png,TMTstop-A_1_1redlinestimulus11.png,TMT_A,1,14,,,,,,,,,0,0,0,0,0,13,13,13,,,,,,,,,1,1,59.60881819999486,None,['3'],1,[0.055311299991444685],59.60881819999486,None,,001,2022_Mar_30_1015,TMT_fmri,2021.2.3,143.5661545785615,
TMTstop-A_1_1.xlsx,0:26,15,['1'],1,TMTstop-A_1_1linestimulus12.png,TMTstop-A_1_1greenlinestimulus12.png,TMTstop-A_1_1redlinestimulus12.png,TMT_A,1,15,,,,,,,,,0,0,0,0,0,14,14,14,,,,,,,,,1,1,59.73358539999754,None,['1'],1,[0.11828320000495296],59.73358539999754,None,,001,2022_Mar_30_1015,TMT_fmri,2021.2.3,143.5661545785615,
TMTstop-A_1_1.xlsx,0:26,16,['3'],3,TMTstop-A_1_1linestimulus13.png,TMTstop-A_1_1greenlinestimulus13.png,TMTstop-A_1_1redlinestimulus13.png,TMT_A,1,16,,,,,,,,,0,0,0,0,0,15,15,15,,,,,,,,,2,0,59.92807979999634,None,"['2', '3']",1,"[-0.01798419999249745, 0.12211359999491833]",59.92807979999634,None,,001,2022_Mar_30_1015,TMT_fmri,2021.2.3,143.5661545785615,
TMTstop-A_1_1.xlsx,0:26,17,['2'],2,TMTstop-A_1_1linestimulus14.png,TMTstop-A_1_1greenlinestimulus14.png,TMTstop-A_1_1redlinestimulus14.png,TMT_A,1,17,,,,,,,,,0,0,0,0,0,16,16,16,,,,,,,,,2,0,60.12964729999658,None,"['1', '2']",1,"[0.055393399990862235, 0.1555476999928942]",60.12964729999658,None,,001,2022_Mar_30_1015,TMT_fmri,2021.2.3,143.5661545785615,
TMTstop-A_1_1.xlsx,0:26,18,['3'],3,TMTstop-A_1_1linestimulus15.png,TMTstop-A_1_1greenlinestimulus15.png,TMTstop-A_1_1redlinestimulus15.png,TMT_A,1,18,,,,,,,,,0,0,0,0,0,17,17,17,,,,,,,,,1,1,60.37960089999251,None,['3'],1,[0.027249399994616397],60.37960089999251,None,,001,2022_Mar_30_1015,TMT_fmri,2021.2.3,143.5661545785615,
TMTstop-A_1_1.xlsx,0:26,19,['1'],1,TMTstop-A_1_1linestimulus16.png,TMTstop-A_1_1greenlinestimulus16.png,TMTstop-A_1_1redlinestimulus16.png,TMT_A,1,19,,,,,,,,,0,0,0,0,0,18,18,18,,,,,,,,,1,1,60.4837819999957,None,['1'],1,[0.11988120000751223],60.4837819999957,None,,001,2022_Mar_30_1015,TMT_fmri,2021.2.3,143.5661545785615,
TMTstop-A_1_1.xlsx,0:26,20,['3'],3,TMTstop-A_1_1linestimulus17.png,TMTstop-A_1_1greenlinestimulus17.png,TMTstop-A_1_1redlinestimulus17.png,TMT_A,1,20,,,,,,,,,0,0,0,0,0,19,19,19,,,,,,,,,2,0,60.68549350000103,None,"['2', '3']",1,"[-0.027979600010439754, 0.10551529999065679]",60.68549350000103,None,,001,2022_Mar_30_1015,TMT_fmri,2021.2.3,143.5661545785615,
TMTstop-A_1_1.xlsx,0:26,21,['1'],1,TMTstop-A_1_1linestimulus18.png,TMTstop-A_1_1greenlinestimulus18.png,TMTstop-A_1_1redlinestimulus18.png,TMT_A,1,21,,,,,,,,,0,0,0,0,0,20,20,20,,,,,,,,,1,1,60.886860700004036,None,['1'],1,[0.08621719999064226],60.886860700004036,None,,001,2022_Mar_30_1015,TMT_fmri,2021.2.3,143.5661545785615,
TMTstop-A_1_1.xlsx,0:26,22,['3'],3,TMTstop-A_1_1linestimulus19.png,TMTstop-A_1_1greenlinestimulus19.png,TMTstop-A_1_1redlinestimulus19.png,TMT_A,1,22,,,,,,,,,0,0,0,0,0,21,21,21,,,,,,,,,2,0,61.06034880000516,None,"['2', '3']",1,"[-0.025253599989810027, 0.07572520000394434]",61.06034880000516,None,,001,2022_Mar_30_1015,TMT_fmri,2021.2.3,143.5661545785615,
TMTstop-A_1_1.xlsx,0:26,23,['1'],1,TMTstop-A_1_1linestimulus20.png,TMTstop-A_1_1greenlinestimulus20.png,TMTstop-A_1_1redlinestimulus20.png,TMT_A,1,23,,,,,,,,,0,0,0,0,0,22,22,22,,,,,,,,,1,1,61.2200673000043,None,['1'],1,[0.0848507999908179],61.2200673000043,None,,001,2022_Mar_30_1015,TMT_fmri,2021.2.3,143.5661545785615,
TMTstop-A_1_1.xlsx,0:26,24,['2'],2,TMTstop-A_1_1linestimulus21.png,TMTstop-A_1_1greenlinestimulus21.png,TMTstop-A_1_1redlinestimulus21.png,TMT_A,1,24,,,,,,,,,0,0,0,0,0,23,23,23,,,,,,,,,1,1,61.39371829999436,None,['2'],1,[-0.02760149999812711],61.39371829999436,None,,001,2022_Mar_30_1015,TMT_fmri,2021.2.3,143.5661545785615,
TMTstop-A_1_1.xlsx,0:26,25,['3'],3,TMTstop-A_1_1linestimulus22.png,TMTstop-A_1_1greenlinestimulus22.png,TMTstop-A_1_1redlinestimulus22.png,TMT_A,1,25,,,,,,,,,0,0,0,0,0,24,24,24,,,,,,,,,1,1,61.47002989999601,None,['3'],1,[0.023755999995046295],61.47002989999601,None,,001,2022_Mar_30_1015,TMT_fmri,2021.2.3,143.5661545785615,
TMTstop-A_1_1.xlsx,0:26,None,None,None,TMTstop-A_1_1linestimulus23.png,TMTstop-A_1_1greenlinestimulus23.png,TMTstop-A_1_1redlinestimulus23.png,TMT_A,1,Feedback_last,,,,,,,,,0,0,0,0,0,25,25,25,,,,,,,,,3,0,61.574563000001945,None,"['1', '2', '3']",0,"[0.07355529999767896, 0.1479644999926677, 0.2628621999901952]",61.574563000001945,None,,001,2022_Mar_30_1015,TMT_fmri,2021.2.3,143.5661545785615,
TMTstop-A_1_2.xlsx,26:52,1,['3'],3,TMTstop-A_1_2.png,TMTstop-A_1_2.png,TMTstop-A_1_2.png,TMT_A,2,26,,,,,,,,,0,1,1,1,0,0,0,0,,,,,,,,,2,0,65.70549599999504,None,"['2', '3']",1,"[0.817187799999374, 1.0392405000020517]",65.70549599999504,None,,001,2022_Mar_30_1015,TMT_fmri,2021.2.3,143.5661545785615,
TMTstop-A_1_2.xlsx,26:52,2,['2'],2,TMTstop-A_1_2.png,TMTstop-A_1_2firstgreen.png,TMTstop-A_1_2firstred.png,TMT_A,2,27,,,,,,,,,0,1,1,1,0,1,1,1,,,,,,,,,2,0,66.83779839999625,None,"['1', '2']",1,"[0.09896289999596775, 0.21179889999621082]",66.83779839999625,None,,001,2022_Mar_30_1015,TMT_fmri,2021.2.3,143.5661545785615,
TMTstop-A_1_2.xlsx,26:52,3,['3'],3,TMTstop-A_1_2linestimulus0.png,TMTstop-A_1_2greenlinestimulus0.png,TMTstop-A_1_2redlinestimulus0.png,TMT_A,2,28,,,,,,,,,0,1,1,1,0,2,2,2,,,,,,,,,1,1,67.12942080000357,None,['3'],1,[0.03560399998968933],67.12942080000357,None,,001,2022_Mar_30_1015,TMT_fmri,2021.2.3,143.5661545785615,
TMTstop-A_1_2.xlsx,26:52,4,['1'],1,TMTstop-A_1_2linestimulus1.png,TMTstop-A_1_2greenlinestimulus1.png,TMTstop-A_1_2redlinestimulus1.png,TMT_A,2,29,,,,,,,,,0,1,1,1,0,3,3,3,,,,,,,,,1,1,67.24057219999668,None,['1'],1,[0.08419129998947028],67.24057219999668,None,,001,2022_Mar_30_1015,TMT_fmri,2021.2.3,143.5661545785615,
TMTstop-A_1_2.xlsx,26:52,5,['2'],2,TMTstop-A_1_2linestimulus2.png,TMTstop-A_1_2greenlinestimulus2.png,TMTstop-A_1_2redlinestimulus2.png,TMT_A,2,30,,,,,,,,,0,1,1,1,0,4,4,4,,,,,,,,,1,1,67.4004733000038,None,['2'],1,[0.021814000006997958],67.4004733000038,None,,001,2022_Mar_30_1015,TMT_fmri,2021.2.3,143.5661545785615,
TMTstop-A_1_2.xlsx,26:52,6,['3'],3,TMTstop-A_1_2linestimulus3.png,TMTstop-A_1_2greenlinestimulus3.png,TMTstop-A_1_2redlinestimulus3.png,TMT_A,2,31,,,,,,,,,0,1,1,1,0,5,5,5,,,,,,,,,1,1,67.4976192000031,None,['3'],1,[0.055201800001668744],67.4976192000031,None,,001,2022_Mar_30_1015,TMT_fmri,2021.2.3,143.5661545785615,
TMTstop-A_1_2.xlsx,26:52,7,['2'],2,TMTstop-A_1_2linestimulus4.png,TMTstop-A_1_2greenlinestimulus4.png,TMTstop-A_1_2redlinestimulus4.png,TMT_A,2,32,,,,,,,,,0,1,1,1,0,6,6,6,,,,,,,,,2,0,67.62943020000239,None,"['1', '2']",1,"[0.07023380001191981, 0.18010790001426358]",67.62943020000239,None,,001,2022_Mar_30_1015,TMT_fmri,2021.2.3,143.5661545785615,
TMTstop-A_1_2.xlsx,26:52,8,['1'],1,TMTstop-A_1_2linestimulus5.png,TMTstop-A_1_2greenlinestimulus5.png,TMTstop-A_1_2redlinestimulus5.png,TMT_A,2,33,,,,,,,,,0,1,1,1,0,7,7,7,,,,,,,,,2,0,67.89324920000217,None,"['3', '1']",1,"[-0.0030669999978272244, 0.7859071000129916]",67.89324920000217,None,,001,2022_Mar_30_1015,TMT_fmri,2021.2.3,143.5661545785615,
TMTstop-A_1_2.xlsx,26:52,9,['2'],2,TMTstop-A_1_2linestimulus6.png,TMTstop-A_1_2greenlinestimulus6.png,TMTstop-A_1_2redlinestimulus6.png,TMT_A,2,34,,,,,,,,,0,1,1,1,0,8,8,8,,,,,,,,,1,1,68.75448699999833,None,['2'],1,[0.1035247999971034],68.75448699999833,None,,001,2022_Mar_30_1015,TMT_fmri,2021.2.3,143.5661545785615,
TMTstop-A_1_2.xlsx,26:52,10,['3'],3,TMTstop-A_1_2linestimulus7.png,TMTstop-A_1_2greenlinestimulus7.png,TMTstop-A_1_2redlinestimulus7.png,TMT_A,2,35,,,,,,,,,0,1,1,1,0,9,9,9,,,,,,,,,1,1,68.92809689999558,None,['3'],1,[-0.037264699989464134],68.92809689999558,None,,001,2022_Mar_30_1015,TMT_fmri,2021.2.3,143.5661545785615,
TMTstop-A_1_2.xlsx,26:52,11,['1'],1,TMTstop-A_1_2linestimulus8.png,TMTstop-A_1_2greenlinestimulus8.png,TMTstop-A_1_2redlinestimulus8.png,TMT_A,2,36,,,,,,,,,0,1,1,1,0,10,10,10,,,,,,,,,1,1,68.99760089999472,None,['1'],1,[0.060593299989704974],68.99760089999472,None,,001,2022_Mar_30_1015,TMT_fmri,2021.2.3,143.5661545785615,
TMTstop-A_1_2.xlsx,26:52,12,['2'],2,TMTstop-A_1_2linestimulus9.png,TMTstop-A_1_2greenlinestimulus9.png,TMTstop-A_1_2redlinestimulus9.png,TMT_A,2,37,,,,,,,,,0,1,1,1,0,11,11,11,,,,,,,,,1,1,69.13650930000586,None,['2'],1,[0.009278099998482503],69.13650930000586,None,,001,2022_Mar_30_1015,TMT_fmri,2021.2.3,143.5661545785615,
TMTstop-A_1_2.xlsx,26:52,13,['3'],3,TMTstop-A_1_2linestimulus10.png,TMTstop-A_1_2greenlinestimulus10.png,TMTstop-A_1_2redlinestimulus10.png,TMT_A,2,38,,,,,,,,,0,1,1,1,0,12,12,12,,,,,,,,,1,1,69.2195509000012,None,['3'],1,[0.02739480001037009],69.2195509000012,None,,001,2022_Mar_30_1015,TMT_fmri,2021.2.3,143.5661545785615,
TMTstop-A_1_2.xlsx,26:52,14,['1'],1,TMTstop-A_1_2linestimulus11.png,TMTstop-A_1_2greenlinestimulus11.png,TMTstop-A_1_2redlinestimulus11.png,TMT_A,2,39,,,,,,,,,0,1,1,1,0,13,13,13,,,,,,,,,1,1,69.31667289999314,None,['1'],1,[0.1017411000066204],69.31667289999314,None,,001,2022_Mar_30_1015,TMT_fmri,2021.2.3,143.5661545785615,
TMTstop-A_1_2.xlsx,26:52,15,['3'],3,TMTstop-A_1_2linestimulus12.png,TMTstop-A_1_2greenlinestimulus12.png,TMTstop-A_1_2redlinestimulus12.png,TMT_A,2,40,,,,,,,,,0,1,1,1,0,14,14,14,,,,,,,,,2,0,69.49767620000057,None,"['2', '3']",1,"[-0.019348199988598935, 0.10330390000308398]",69.49767620000057,None,,001,2022_Mar_30_1015,TMT_fmri,2021.2.3,143.5661545785615,
TMTstop-A_1_2.xlsx,26:52,16,['1'],1,TMTstop-A_1_2linestimulus13.png,TMTstop-A_1_2greenlinestimulus13.png,TMTstop-A_1_2redlinestimulus13.png,TMT_A,2,41,,,,,,,,,0,1,1,1,0,15,15,15,,,,,,,,,1,1,69.69192519999342,None,['1'],1,[0.08297620000666939],69.69192519999342,None,,001,2022_Mar_30_1015,TMT_fmri,2021.2.3,143.5661545785615,
TMTstop-A_1_2.xlsx,26:52,17,['2'],2,TMTstop-A_1_2linestimulus14.png,TMTstop-A_1_2greenlinestimulus14.png,TMTstop-A_1_2redlinestimulus14.png,TMT_A,2,42,,,,,,,,,0,1,1,1,0,16,16,16,,,,,,,,,1,1,69.8447570999997,None,['2'],1,[0.008541899995179847],69.8447570999997,None,,001,2022_Mar_30_1015,TMT_fmri,2021.2.3,143.5661545785615,
TMTstop-A_1_2.xlsx,26:52,18,['1'],1,TMTstop-A_1_2linestimulus15.png,TMTstop-A_1_2greenlinestimulus15.png,TMTstop-A_1_2redlinestimulus15.png,TMT_A,2,43,,,,,,,,,0,1,1,1,0,17,17,17,,,,,,,,,2,0,69.92805849999422,None,"['3', '1']",1,"[0.06752979999873787, 0.16985370000475086]",69.92805849999422,None,,001,2022_Mar_30_1015,TMT_fmri,2021.2.3,143.5661545785615,
TMTstop-A_1_2.xlsx,26:52,19,['3'],3,TMTstop-A_1_2linestimulus16.png,TMTstop-A_1_2greenlinestimulus16.png,TMTstop-A_1_2redlinestimulus16.png,TMT_A,2,44,,,,,,,,,0,1,1,1,0,18,18,18,,,,,,,,,2,0,70.19192929999554,None,"['2', '3']",1,"[0.006645300003583543, 0.13481760000286158]",70.19192929999554,None,,001,2022_Mar_30_1015,TMT_fmri,2021.2.3,143.5661545785615,
TMTstop-A_1_2.xlsx,26:52,20,['1'],1,TMTstop-A_1_2linestimulus17.png,TMTstop-A_1_2greenlinestimulus17.png,TMTstop-A_1_2redlinestimulus17.png,TMT_A,2,45,,,,,,,,,0,1,1,1,0,19,19,19,,,,,,,,,0,0,70.40027139999438,None,None,0,,70.40027139999438,None,,001,2022_Mar_30_1015,TMT_fmri,2021.2.3,143.5661545785615,
TMTstop-B_1_1.xlsx,0:26,1,['2'],2,TMTstop-B_1_1.png,TMTstop-B_1_1.png,TMTstop-B_1_1.png,TMT_B,1,1,,,,,,,,,,,,,,,,,0,0,0,0,0,0,0,0,2,0,75.01085259999672,None,"['1', '2']",1,"[1.1409432999935234, 1.20108959999925]",75.01085259999672,None,,001,2022_Mar_30_1015,TMT_fmri,2021.2.3,143.5661545785615,
TMTstop-B_1_1.xlsx,0:26,A,['1'],1,TMTstop-B_1_1.png,TMTstop-B_1_1firstgreen.png,TMTstop-B_1_1firstred.png,TMT_B,1,2,,,,,,,,,,,,,,,,,0,0,0,0,0,1,1,1,2,0,76.30284709999978,None,"['3', '1']",1,"[0.07724959999904968, 0.28197070000169333]",76.30284709999978,None,,001,2022_Mar_30_1015,TMT_fmri,2021.2.3,143.5661545785615,
TMTstop-B_1_1.xlsx,0:26,2,['2'],2,TMTstop-B_1_1linestimulus0.png,TMTstop-B_1_1greenlinestimulus0.png,TMTstop-B_1_1redlinestimulus0.png,TMT_B,1,3,,,,,,,,,,,,,,,,,0,0,0,0,0,2,2,2,1,1,76.6639206999971,None,['2'],1,[0.0003463000030023977],76.6639206999971,None,,001,2022_Mar_30_1015,TMT_fmri,2021.2.3,143.5661545785615,
TMTstop-B_1_1.xlsx,0:26,B,['1'],1,TMTstop-B_1_1linestimulus1.png,TMTstop-B_1_1greenlinestimulus1.png,TMTstop-B_1_1redlinestimulus1.png,TMT_B,1,4,,,,,,,,,,,,,,,,,0,0,0,0,0,3,3,3,2,0,76.73329000000376,None,"['3', '1']",1,"[0.04800359999353532, 0.22630009999556933]",76.73329000000376,None,,001,2022_Mar_30_1015,TMT_fmri,2021.2.3,143.5661545785615,
TMTstop-B_1_1.xlsx,0:26,3,['3'],3,TMTstop-B_1_1linestimulus2.png,TMTstop-B_1_1greenlinestimulus2.png,TMTstop-B_1_1redlinestimulus2.png,TMT_B,1,5,,,,,,,,,,,,,,,,,0,0,0,0,0,4,4,4,2,0,77.0666945999983,None,"['2', '3']",1,"[-0.04813239999930374, 0.07586359999550041]",77.0666945999983,None,,001,2022_Mar_30_1015,TMT_fmri,2021.2.3,143.5661545785615,
TMTstop-B_1_1.xlsx,0:26,C,['2'],2,TMTstop-B_1_1linestimulus3.png,TMTstop-B_1_1greenlinestimulus3.png,TMTstop-B_1_1redlinestimulus3.png,TMT_B,1,6,,,,,,,,,,,,,,,,,0,0,0,0,0,5,5,5,2,0,77.22644739999669,None,"['1', '2']",1,"[0.06214519999048207, 0.14316120000148658]",77.22644739999669,None,,001,2022_Mar_30_1015,TMT_fmri,2021.2.3,143.5661545785615,
TMTstop-B_1_1.xlsx,0:26,4,['3'],3,TMTstop-B_1_1linestimulus4.png,TMTstop-B_1_1greenlinestimulus4.png,TMTstop-B_1_1redlinestimulus4.png,TMT_B,1,7,,,,,,,,,,,,,,,,,0,0,0,0,0,6,6,6,1,1,77.44894259999273,None,['3'],1,[0.05130339998868294],77.44894259999273,None,,001,2022_Mar_30_1015,TMT_fmri,2021.2.3,143.5661545785615,
TMTstop-B_1_1.xlsx,0:26,D,['1'],1,TMTstop-B_1_1linestimulus5.png,TMTstop-B_1_1greenlinestimulus5.png,TMTstop-B_1_1redlinestimulus5.png,TMT_B,1,8,,,,,,,,,,,,,,,,,0,0,0,0,0,7,7,7,1,1,77.57369029999245,None,['1'],1,[0.05588640000496525],77.57369029999245,None,,001,2022_Mar_30_1015,TMT_fmri,2021.2.3,143.5661545785615,
TMTstop-B_1_1.xlsx,0:26,5,['2'],2,TMTstop-B_1_1linestimulus6.png,TMTstop-B_1_1greenlinestimulus6.png,TMTstop-B_1_1redlinestimulus6.png,TMT_B,1,9,,,,,,,,,,,,,,,,,0,0,0,0,0,8,8,8,1,1,77.69847180000215,None,['2'],1,[0.059958099998766556],77.69847180000215,None,,001,2022_Mar_30_1015,TMT_fmri,2021.2.3,143.5661545785615,
TMTstop-B_1_1.xlsx,0:26,E,['3'],3,TMTstop-B_1_1linestimulus7.png,TMTstop-B_1_1greenlinestimulus7.png,TMTstop-B_1_1redlinestimulus7.png,TMT_B,1,10,,,,,,,,,,,,,,,,,0,0,0,0,0,9,9,9,1,1,77.84448949999933,None,['3'],1,[0.0016627000004518777],77.84448949999933,None,,001,2022_Mar_30_1015,TMT_fmri,2021.2.3,143.5661545785615,
TMTstop-B_1_1.xlsx,0:26,6,['1'],1,TMTstop-B_1_1linestimulus8.png,TMTstop-B_1_1greenlinestimulus8.png,TMTstop-B_1_1redlinestimulus8.png,TMT_B,1,11,,,,,,,,,,,,,,,,,0,0,0,0,0,10,10,10,1,1,77.92798799999582,None,['1'],1,[0.06728669999574777],77.92798799999582,None,,001,2022_Mar_30_1015,TMT_fmri,2021.2.3,143.5661545785615,
TMTstop-B_1_1.xlsx,0:26,F,['2'],2,TMTstop-B_1_1linestimulus9.png,TMTstop-B_1_1greenlinestimulus9.png,TMTstop-B_1_1redlinestimulus9.png,TMT_B,1,12,,,,,,,,,,,,,,,,,0,0,0,0,0,11,11,11,1,1,78.06674470000144,None,['2'],1,[0.04440959999919869],78.06674470000144,None,,001,2022_Mar_30_1015,TMT_fmri,2021.2.3,143.5661545785615,
TMTstop-B_1_1.xlsx,0:26,7,['1'],1,TMTstop-B_1_1linestimulus10.png,TMTstop-B_1_1greenlinestimulus10.png,TMTstop-B_1_1redlinestimulus10.png,TMT_B,1,13,,,,,,,,,,,,,,,,,0,0,0,0,0,12,12,12,2,0,78.19944300000498,None,"['3', '1']",1,"[0.024914100009482354, 0.23459020000882447]",78.19944300000498,None,,001,2022_Mar_30_1015,TMT_fmri,2021.2.3,143.5661545785615,
TMTstop-B_1_1.xlsx,0:26,G,['2'],2,TMTstop-B_1_1linestimulus11.png,TMTstop-B_1_1greenlinestimulus11.png,TMTstop-B_1_1redlinestimulus11.png,TMT_B,1,14,,,,,,,,,,,,,,,,,0,0,0,0,0,13,13,13,1,1,78.50422129999788,None,['2'],1,[0.03860260000510607],78.50422129999788,None,,001,2022_Mar_30_1015,TMT_fmri,2021.2.3,143.5661545785615,
TMTstop-B_1_1.xlsx,0:26,8,['1'],1,TMTstop-B_1_1linestimulus12.png,TMTstop-B_1_1greenlinestimulus12.png,TMTstop-B_1_1redlinestimulus12.png,TMT_B,1,15,,,,,,,,,,,,,,,,,0,0,0,0,0,14,14,14,2,0,78.62217489999603,None,"['3', '1']",1,"[0.012612599995918572, 0.21708830000716262]",78.62217489999603,None,,001,2022_Mar_30_1015,TMT_fmri,2021.2.3,143.5661545785615,
TMTstop-B_1_1.xlsx,0:26,H,['2'],2,TMTstop-B_1_1linestimulus13.png,TMTstop-B_1_1greenlinestimulus13.png,TMTstop-B_1_1redlinestimulus13.png,TMT_B,1,16,,,,,,,,,,,,,,,,,0,0,0,0,0,15,15,15,1,1,78.91400229999272,None,['2'],1,[0.0791464000067208],78.91400229999272,None,,001,2022_Mar_30_1015,TMT_fmri,2021.2.3,143.5661545785615,
TMTstop-B_1_1.xlsx,0:26,9,['3'],3,TMTstop-B_1_1linestimulus14.png,TMTstop-B_1_1greenlinestimulus14.png,TMTstop-B_1_1redlinestimulus14.png,TMT_B,1,17,,,,,,,,,,,,,,,,,0,0,0,0,0,16,16,16,1,1,79.07365639999625,None,['3'],1,[-0.019039999999222346],79.07365639999625,None,,001,2022_Mar_30_1015,TMT_fmri,2021.2.3,143.5661545785615,
TMTstop-B_1_1.xlsx,0:26,I,['1'],1,TMTstop-B_1_1linestimulus15.png,TMTstop-B_1_1greenlinestimulus15.png,TMTstop-B_1_1redlinestimulus15.png,TMT_B,1,18,,,,,,,,,,,,,,,,,0,0,0,0,0,17,17,17,1,1,79.1502055000019,None,['1'],1,[0.05616870000085328],79.1502055000019,None,,001,2022_Mar_30_1015,TMT_fmri,2021.2.3,143.5661545785615,
TMTstop-B_1_1.xlsx,0:26,10,['2'],2,TMTstop-B_1_1linestimulus16.png,TMTstop-B_1_1greenlinestimulus16.png,TMTstop-B_1_1redlinestimulus16.png,TMT_B,1,19,,,,,,,,,,,,,,,,,0,0,0,0,0,18,18,18,1,1,79.28915729999426,None,['2'],1,[0.030609499997808598],79.28915729999426,None,,001,2022_Mar_30_1015,TMT_fmri,2021.2.3,143.5661545785615,
TMTstop-B_1_1.xlsx,0:26,J,['1'],1,TMTstop-B_1_1linestimulus17.png,TMTstop-B_1_1greenlinestimulus17.png,TMTstop-B_1_1redlinestimulus17.png,TMT_B,1,20,,,,,,,,,,,,,,,,,0,0,0,0,0,19,19,19,2,0,79.40020910000021,None,"['3', '1']",1,"[0.006525199991301633, 0.14373979999800213]",79.40020910000021,None,,001,2022_Mar_30_1015,TMT_fmri,2021.2.3,143.5661545785615,
TMTstop-B_1_1.xlsx,0:26,11,['2'],2,TMTstop-B_1_1linestimulus18.png,TMTstop-B_1_1greenlinestimulus18.png,TMTstop-B_1_1redlinestimulus18.png,TMT_B,1,21,,,,,,,,,,,,,,,,,0,0,0,0,0,20,20,20,1,1,79.65657890000148,None,['2'],1,[-0.040742500001215376],79.65657890000148,None,,001,2022_Mar_30_1015,TMT_fmri,2021.2.3,143.5661545785615,
TMTstop-B_1_1.xlsx,0:26,K,['3'],3,TMTstop-B_1_1linestimulus19.png,TMTstop-B_1_1greenlinestimulus19.png,TMTstop-B_1_1redlinestimulus19.png,TMT_B,1,22,,,,,,,,,,,,,,,,,0,0,0,0,0,21,21,21,1,1,79.72639949999575,None,['3'],1,[-0.01254779999726452],79.72639949999575,None,,001,2022_Mar_30_1015,TMT_fmri,2021.2.3,143.5661545785615,
TMTstop-B_1_1.xlsx,0:26,12,['1'],1,TMTstop-B_1_1linestimulus20.png,TMTstop-B_1_1greenlinestimulus20.png,TMTstop-B_1_1redlinestimulus20.png,TMT_B,1,23,,,,,,,,,,,,,,,,,0,0,0,0,0,22,22,22,1,1,79.8025903999951,None,['1'],1,[0.04751329999999143],79.8025903999951,None,,001,2022_Mar_30_1015,TMT_fmri,2021.2.3,143.5661545785615,
TMTstop-B_1_1.xlsx,0:26,L,['3'],3,TMTstop-B_1_1linestimulus21.png,TMTstop-B_1_1greenlinestimulus21.png,TMTstop-B_1_1redlinestimulus21.png,TMT_B,1,24,,,,,,,,,,,,,,,,,0,0,0,0,0,23,23,23,2,0,79.93474569999671,None,"['2', '3']",1,"[0.0740215999976499, 0.11499170000024606]",79.93474569999671,None,,001,2022_Mar_30_1015,TMT_fmri,2021.2.3,143.5661545785615,
TMTstop-B_1_1.xlsx,0:26,13,['2'],2,TMTstop-B_1_1linestimulus22.png,TMTstop-B_1_1greenlinestimulus22.png,TMTstop-B_1_1redlinestimulus22.png,TMT_B,1,25,,,,,,,,,,,,,,,,,0,0,0,0,0,24,24,24,2,0,80.12919120000151,None,"['1', '2']",1,"[0.029992100011440925, 0.1461664000089513]",80.12919120000151,None,,001,2022_Mar_30_1015,TMT_fmri,2021.2.3,143.5661545785615,
TMTstop-B_1_1.xlsx,0:26,None,None,None,TMTstop-B_1_1linestimulus23.png,TMTstop-B_1_1greenlinestimulus23.png,TMTstop-B_1_1redlinestimulus23.png,TMT_B,1,Feedback_last,,,,,,,,,,,,,,,,,0,0,0,0,0,25,25,25,9,0,80.37238369999977,None,"['3', '1', '2', '3', '1', '2', '3', '1', '2']",0,"[0.025968400004785508, 0.1286141000018688, 0.2212638000055449, 0.32348009999259375, 0.4681111999962013, 0.5359553000016604, 0.6831482999987202, 0.8190087999973912, 0.8781114000012167]",80.37238369999977,None,,001,2022_Mar_30_1015,TMT_fmri,2021.2.3,143.5661545785615,
TMTstop-B_1_2.xlsx,26:52,1,['2'],2,TMTstop-B_1_2.png,TMTstop-B_1_2.png,TMTstop-B_1_2.png,TMT_B,2,26,,,,,,,,,,,,,,,,,0,1,1,1,0,0,0,0,3,0,84.46188069999334,None,"['3', '1', '2']",1,"[-3.0463144999957876, 0.9062369000021135, 0.9854556000063894]",84.46188069999334,None,,001,2022_Mar_30_1015,TMT_fmri,2021.2.3,143.5661545785615,
TMTstop-B_1_2.xlsx,26:52,A,['3'],3,TMTstop-B_1_2.png,TMTstop-B_1_2firstgreen.png,TMTstop-B_1_2firstred.png,TMT_B,2,27,,,,,,,,,,,,,,,,,0,1,1,1,0,1,1,1,1,1,85.51793499999621,None,['3'],1,[0.05669689999194816],85.51793499999621,None,,001,2022_Mar_30_1015,TMT_fmri,2021.2.3,143.5661545785615,
TMTstop-B_1_2.xlsx,26:52,2,['1'],1,TMTstop-B_1_2linestimulus0.png,TMTstop-B_1_2greenlinestimulus0.png,TMTstop-B_1_2redlinestimulus0.png,TMT_B,2,28,,,,,,,,,,,,,,,,,0,1,1,1,0,2,2,2,1,1,85.65698509999493,None,['1'],1,[0.08528470000601374],85.65698509999493,None,,001,2022_Mar_30_1015,TMT_fmri,2021.2.3,143.5661545785615,
TMTstop-B_1_2.xlsx,26:52,B,['2'],2,TMTstop-B_1_2linestimulus1.png,TMTstop-B_1_2greenlinestimulus1.png,TMTstop-B_1_2redlinestimulus1.png,TMT_B,2,29,,,,,,,,,,,,,,,,,0,1,1,1,0,3,3,3,1,1,85.81654030000209,None,['2'],1,[-0.027941299995291047],85.81654030000209,None,,001,2022_Mar_30_1015,TMT_fmri,2021.2.3,143.5661545785615,
TMTstop-B_1_2.xlsx,26:52,3,['3'],3,TMTstop-B_1_2linestimulus2.png,TMTstop-B_1_2greenlinestimulus2.png,TMTstop-B_1_2redlinestimulus2.png,TMT_B,2,30,,,,,,,,,,,,,,,,,0,1,1,1,0,4,4,4,1,1,85.88617030000023,None,['3'],1,[0.05321670000557788],85.88617030000023,None,,001,2022_Mar_30_1015,TMT_fmri,2021.2.3,143.5661545785615,
TMTstop-B_1_2.xlsx,26:52,C,['1'],1,TMTstop-B_1_2linestimulus3.png,TMTstop-B_1_2greenlinestimulus3.png,TMTstop-B_1_2redlinestimulus3.png,TMT_B,2,31,,,,,,,,,,,,,,,,,0,1,1,1,0,5,5,5,1,1,86.01791579999554,None,['1'],1,[0.0859167000016896],86.01791579999554,None,,001,2022_Mar_30_1015,TMT_fmri,2021.2.3,143.5661545785615,
TMTstop-B_1_2.xlsx,26:52,4,['2'],2,TMTstop-B_1_2linestimulus4.png,TMTstop-B_1_2greenlinestimulus4.png,TMTstop-B_1_2redlinestimulus4.png,TMT_B,2,32,,,,,,,,,,,,,,,,,0,1,1,1,0,6,6,6,1,1,86.18466210000042,None,['2'],1,[0.11285159998806193],86.18466210000042,None,,001,2022_Mar_30_1015,TMT_fmri,2021.2.3,143.5661545785615,
TMTstop-B_1_2.xlsx,26:52,D,['3'],3,TMTstop-B_1_2linestimulus5.png,TMTstop-B_1_2greenlinestimulus5.png,TMTstop-B_1_2redlinestimulus5.png,TMT_B,2,33,,,,,,,,,,,,,,,,,0,1,1,1,0,7,7,7,1,1,86.37913200000185,None,['3'],1,[0.09855270000116434],86.37913200000185,None,,001,2022_Mar_30_1015,TMT_fmri,2021.2.3,143.5661545785615,
TMTstop-B_1_2.xlsx,26:52,5,['2'],2,TMTstop-B_1_2linestimulus6.png,TMTstop-B_1_2greenlinestimulus6.png,TMTstop-B_1_2redlinestimulus6.png,TMT_B,2,34,,,,,,,,,,,,,,,,,0,1,1,1,0,8,8,8,2,0,86.56666339999356,None,"['1', '2']",1,"[0.25236450000375044, 0.37782789999619126]",86.56666339999356,None,,001,2022_Mar_30_1015,TMT_fmri,2021.2.3,143.5661545785615,
TMTstop-B_1_2.xlsx,26:52,E,['1'],1,TMTstop-B_1_2linestimulus7.png,TMTstop-B_1_2greenlinestimulus7.png,TMTstop-B_1_2redlinestimulus7.png,TMT_B,2,35,,,,,,,,,,,,,,,,,0,1,1,1,0,9,9,9,2,0,87.03182350000134,None,"['3', '1']",1,"[-0.00020700000459328294, 0.17863009999564383]",87.03182350000134,None,,001,2022_Mar_30_1015,TMT_fmri,2021.2.3,143.5661545785615,
TMTstop-B_1_2.xlsx,26:52,6,['3'],3,TMTstop-B_1_2linestimulus8.png,TMTstop-B_1_2greenlinestimulus8.png,TMTstop-B_1_2redlinestimulus8.png,TMT_B,2,36,,,,,,,,,,,,,,,,,0,1,1,1,0,10,10,10,2,0,87.31634540000232,None,"['2', '3']",1,"[-0.018646199998329394, 0.10549309999623802]",87.31634540000232,None,,001,2022_Mar_30_1015,TMT_fmri,2021.2.3,143.5661545785615,
TMTstop-B_1_2.xlsx,26:52,F,['1'],1,TMTstop-B_1_2linestimulus9.png,TMTstop-B_1_2greenlinestimulus9.png,TMTstop-B_1_2redlinestimulus9.png,TMT_B,2,37,,,,,,,,,,,,,,,,,0,1,1,1,0,11,11,11,1,1,87.51099819999945,None,['1'],1,[0.05542389999027364],87.51099819999945,None,,001,2022_Mar_30_1015,TMT_fmri,2021.2.3,143.5661545785615,
TMTstop-B_1_2.xlsx,26:52,7,['3'],3,TMTstop-B_1_2linestimulus10.png,TMTstop-B_1_2greenlinestimulus10.png,TMTstop-B_1_2redlinestimulus10.png,TMT_B,2,38,,,,,,,,,,,,,,,,,0,1,1,1,0,12,12,12,2,0,87.64303389999259,None,"['2', '3']",1,"[0.01455520000308752, 0.1159378000011202]",87.64303389999259,None,,001,2022_Mar_30_1015,TMT_fmri,2021.2.3,143.5661545785615,
TMTstop-B_1_2.xlsx,26:52,G,['2'],2,TMTstop-B_1_2linestimulus11.png,TMTstop-B_1_2greenlinestimulus11.png,TMTstop-B_1_2redlinestimulus11.png,TMT_B,2,39,,,,,,,,,,,,,,,,,0,1,1,1,0,13,13,13,2,0,87.85131410000031,None,"['1', '2']",1,"[0.04839429999992717, 0.1355941000074381]",87.85131410000031,None,,001,2022_Mar_30_1015,TMT_fmri,2021.2.3,143.5661545785615,
TMTstop-B_1_2.xlsx,26:52,8,['3'],3,TMTstop-B_1_2linestimulus12.png,TMTstop-B_1_2greenlinestimulus12.png,TMTstop-B_1_2redlinestimulus12.png,TMT_B,2,40,,,,,,,,,,,,,,,,,0,1,1,1,0,14,14,14,1,1,88.06651099999726,None,['3'],1,[0.05132420000154525],88.06651099999726,None,,001,2022_Mar_30_1015,TMT_fmri,2021.2.3,143.5661545785615,
TMTstop-B_1_2.xlsx,26:52,H,['2'],2,TMTstop-B_1_2linestimulus13.png,TMTstop-B_1_2greenlinestimulus13.png,TMTstop-B_1_2redlinestimulus13.png,TMT_B,2,41,,,,,,,,,,,,,,,,,0,1,1,1,0,15,15,15,2,0,88.20557239999471,None,"['1', '2']",1,"[-0.0013821000029565766, 0.1185735999897588]",88.20557239999471,None,,001,2022_Mar_30_1015,TMT_fmri,2021.2.3,143.5661545785615,
TMTstop-B_1_2.xlsx,26:52,9,['3'],3,TMTstop-B_1_2linestimulus14.png,TMTstop-B_1_2greenlinestimulus14.png,TMTstop-B_1_2redlinestimulus14.png,TMT_B,2,42,,,,,,,,,,,,,,,,,0,1,1,1,0,16,16,16,1,1,88.4067544999998,None,['3'],1,[0.004640899991500191],88.4067544999998,None,,001,2022_Mar_30_1015,TMT_fmri,2021.2.3,143.5661545785615,
TMTstop-B_1_2.xlsx,26:52,I,['1'],1,TMTstop-B_1_2linestimulus15.png,TMTstop-B_1_2greenlinestimulus15.png,TMTstop-B_1_2redlinestimulus15.png,TMT_B,2,43,,,,,,,,,,,,,,,,,0,1,1,1,0,17,17,17,1,1,88.48998299999221,None,['1'],1,[0.09865709999576211],88.48998299999221,None,,001,2022_Mar_30_1015,TMT_fmri,2021.2.3,143.5661545785615,
TMTstop-B_1_2.xlsx,26:52,10,['2'],2,TMTstop-B_1_2linestimulus16.png,TMTstop-B_1_2greenlinestimulus16.png,TMTstop-B_1_2redlinestimulus16.png,TMT_B,2,44,,,,,,,,,,,,,,,,,0,1,1,1,0,18,18,18,1,1,88.67052719999629,None,['2'],1,[0.0009590999979991466],88.67052719999629,None,,001,2022_Mar_30_1015,TMT_fmri,2021.2.3,143.5661545785615,
TMTstop-B_1_2.xlsx,26:52,J,['3'],3,TMTstop-B_1_2linestimulus17.png,TMTstop-B_1_2greenlinestimulus17.png,TMTstop-B_1_2redlinestimulus17.png,TMT_B,2,45,,,,,,,,,,,,,,,,,0,1,1,1,0,19,19,19,1,1,88.73997880000388,None,['3'],1,[0.049073599991970696],88.73997880000388,None,,001,2022_Mar_30_1015,TMT_fmri,2021.2.3,143.5661545785615,
TMTstop-B_1_2.xlsx,26:52,11,['2'],2,TMTstop-B_1_2linestimulus18.png,TMTstop-B_1_2greenlinestimulus18.png,TMTstop-B_1_2redlinestimulus18.png,TMT_B,2,46,,,,,,,,,,,,,,,,,0,1,1,1,0,20,20,20,2,0,88.85816439999326,None,"['1', '2']",1,"[0.053853500008699484, 0.14577890001237392]",88.85816439999326,None,,001,2022_Mar_30_1015,TMT_fmri,2021.2.3,143.5661545785615,
TMTstop-B_1_2.xlsx,26:52,K,['3'],3,TMTstop-B_1_2linestimulus19.png,TMTstop-B_1_2greenlinestimulus19.png,TMTstop-B_1_2redlinestimulus19.png,TMT_B,2,47,,,,,,,,,,,,,,,,,0,1,1,1,0,21,21,21,1,1,89.11511129999417,None,['3'],1,[0.03132039999763947],89.11511129999417,None,,001,2022_Mar_30_1015,TMT_fmri,2021.2.3,143.5661545785615,
TMTstop-B_1_2.xlsx,26:52,12,['1'],1,TMTstop-B_1_2linestimulus20.png,TMTstop-B_1_2greenlinestimulus20.png,TMTstop-B_1_2redlinestimulus20.png,TMT_B,2,48,,,,,,,,,,,,,,,,,0,1,1,1,0,22,22,22,1,1,89.22613779999665,None,['1'],1,[0.0650681999977678],89.22613779999665,None,,001,2022_Mar_30_1015,TMT_fmri,2021.2.3,143.5661545785615,
TMTstop-B_1_2.xlsx,26:52,L,['2'],2,TMTstop-B_1_2linestimulus21.png,TMTstop-B_1_2greenlinestimulus21.png,TMTstop-B_1_2redlinestimulus21.png,TMT_B,2,49,,,,,,,,,,,,,,,,,0,1,1,1,0,23,23,23,1,1,89.37222999999358,None,['2'],1,[0.022930400009499863],89.37222999999358,None,,001,2022_Mar_30_1015,TMT_fmri,2021.2.3,143.5661545785615,
TMTstop-B_1_2.xlsx,26:52,13,['3'],3,TMTstop-B_1_2linestimulus22.png,TMTstop-B_1_2greenlinestimulus22.png,TMTstop-B_1_2redlinestimulus22.png,TMT_B,2,50,,,,,,,,,,,,,,,,,0,1,1,1,0,24,24,24,1,1,89.47620770000503,None,['3'],1,[0.037963699985994026],89.47620770000503,None,,001,2022_Mar_30_1015,TMT_fmri,2021.2.3,143.5661545785615,
TMTstop-B_1_2.xlsx,26:52,None,None,None,TMTstop-B_1_2linestimulus23.png,TMTstop-B_1_2greenlinestimulus23.png,TMTstop-B_1_2redlinestimulus23.png,TMT_B,2,Feedback_last,,,,,,,,,,,,,,,,,0,1,1,1,0,25,25,25,3,0,89.58735970000271,None,"['1', '2', '3']",0,"[0.08027629999560304, 0.12764239999523852, 0.294160199991893]",89.58735970000271,None,,001,2022_Mar_30_1015,TMT_fmri,2021.2.3,143.5661545785615,
