NumberLetter,corrAns,Correct,StimFile,Correct_StimFile,False_StimFile,Version,Paper,TrialNumber_Version,Round,Block,TrialNumber_total,n,Stim.started_mean,Stim.started_raw,Stim.started_std,Stim.stopped_raw,key_resp_2.corr_mean,key_resp_2.corr_raw,key_resp_2.corr_std,key_resp_2.keys_raw,key_resp_2.rt_raw,key_resp_2.started_mean,key_resp_2.started_raw,key_resp_2.started_std,key_resp_2.stopped_raw,order
1,['3'],3,Images/TMTstop-B_1_4.png,Images/TMTstop-B_1_4.png,Images/TMTstop-B_1_4.png,TMT_B,B4,76,8.0,8.0,676,1.0,554.1259765625,554.1259765625,0.0,,1.0,1.0,0.0,1,2,3,0.6732750000082888,0.7373662000172772,0.8222961000283249,554.1259765625,554.1259765625,0.0,,0.0
A,['2'],2,Images/TMTstop-B_1_4.png,Images/TMTstop-B_1_4firstgreen.png,Images/TMTstop-B_1_4firstred.png,TMT_B,B4,77,None,8.0,677,1.0,555.0059814453125,555.0059814453125,0.0,,1.0,1.0,0.0,1,2,0.1294626000453718,0.1705729000386782,555.0059814453125,555.0059814453125,0.0,,1.0
2,['1'],1,Images/TMTstop-B_1_4linestimulus0.png,Images/TMTstop-B_1_4greenlinestimulus0.png,Images/TMTstop-B_1_4redlinestimulus0.png,TMT_B,B4,78,None,8.0,678,1.0,555.2471923828125,555.2471923828125,0.0,,1.0,1.0,0.0,3,1,0.01320990000385791,0.2040944999898784,555.2471923828125,555.2471923828125,0.0,,2.0
B,['2'],2,Images/TMTstop-B_1_4linestimulus1.png,Images/TMTstop-B_1_4greenlinestimulus1.png,Images/TMTstop-B_1_4redlinestimulus1.png,TMT_B,B4,79,None,8.0,679,1.0,555.5379028320312,555.5379028320312,0.0,,1.0,1.0,0.0,2,1.4983678999706171,555.5379028320312,555.5379028320312,0.0,,3.0
3,['3'],3,Images/TMTstop-B_1_4linestimulus2.png,Images/TMTstop-B_1_4greenlinestimulus2.png,Images/TMTstop-B_1_4redlinestimulus2.png,TMT_B,B4,80,None,8.0,680,1.0,557.0975341796875,557.0975341796875,0.0,,1.0,1.0,0.0,3,1.8428242999943905,557.0975341796875,557.0975341796875,0.0,,4.0
C,['1'],1,Images/TMTstop-B_1_4linestimulus3.png,Images/TMTstop-B_1_4greenlinestimulus3.png,Images/TMTstop-B_1_4redlinestimulus3.png,TMT_B,B4,81,None,8.0,681,1.0,558.989501953125,558.989501953125,0.0,,1.0,1.0,0.0,1,0.9027000999776646,558.989501953125,558.989501953125,0.0,,5.0
4,['3'],3,Images/TMTstop-B_1_4linestimulus4.png,Images/TMTstop-B_1_4greenlinestimulus4.png,Images/TMTstop-B_1_4redlinestimulus4.png,TMT_B,B4,82,None,8.0,682,1.0,559.9492797851562,559.9492797851562,0.0,,1.0,1.0,0.0,3,0.48332889995072037,559.9492797851562,559.9492797851562,0.0,,6.0
D,['2'],2,Images/TMTstop-B_1_4linestimulus5.png,Images/TMTstop-B_1_4greenlinestimulus5.png,Images/TMTstop-B_1_4redlinestimulus5.png,TMT_B,B4,83,None,8.0,683,1.0,560.4906005859375,560.4906005859375,0.0,,1.0,1.0,0.0,2,0.6856868999893777,560.4906005859375,560.4906005859375,0.0,,7.0
5,['1'],1,Images/TMTstop-B_1_4linestimulus6.png,Images/TMTstop-B_1_4greenlinestimulus6.png,Images/TMTstop-B_1_4redlinestimulus6.png,TMT_B,B4,84,None,8.0,684,1.0,561.2330932617188,561.2330932617188,0.0,,1.0,1.0,0.0,1,0.6388460000162013,561.2330932617188,561.2330932617188,0.0,,8.0
E,['2'],2,Images/TMTstop-B_1_4linestimulus7.png,Images/TMTstop-B_1_4greenlinestimulus7.png,Images/TMTstop-B_1_4redlinestimulus7.png,TMT_B,B4,85,None,8.0,685,1.0,561.9412231445312,561.9412231445312,0.0,,1.0,1.0,0.0,2,0.6857587000122294,561.9412231445312,561.9412231445312,0.0,,9.0
6,['1'],1,Images/TMTstop-B_1_4linestimulus8.png,Images/TMTstop-B_1_4greenlinestimulus8.png,Images/TMTstop-B_1_4redlinestimulus8.png,TMT_B,B4,86,None,8.0,686,1.0,562.7003173828125,562.7003173828125,0.0,,1.0,1.0,0.0,1,1.8012902999762446,562.7003173828125,562.7003173828125,0.0,,10.0
F,['2'],2,Images/TMTstop-B_1_4linestimulus9.png,Images/TMTstop-B_1_4greenlinestimulus9.png,Images/TMTstop-B_1_4redlinestimulus9.png,TMT_B,B4,87,None,8.0,687,1.0,564.5601196289062,564.5601196289062,0.0,,1.0,1.0,0.0,2,1.3230809000087902,564.5601196289062,564.5601196289062,0.0,,11.0
7,['3'],3,Images/TMTstop-B_1_4linestimulus10.png,Images/TMTstop-B_1_4greenlinestimulus10.png,Images/TMTstop-B_1_4redlinestimulus10.png,TMT_B,B4,88,None,8.0,688,1.0,565.9566650390625,565.9566650390625,0.0,,1.0,1.0,0.0,3,0.6406961000175215,565.9566650390625,565.9566650390625,0.0,,12.0
G,['2'],2,Images/TMTstop-B_1_4linestimulus11.png,Images/TMTstop-B_1_4greenlinestimulus11.png,Images/TMTstop-B_1_4redlinestimulus11.png,TMT_B,B4,89,None,8.0,689,1.0,566.6646728515625,566.6646728515625,0.0,,1.0,1.0,0.0,2,1.7492672000080347,566.6646728515625,566.6646728515625,0.0,,13.0
8,['3'],3,Images/TMTstop-B_1_4linestimulus12.png,Images/TMTstop-B_1_4greenlinestimulus12.png,Images/TMTstop-B_1_4redlinestimulus12.png,TMT_B,B4,90,None,8.0,690,1.0,568.4750366210938,568.4750366210938,0.0,,1.0,1.0,0.0,3,0.6871472999919206,568.4750366210938,568.4750366210938,0.0,,14.0
H,['2'],2,Images/TMTstop-B_1_4linestimulus13.png,Images/TMTstop-B_1_4greenlinestimulus13.png,Images/TMTstop-B_1_4redlinestimulus13.png,TMT_B,B4,91,None,8.0,691,1.0,569.2337036132812,569.2337036132812,0.0,,1.0,1.0,0.0,2,0.3777269999845885,569.2337036132812,569.2337036132812,0.0,,15.0
9,['1'],1,Images/TMTstop-B_1_4linestimulus14.png,Images/TMTstop-B_1_4greenlinestimulus14.png,Images/TMTstop-B_1_4redlinestimulus14.png,TMT_B,B4,92,None,8.0,692,1.0,569.6752319335938,569.6752319335938,0.0,,1.0,1.0,0.0,1,0.7711449999478646,569.6752319335938,569.6752319335938,0.0,,16.0
I,['3'],3,Images/TMTstop-B_1_4linestimulus15.png,Images/TMTstop-B_1_4greenlinestimulus15.png,Images/TMTstop-B_1_4redlinestimulus15.png,TMT_B,B4,93,None,8.0,693,1.0,570.5042114257812,570.5042114257812,0.0,,1.0,1.0,0.0,3,2.227153499959968,570.5042114257812,570.5042114257812,0.0,,17.0
10,['2'],2,Images/TMTstop-B_1_4linestimulus16.png,Images/TMTstop-B_1_4greenlinestimulus16.png,Images/TMTstop-B_1_4redlinestimulus16.png,TMT_B,B4,94,None,8.0,694,1.0,572.798095703125,572.798095703125,0.0,,1.0,1.0,0.0,2,0.7573742999811657,572.798095703125,572.798095703125,0.0,,18.0
J,['3'],3,Images/TMTstop-B_1_4linestimulus17.png,Images/TMTstop-B_1_4greenlinestimulus17.png,Images/TMTstop-B_1_4redlinestimulus17.png,TMT_B,B4,95,None,8.0,695,1.0,573.623291015625,573.623291015625,0.0,,1.0,1.0,0.0,3,0.015611100010573864,573.623291015625,573.623291015625,0.0,,19.0
11,['1'],1,Images/TMTstop-B_1_4linestimulus18.png,Images/TMTstop-B_1_4greenlinestimulus18.png,Images/TMTstop-B_1_4redlinestimulus18.png,TMT_B,B4,96,None,8.0,696,1.0,573.6896362304688,573.6896362304688,0.0,,1.0,1.0,0.0,1,0.09781089995522052,573.6896362304688,573.6896362304688,0.0,,20.0
K,['3'],3,Images/TMTstop-B_1_4linestimulus19.png,Images/TMTstop-B_1_4greenlinestimulus19.png,Images/TMTstop-B_1_4redlinestimulus19.png,TMT_B,B4,97,None,8.0,697,1.0,573.8404541015625,573.8404541015625,0.0,,1.0,1.0,0.0,2,3,0.008034099999349564,0.0909813999896869,573.8404541015625,573.8404541015625,0.0,,21.0
12,['2'],2,Images/TMTstop-B_1_4linestimulus20.png,Images/TMTstop-B_1_4greenlinestimulus20.png,Images/TMTstop-B_1_4redlinestimulus20.png,TMT_B,B4,98,None,8.0,698,1.0,574.01416015625,574.01416015625,0.0,,1.0,1.0,0.0,1,2,0.05971880001015961,0.11104440002236515,574.01416015625,574.01416015625,0.0,,22.0
L,['3'],3,Images/TMTstop-B_1_4linestimulus21.png,Images/TMTstop-B_1_4greenlinestimulus21.png,Images/TMTstop-B_1_4redlinestimulus21.png,TMT_B,B4,99,None,8.0,699,1.0,574.1880493164062,574.1880493164062,0.0,,1.0,1.0,0.0,3,0.014431200048420578,574.1880493164062,574.1880493164062,0.0,,23.0
13,['1'],1,Images/TMTstop-B_1_4linestimulus22.png,Images/TMTstop-B_1_4greenlinestimulus22.png,Images/TMTstop-B_1_4redlinestimulus22.png,TMT_B,B4,100,None,8.0,700,1.0,574.2615966796875,574.2615966796875,0.0,,1.0,1.0,0.0,1,0.07325140002649277,574.2615966796875,574.2615966796875,0.0,,24.0
None,None,None,Images/TMTstop-B_1_4linestimulus23.png,Images/TMTstop-B_1_4greenlinestimulus23.png,Images/TMTstop-B_1_4redlinestimulus23.png,TMT_B,B4,Feedback_last,None,8.0,Feedback_last,1.0,574.4118041992188,574.4118041992188,0.0,,0.0,0.0,0.0,2,3,1,2,3,-0.015881100029218942,0.04999400000087917,0.2003149000229314,0.24968629999784753,0.32448399998247623,574.4118041992188,574.4118041992188,0.0,,25.0

extraInfo
participant,
session,001
date,2022_Dec_20_1655
expName,TMT_fmri
psychopyVersion,2021.2.3
frameRate,59.88583364190807
﻿NumberLetter,corrAns,Correct,StimFile,Correct_StimFile,False_StimFile,Version,Paper,TrialNumber_Version,Round,Block,TrialNumber_total,n,Stim.started_mean,Stim.started_raw,Stim.started_std,Stim.stopped_raw,key_resp_2.corr_mean,key_resp_2.corr_raw,key_resp_2.corr_std,key_resp_2.keys_raw,key_resp_2.rt_raw,key_resp_2.started_mean,key_resp_2.started_raw,key_resp_2.started_std,key_resp_2.stopped_raw,order
1,['1'],1,Images/TMTstop-B_1_5.png,Images/TMTstop-B_1_5.png,Images/TMTstop-B_1_5.png,TMT_B,B5,101,None,8.0,701,1.0,578.7562255859375,578.7562255859375,0.0,,1.0,1.0,0.0,1,0.3396167000173591,578.7562255859375,578.7562255859375,0.0,,0.0
A,['2'],2,Images/TMTstop-B_1_5.png,Images/TMTstop-B_1_5firstgreen.png,Images/TMTstop-B_1_5firstred.png,TMT_B,B5,102,None,8.0,702,1.0,579.1643676757812,579.1643676757812,0.0,,1.0,1.0,0.0,2,0.0028584999963641167,579.1643676757812,579.1643676757812,0.0,,1.0
2,['1'],1,Images/TMTstop-B_1_5linestimulus0.png,Images/TMTstop-B_1_5greenlinestimulus0.png,Images/TMTstop-B_1_5redlinestimulus0.png,TMT_B,B5,103,None,8.0,703,1.0,579.231201171875,579.231201171875,0.0,,1.0,1.0,0.0,3,1,0.002107800042722374,0.1672508000046946,579.231201171875,579.231201171875,0.0,,2.0
B,['3'],3,Images/TMTstop-B_1_5linestimulus1.png,Images/TMTstop-B_1_5greenlinestimulus1.png,Images/TMTstop-B_1_5redlinestimulus1.png,TMT_B,B5,104,None,8.0,704,1.0,579.4926147460938,579.4926147460938,0.0,,1.0,1.0,0.0,2,3,-0.03598859999328852,0.028870999987702817,579.4926147460938,579.4926147460938,0.0,,3.0
3,['2'],2,Images/TMTstop-B_1_5linestimulus2.png,Images/TMTstop-B_1_5greenlinestimulus2.png,Images/TMTstop-B_1_5redlinestimulus2.png,TMT_B,B5,105,None,8.0,705,1.0,579.593017578125,579.593017578125,0.0,,1.0,1.0,0.0,1,2,0.08142070000758395,0.1253971999976784,579.593017578125,579.593017578125,0.0,,4.0
C,['3'],3,Images/TMTstop-B_1_5linestimulus3.png,Images/TMTstop-B_1_5greenlinestimulus3.png,Images/TMTstop-B_1_5redlinestimulus3.png,TMT_B,B5,106,None,8.0,706,1.0,579.78271484375,579.78271484375,0.0,,1.0,1.0,0.0,3,0.0035785000072792172,579.78271484375,579.78271484375,0.0,,5.0
4,['1'],1,Images/TMTstop-B_1_5linestimulus4.png,Images/TMTstop-B_1_5greenlinestimulus4.png,Images/TMTstop-B_1_5redlinestimulus4.png,TMT_B,B5,107,None,8.0,707,1.0,579.871337890625,579.871337890625,0.0,,1.0,1.0,0.0,1,0.06787799997255206,579.871337890625,579.871337890625,0.0,,6.0
D,['2'],2,Images/TMTstop-B_1_5linestimulus5.png,Images/TMTstop-B_1_5greenlinestimulus5.png,Images/TMTstop-B_1_5redlinestimulus5.png,TMT_B,B5,108,None,8.0,708,1.0,580.0045166015625,580.0045166015625,0.0,,1.0,1.0,0.0,2,-0.012000499991700053,580.0045166015625,580.0045166015625,0.0,,7.0
5,['3'],3,Images/TMTstop-B_1_5linestimulus6.png,Images/TMTstop-B_1_5greenlinestimulus6.png,Images/TMTstop-B_1_5redlinestimulus6.png,TMT_B,B5,109,None,8.0,709,1.0,580.0715942382812,580.0715942382812,0.0,,1.0,1.0,0.0,3,-0.002099699981044978,580.0715942382812,580.0715942382812,0.0,,8.0
E,['1'],1,Images/TMTstop-B_1_5linestimulus7.png,Images/TMTstop-B_1_5greenlinestimulus7.png,Images/TMTstop-B_1_5redlinestimulus7.png,TMT_B,B5,110,None,8.0,710,1.0,580.1292724609375,580.1292724609375,0.0,,1.0,1.0,0.0,1,0.09408660000190139,580.1292724609375,580.1292724609375,0.0,,9.0
6,['3'],3,Images/TMTstop-B_1_5linestimulus8.png,Images/TMTstop-B_1_5greenlinestimulus8.png,Images/TMTstop-B_1_5redlinestimulus8.png,TMT_B,B5,111,None,8.0,711,1.0,580.2793579101562,580.2793579101562,0.0,,1.0,1.0,0.0,2,3,-0.0030769999721087515,0.07012330001452938,580.2793579101562,580.2793579101562,0.0,,10.0
F,['1'],1,Images/TMTstop-B_1_5linestimulus9.png,Images/TMTstop-B_1_5greenlinestimulus9.png,Images/TMTstop-B_1_5redlinestimulus9.png,TMT_B,B5,112,None,8.0,712,1.0,580.4424438476562,580.4424438476562,0.0,,1.0,1.0,0.0,1,0.08613349997904152,580.4424438476562,580.4424438476562,0.0,,11.0
7,['2'],2,Images/TMTstop-B_1_5linestimulus10.png,Images/TMTstop-B_1_5greenlinestimulus10.png,Images/TMTstop-B_1_5redlinestimulus10.png,TMT_B,B5,113,None,8.0,713,1.0,580.5921020507812,580.5921020507812,0.0,,1.0,1.0,0.0,2,-0.01163970003835857,580.5921020507812,580.5921020507812,0.0,,12.0
G,['1'],1,Images/TMTstop-B_1_5linestimulus11.png,Images/TMTstop-B_1_5greenlinestimulus11.png,Images/TMTstop-B_1_5redlinestimulus11.png,TMT_B,B5,114,None,8.0,714,1.0,580.642333984375,580.642333984375,0.0,,1.0,1.0,0.0,3,1,2,3,1,0.031154599972069263,0.20508320000953972,0.23017130000516772,0.3421989000053145,0.6207289999583736,580.642333984375,580.642333984375,0.0,,13.0
8,['3'],3,Images/TMTstop-B_1_5linestimulus12.png,Images/TMTstop-B_1_5greenlinestimulus12.png,Images/TMTstop-B_1_5redlinestimulus12.png,TMT_B,B5,115,None,8.0,715,1.0,581.327880859375,581.327880859375,0.0,,1.0,1.0,0.0,2,3,0.0013574999757111073,0.09463700000196695,581.327880859375,581.327880859375,0.0,,14.0
H,['2'],2,Images/TMTstop-B_1_5linestimulus13.png,Images/TMTstop-B_1_5greenlinestimulus13.png,Images/TMTstop-B_1_5redlinestimulus13.png,TMT_B,B5,116,None,8.0,716,1.0,581.5155639648438,581.5155639648438,0.0,,1.0,1.0,0.0,1,2,0.10607540002092719,0.13958590000402182,581.5155639648438,581.5155639648438,0.0,,15.0
9,['3'],3,Images/TMTstop-B_1_5linestimulus14.png,Images/TMTstop-B_1_5greenlinestimulus14.png,Images/TMTstop-B_1_5redlinestimulus14.png,TMT_B,B5,117,None,8.0,717,1.0,581.7366943359375,581.7366943359375,0.0,,1.0,1.0,0.0,3,0.026659100025426596,581.7366943359375,581.7366943359375,0.0,,16.0
I,['2'],2,Images/TMTstop-B_1_5linestimulus15.png,Images/TMTstop-B_1_5greenlinestimulus15.png,Images/TMTstop-B_1_5redlinestimulus15.png,TMT_B,B5,118,None,8.0,718,1.0,581.8268432617188,581.8268432617188,0.0,,1.0,1.0,0.0,1,2,0.10662669996963814,0.14942420000443235,581.8268432617188,581.8268432617188,0.0,,17.0
10,['3'],3,Images/TMTstop-B_1_5linestimulus16.png,Images/TMTstop-B_1_5greenlinestimulus16.png,Images/TMTstop-B_1_5redlinestimulus16.png,TMT_B,B5,119,None,8.0,719,1.0,582.0436401367188,582.0436401367188,0.0,,1.0,1.0,0.0,3,0.026035099988803267,582.0436401367188,582.0436401367188,0.0,,18.0
J,['2'],2,Images/TMTstop-B_1_5linestimulus17.png,Images/TMTstop-B_1_5greenlinestimulus17.png,Images/TMTstop-B_1_5redlinestimulus17.png,TMT_B,B5,120,None,8.0,720,1.0,582.1273193359375,582.1273193359375,0.0,,1.0,1.0,0.0,1,2,0.0910749000031501,0.1440271000028588,582.1273193359375,582.1273193359375,0.0,,19.0
11,['1'],1,Images/TMTstop-B_1_5linestimulus18.png,Images/TMTstop-B_1_5greenlinestimulus18.png,Images/TMTstop-B_1_5redlinestimulus18.png,TMT_B,B5,121,None,8.0,721,1.0,582.3274536132812,582.3274536132812,0.0,,1.0,1.0,0.0,3,1,0.03176079998956993,0.18163339997408912,582.3274536132812,582.3274536132812,0.0,,20.0
K,['2'],2,Images/TMTstop-B_1_5linestimulus19.png,Images/TMTstop-B_1_5greenlinestimulus19.png,Images/TMTstop-B_1_5redlinestimulus19.png,TMT_B,B5,122,None,8.0,722,1.0,582.5608520507812,582.5608520507812,0.0,,1.0,1.0,0.0,2,-0.008659499988425523,582.5608520507812,582.5608520507812,0.0,,21.0
12,['1'],1,Images/TMTstop-B_1_5linestimulus20.png,Images/TMTstop-B_1_5greenlinestimulus20.png,Images/TMTstop-B_1_5redlinestimulus20.png,TMT_B,B5,123,None,8.0,723,1.0,582.611083984375,582.611083984375,0.0,,1.0,1.0,0.0,3,1,0.03712029999587685,0.19924310001078993,582.611083984375,582.611083984375,0.0,,22.0
L,['3'],3,Images/TMTstop-B_1_5linestimulus21.png,Images/TMTstop-B_1_5greenlinestimulus21.png,Images/TMTstop-B_1_5redlinestimulus21.png,TMT_B,B5,124,None,8.0,724,1.0,582.8612060546875,582.8612060546875,0.0,,1.0,1.0,0.0,2,3,0.005411199992522597,0.0773979999939911,582.8612060546875,582.8612060546875,0.0,,23.0
13,['1'],1,Images/TMTstop-B_1_5linestimulus22.png,Images/TMTstop-B_1_5greenlinestimulus22.png,Images/TMTstop-B_1_5redlinestimulus22.png,TMT_B,B5,125,None,8.0,725,1.0,583.0137939453125,583.0137939453125,0.0,,1.0,1.0,0.0,1,0.08469579997472465,583.0137939453125,583.0137939453125,0.0,,24.0
None,None,None,Images/TMTstop-B_1_5linestimulus23.png,Images/TMTstop-B_1_5greenlinestimulus23.png,Images/TMTstop-B_1_5redlinestimulus23.png,TMT_B,B5,Feedback_last,None,8.0,Feedback_last,1.0,583.147705078125,583.147705078125,0.0,,0.0,0.0,0.0,2,-0.005165299982763827,583.147705078125,583.147705078125,0.0,,25.0

extraInfo
participant,
session,001
date,2022_Dec_20_1655
expName,TMT_fmri
psychopyVersion,2021.2.3
frameRate,59.88583364190807
﻿NumberLetter,corrAns,Correct,StimFile,Correct_StimFile,False_StimFile,Version,Paper,TrialNumber_Version,Round,Block,TrialNumber_total,n,Stim.started_mean,Stim.started_raw,Stim.started_std,Stim.stopped_raw,key_resp_2.corr_mean,key_resp_2.corr_raw,key_resp_2.corr_std,key_resp_2.keys_raw,key_resp_2.rt_raw,key_resp_2.started_mean,key_resp_2.started_raw,key_resp_2.started_std,key_resp_2.stopped_raw,order
1,['2'],2.0,Images/TMTstop-B_1_6.png,Images/TMTstop-B_1_6.png,Images/TMTstop-B_1_6.png,TMT_B,B6,126.0,None,8.0,726,1.0,587.5595703125,587.5595703125,0.0,,1.0,1.0,0.0,1,2,0.5622417000122368,0.6384472000063397,587.5595703125,587.5595703125,0.0,,0.0
A,['3'],3.0,Images/TMTstop-B_1_6.png,Images/TMTstop-B_1_6firstgreen.png,Images/TMTstop-B_1_6firstred.png,TMT_B,B6,127.0,None,8.0,727,1.0,588.2869262695312,588.2869262695312,0.0,,1.0,1.0,0.0,3,-0.011502999986987561,588.2869262695312,588.2869262695312,0.0,,1.0
2,['1'],1.0,Images/TMTstop-B_1_6linestimulus0.png,Images/TMTstop-B_1_6greenlinestimulus0.png,Images/TMTstop-B_1_6redlinestimulus0.png,TMT_B,B6,128.0,None,8.0,728,1.0,588.3439331054688,588.3439331054688,0.0,,1.0,1.0,0.0,1,0.10089830000652,588.3439331054688,588.3439331054688,0.0,,2.0
B,['3'],3.0,Images/TMTstop-B_1_6linestimulus1.png,Images/TMTstop-B_1_6greenlinestimulus1.png,Images/TMTstop-B_1_6redlinestimulus1.png,TMT_B,B6,129.0,None,8.0,729,1.0,588.4945068359375,588.4945068359375,0.0,,1.0,1.0,0.0,2,3,0.008053500030655414,0.08540570002514869,588.4945068359375,588.4945068359375,0.0,,3.0
3,['2'],2.0,Images/TMTstop-B_1_6linestimulus2.png,Images/TMTstop-B_1_6greenlinestimulus2.png,Images/TMTstop-B_1_6redlinestimulus2.png,TMT_B,B6,130.0,None,8.0,730,1.0,588.6670532226562,588.6670532226562,0.0,,1.0,1.0,0.0,1,2,0.0590939000248909,0.11921490001259372,588.6670532226562,588.6670532226562,0.0,,4.0
C,['1'],1.0,Images/TMTstop-B_1_6linestimulus3.png,Images/TMTstop-B_1_6greenlinestimulus3.png,Images/TMTstop-B_1_6redlinestimulus3.png,TMT_B,B6,131.0,None,8.0,731,1.0,588.896728515625,588.896728515625,0.0,,1.0,1.0,0.0,3,1,-0.02239870000630617,0.13781589997233823,588.896728515625,588.896728515625,0.0,,5.0
4,['2'],2.0,Images/TMTstop-B_1_6linestimulus4.png,Images/TMTstop-B_1_6greenlinestimulus4.png,Images/TMTstop-B_1_6redlinestimulus4.png,TMT_B,B6,132.0,None,8.0,732,1.0,589.096923828125,589.096923828125,0.0,,1.0,1.0,0.0,2,-0.0034404000034555793,589.096923828125,589.096923828125,0.0,,6.0
D,['1'],1.0,Images/TMTstop-B_1_6linestimulus5.png,Images/TMTstop-B_1_6greenlinestimulus5.png,Images/TMTstop-B_1_6redlinestimulus5.png,TMT_B,B6,133.0,None,8.0,733,1.0,589.1485595703125,589.1485595703125,0.0,,1.0,1.0,0.0,3,1,0.022851500019896775,0.17000990000087768,589.1485595703125,589.1485595703125,0.0,,7.0
5,['2'],2.0,Images/TMTstop-B_1_6linestimulus6.png,Images/TMTstop-B_1_6greenlinestimulus6.png,Images/TMTstop-B_1_6redlinestimulus6.png,TMT_B,B6,134.0,None,8.0,734,1.0,589.406494140625,589.406494140625,0.0,,1.0,1.0,0.0,2,-0.03195479995338246,589.406494140625,589.406494140625,0.0,,8.0
E,['3'],3.0,Images/TMTstop-B_1_6linestimulus7.png,Images/TMTstop-B_1_6greenlinestimulus7.png,Images/TMTstop-B_1_6redlinestimulus7.png,TMT_B,B6,135.0,None,8.0,735,1.0,589.45654296875,589.45654296875,0.0,,1.0,1.0,0.0,3,-0.0072951000183820724,589.45654296875,589.45654296875,0.0,,9.0
6,['2'],2.0,Images/TMTstop-B_1_6linestimulus8.png,Images/TMTstop-B_1_6greenlinestimulus8.png,Images/TMTstop-B_1_6redlinestimulus8.png,TMT_B,B6,136.0,None,8.0,736,1.0,589.5066528320312,589.5066528320312,0.0,,1.0,1.0,0.0,1,2,0.08925600000657141,0.14369200001237914,589.5066528320312,589.5066528320312,0.0,,10.0
F,['3'],3.0,Images/TMTstop-B_1_6linestimulus9.png,Images/TMTstop-B_1_6greenlinestimulus9.png,Images/TMTstop-B_1_6redlinestimulus9.png,TMT_B,B6,137.0,None,8.0,737,1.0,589.7130737304688,589.7130737304688,0.0,,1.0,1.0,0.0,3,0.05347149999579415,589.7130737304688,589.7130737304688,0.0,,11.0
7,['1'],1.0,Images/TMTstop-B_1_6linestimulus10.png,Images/TMTstop-B_1_6greenlinestimulus10.png,Images/TMTstop-B_1_6redlinestimulus10.png,TMT_B,B6,138.0,None,8.0,738,1.0,589.8297119140625,589.8297119140625,0.0,,1.0,1.0,0.0,1,0.09487650002120063,589.8297119140625,589.8297119140625,0.0,,12.0
G,['3'],3.0,Images/TMTstop-B_1_6linestimulus11.png,Images/TMTstop-B_1_6greenlinestimulus11.png,Images/TMTstop-B_1_6redlinestimulus11.png,TMT_B,B6,139.0,None,8.0,739,1.0,589.9794921875,589.9794921875,0.0,,1.0,1.0,0.0,2,3,0.06534370000008494,0.1720676000113599,589.9794921875,589.9794921875,0.0,,13.0
8,['2'],2.0,Images/TMTstop-B_1_6linestimulus12.png,Images/TMTstop-B_1_6greenlinestimulus12.png,Images/TMTstop-B_1_6redlinestimulus12.png,TMT_B,B6,140.0,None,8.0,740,1.0,590.2073364257812,590.2073364257812,0.0,,1.0,1.0,0.0,2,1.129287399991881,590.2073364257812,590.2073364257812,0.0,,14.0
H,['3'],3.0,Images/TMTstop-B_1_6linestimulus13.png,Images/TMTstop-B_1_6greenlinestimulus13.png,Images/TMTstop-B_1_6redlinestimulus13.png,TMT_B,B6,141.0,None,8.0,741,1.0,591.3992919921875,591.3992919921875,0.0,,1.0,1.0,0.0,3,3.0714106000377797,591.3992919921875,591.3992919921875,0.0,,15.0

extraInfo
participant,
session,001
date,2022_Dec_20_1655
expName,TMT_fmri
psychopyVersion,2021.2.3
frameRate,59.88583364190807
