Block_file,Condition_rows,NumberLetter,corrAns,Correct,StimFile,Correct_StimFile,False_StimFile,Version,Block,TrialNumber_session,Blocks_TMTControl.thisRepN,Blocks_TMTControl.thisTrialN,Blocks_TMTControl.thisN,Blocks_TMTControl.thisIndex,trials_TMTControl.thisRepN,trials_TMTControl.thisTrialN,trials_TMTControl.thisN,trials_TMTControl.thisIndex,Blocks_TMTA.thisRepN,Blocks_TMTA.thisTrialN,Blocks_TMTA.thisN,Blocks_TMTA.thisIndex,trials_TMTA.thisRepN,trials_TMTA.thisTrialN,trials_TMTA.thisN,trials_TMTA.thisIndex,key_resp_7.keys,key_resp_7.rt,key_resp_7.started,key_resp_7.stopped,polygon_2.started,polygon_2.stopped,Attempts,First_attempt,Stim.started,Stim.stopped,key_resp_2.keys,key_resp_2.corr,key_resp_2.rt,key_resp_2.started,key_resp_2.stopped,participant,session,date,expName,psychopyVersion,frameRate,
,,,,,,,,,,,,,,,,,,,,,,,,,,,s,1.2063714999967488,11.530825900001219,None,,,,,,,,,,,,,001,2022_May_10_1100,TMT_fmri,2021.2.3,None,
TMTstop-Control_1_1.xlsx,0:26,1,['2'],2,TMTstop-control_1_1.png,TMTstop-control_1_1.png,TMTstop-control_1_1.png,TMT_Control,1,1,0,0,0,0,0,0,0,0,,,,,,,,,,,,,11.530825900001219,None,2,0,12.93903209999553,None,"['1', '2']",1,"[0.6099985000037123, 0.7339021999941906]",12.93903209999553,None,,001,2022_May_10_1100,TMT_fmri,2021.2.3,None,
TMTstop-Control_1_1.xlsx,0:26,2,['1'],1,TMTstop-control_1_1.png,TMTstop-control_1_1firstgreen.png,TMTstop-control_1_1firstred.png,TMT_Control,1,2,0,0,0,0,0,1,1,1,,,,,,,,,,,,,,,2,0,13.805536899992148,None,"['3', '1']",1,"[0.03509370000392664, 0.1265214000013657]",13.805536899992148,None,,001,2022_May_10_1100,TMT_fmri,2021.2.3,None,
TMTstop-Control_1_1.xlsx,0:26,3,['3'],3,TMTstop-control_1_1linestimulus0.png,TMTstop-control_1_1greenlinestimulus0.png,TMTstop-control_1_1redlinestimulus0.png,TMT_Control,1,3,0,0,0,0,0,2,2,2,,,,,,,,,,,,,,,2,0,14.12630530000024,None,"['2', '3']",1,"[-0.1237952000083169, -0.006750400003511459]",14.12630530000024,None,,001,2022_May_10_1100,TMT_fmri,2021.2.3,None,
TMTstop-Control_1_1.xlsx,0:26,4,['1'],1,TMTstop-control_1_1linestimulus1.png,TMTstop-control_1_1greenlinestimulus1.png,TMTstop-control_1_1redlinestimulus1.png,TMT_Control,1,4,0,0,0,0,0,3,3,3,,,,,,,,,,,,,,,1,1,14.26806360000046,None,['1'],1,[-0.024996000007377006],14.26806360000046,None,,001,2022_May_10_1100,TMT_fmri,2021.2.3,None,
TMTstop-Control_1_1.xlsx,0:26,5,['3'],3,TMTstop-control_1_1linestimulus2.png,TMTstop-control_1_1greenlinestimulus2.png,TMTstop-control_1_1redlinestimulus2.png,TMT_Control,1,5,0,0,0,0,0,4,4,4,,,,,,,,,,,,,,,2,0,14.407777000000351,None,"['2', '3']",1,"[-0.09956059999240097, 0.0030107000056887046]",14.407777000000351,None,,001,2022_May_10_1100,TMT_fmri,2021.2.3,None,
TMTstop-Control_1_1.xlsx,0:26,6,['1'],1,TMTstop-control_1_1linestimulus3.png,TMTstop-control_1_1greenlinestimulus3.png,TMTstop-control_1_1redlinestimulus3.png,TMT_Control,1,6,0,0,0,0,0,5,5,5,,,,,,,,,,,,,,,1,1,14.547311499991338,None,['1'],1,[-0.024014099995838478],14.547311499991338,None,,001,2022_May_10_1100,TMT_fmri,2021.2.3,None,
TMTstop-Control_1_1.xlsx,0:26,7,['2'],2,TMTstop-control_1_1linestimulus4.png,TMTstop-control_1_1greenlinestimulus4.png,TMTstop-control_1_1redlinestimulus4.png,TMT_Control,1,7,0,0,0,0,0,6,6,6,,,,,,,,,,,,,,,1,1,14.682751600004849,None,['2'],1,[-0.08254829999350477],14.682751600004849,None,,001,2022_May_10_1100,TMT_fmri,2021.2.3,None,
TMTstop-Control_1_1.xlsx,0:26,8,['1'],1,TMTstop-control_1_1linestimulus4.png,TMTstop-control_1_1greenlinestimulus5.png,TMTstop-control_1_1redlinestimulus5.png,TMT_Control,1,8,0,0,0,0,0,7,7,7,,,,,,,,,,,,,,,2,0,14.81839649999165,None,"['3', '1']",1,"[-0.12422140000853688, 0.010895200000959449]",14.81839649999165,None,,001,2022_May_10_1100,TMT_fmri,2021.2.3,None,
TMTstop-Control_1_1.xlsx,0:26,9,['3'],3,TMTstop-control_1_1linestimulus6.png,TMTstop-control_1_1greenlinestimulus6.png,TMTstop-control_1_1redlinestimulus6.png,TMT_Control,1,9,0,0,0,0,0,8,8,8,,,,,,,,,,,,,,,2,0,14.967838500000653,None,"['2', '3']",1,"[-0.050061199988704175, 0.057049400013056584]",14.967838500000653,None,,001,2022_May_10_1100,TMT_fmri,2021.2.3,None,
TMTstop-Control_1_1.xlsx,0:26,10,['2'],2,TMTstop-control_1_1linestimulus7.png,TMTstop-control_1_1greenlinestimulus7.png,TMTstop-control_1_1redlinestimulus7.png,TMT_Control,1,10,0,0,0,0,0,9,9,9,,,,,,,,,,,,,,,2,0,15.226054999991902,None,"['1', '2']",1,"[-0.08343859999149572, 0.0121653999958653]",15.226054999991902,None,,001,2022_May_10_1100,TMT_fmri,2021.2.3,None,
TMTstop-Control_1_1.xlsx,0:26,11,['1'],1,TMTstop-control_1_1linestimulus8.png,TMTstop-control_1_1greenlinestimulus8.png,TMTstop-control_1_1redlinestimulus8.png,TMT_Control,1,11,0,0,0,0,0,10,10,10,,,,,,,,,,,,,,,2,0,15.367709999991348,None,"['3', '1']",1,"[-0.029579100009868853, 0.0894006000016816]",15.367709999991348,None,,001,2022_May_10_1100,TMT_fmri,2021.2.3,None,
TMTstop-Control_1_1.xlsx,0:26,12,['2'],2,TMTstop-control_1_1linestimulus9.png,TMTstop-control_1_1greenlinestimulus9.png,TMTstop-control_1_1redlinestimulus9.png,TMT_Control,1,12,0,0,0,0,0,11,11,11,,,,,,,,,,,,,,,1,1,15.643880300005549,None,['2'],1,[-0.012721400009468198],15.643880300005549,None,,001,2022_May_10_1100,TMT_fmri,2021.2.3,None,
TMTstop-Control_1_1.xlsx,0:26,13,['3'],3,TMTstop-control_1_1linestimulus10.png,TMTstop-control_1_1greenlinestimulus10.png,TMTstop-control_1_1redlinestimulus10.png,TMT_Control,1,13,0,0,0,0,0,12,12,12,,,,,,,,,,,,,,,1,1,15.781482999998843,None,['3'],1,[-0.12093649999587797],15.781482999998843,None,,001,2022_May_10_1100,TMT_fmri,2021.2.3,None,
TMTstop-Control_1_1.xlsx,0:26,14,['2'],2,TMTstop-control_1_1linestimulus11.png,TMTstop-control_1_1greenlinestimulus11.png,TMTstop-control_1_1redlinestimulus11.png,TMT_Control,1,14,0,0,0,0,0,13,13,13,,,,,,,,,,,,,,,2,0,15.916774099998293,None,"['1', '2']",1,"[0.12599870000849478, 0.19475490000331774]",15.916774099998293,None,,001,2022_May_10_1100,TMT_fmri,2021.2.3,None,
TMTstop-Control_1_1.xlsx,0:26,15,['3'],3,TMTstop-control_1_1linestimulus12.png,TMTstop-control_1_1greenlinestimulus12.png,TMTstop-control_1_1redlinestimulus12.png,TMT_Control,1,15,0,0,0,0,0,14,14,14,,,,,,,,,,,,,,,1,1,16.338812400004826,None,['3'],1,[-0.10819169999740552],16.338812400004826,None,,001,2022_May_10_1100,TMT_fmri,2021.2.3,None,
TMTstop-Control_1_1.xlsx,0:26,16,['2'],2,TMTstop-control_1_1linestimulus13.png,TMTstop-control_1_1greenlinestimulus13.png,TMTstop-control_1_1redlinestimulus13.png,TMT_Control,1,16,0,0,0,0,0,15,15,15,,,,,,,,,,,,,,,2,0,16.476835099994787,None,"['1', '2']",1,"[-0.11588409999967553, -0.04689990000042599]",16.476835099994787,None,,001,2022_May_10_1100,TMT_fmri,2021.2.3,None,
TMTstop-Control_1_1.xlsx,0:26,17,['3'],3,TMTstop-control_1_1linestimulus14.png,TMTstop-control_1_1greenlinestimulus14.png,TMTstop-control_1_1redlinestimulus14.png,TMT_Control,1,17,0,0,0,0,0,16,16,16,,,,,,,,,,,,,,,1,1,16.614359200000763,None,['3'],1,[-0.06867520000378136],16.614359200000763,None,,001,2022_May_10_1100,TMT_fmri,2021.2.3,None,
TMTstop-Control_1_1.xlsx,0:26,18,['2'],2,TMTstop-control_1_1linestimulus15.png,TMTstop-control_1_1greenlinestimulus15.png,TMTstop-control_1_1redlinestimulus15.png,TMT_Control,1,18,0,0,0,0,0,17,17,17,,,,,,,,,,,,,,,2,0,16.752061599996523,None,"['1', '2']",1,"[-0.08821979998901952, -0.008121499995468184]",16.752061599996523,None,,001,2022_May_10_1100,TMT_fmri,2021.2.3,None,
TMTstop-Control_1_1.xlsx,0:26,19,['1'],1,TMTstop-control_1_1linestimulus16.png,TMTstop-control_1_1greenlinestimulus16.png,TMTstop-control_1_1redlinestimulus16.png,TMT_Control,1,19,0,0,0,0,0,18,18,18,,,,,,,,,,,,,,,1,1,16.889374099991983,None,['1'],1,[0.20976699999300763],16.889374099991983,None,,001,2022_May_10_1100,TMT_fmri,2021.2.3,None,
TMTstop-Control_1_1.xlsx,0:26,20,['3'],3,TMTstop-control_1_1linestimulus17.png,TMTstop-control_1_1greenlinestimulus17.png,TMTstop-control_1_1redlinestimulus17.png,TMT_Control,1,20,0,0,0,0,0,19,19,19,,,,,,,,,,,,,,,2,0,17.309819499991136,None,"['2', '3']",1,"[0.021139799995580688, 0.1568390000029467]",17.309819499991136,None,,001,2022_May_10_1100,TMT_fmri,2021.2.3,None,
TMTstop-Control_1_1.xlsx,0:26,21,['1'],1,TMTstop-control_1_1linestimulus18.png,TMTstop-control_1_1greenlinestimulus18.png,TMTstop-control_1_1redlinestimulus18.png,TMT_Control,1,21,0,0,0,0,0,20,20,20,,,,,,,,,,,,,,,1,1,17.593637800004217,None,['1'],1,[-0.03326989999914076],17.593637800004217,None,,001,2022_May_10_1100,TMT_fmri,2021.2.3,None,
TMTstop-Control_1_1.xlsx,0:26,22,['2'],2,TMTstop-control_1_1linestimulus19.png,TMTstop-control_1_1greenlinestimulus19.png,TMTstop-control_1_1redlinestimulus19.png,TMT_Control,1,22,0,0,0,0,0,21,21,21,,,,,,,,,,,,,,,1,1,17.727921600002446,None,['2'],1,[-0.03396220000286121],17.727921600002446,None,,001,2022_May_10_1100,TMT_fmri,2021.2.3,None,
TMTstop-Control_1_1.xlsx,0:26,23,['3'],3,TMTstop-control_1_1linestimulus20.png,TMTstop-control_1_1greenlinestimulus20.png,TMTstop-control_1_1redlinestimulus20.png,TMT_Control,1,23,0,0,0,0,0,22,22,22,,,,,,,,,,,,,,,1,1,17.870124399996712,None,['3'],1,[-0.08510759999626316],17.870124399996712,None,,001,2022_May_10_1100,TMT_fmri,2021.2.3,None,
TMTstop-Control_1_1.xlsx,0:26,24,['2'],2,TMTstop-control_1_1linestimulus21.png,TMTstop-control_1_1greenlinestimulus21.png,TMTstop-control_1_1redlinestimulus21.png,TMT_Control,1,24,0,0,0,0,0,23,23,23,,,,,,,,,,,,,,,2,0,17.997331199992914,None,"['1', '2']",1,"[-0.07178759999806061, -0.006976499993470497]",17.997331199992914,None,,001,2022_May_10_1100,TMT_fmri,2021.2.3,None,
TMTstop-Control_1_1.xlsx,0:26,25,['1'],1,TMTstop-control_1_1linestimulus22.png,TMTstop-control_1_1greenlinestimulus22.png,TMTstop-control_1_1redlinestimulus22.png,TMT_Control,1,25,0,0,0,0,0,24,24,24,,,,,,,,,,,,,,,2,0,18.12490579999576,None,"['3', '1']",1,"[-0.010272599989548326, 0.11206310000852682]",18.12490579999576,None,,001,2022_May_10_1100,TMT_fmri,2021.2.3,None,
TMTstop-Control_1_1.xlsx,0:26,None,None,None,TMTstop-control_1_1linestimulus23.png,TMTstop-control_1_1greenlinestimulus23.png,TMTstop-control_1_1redlinestimulus23.png,TMT_Control,1,Feedback_last,0,0,0,0,0,25,25,25,,,,,,,,,,,,,,,2,0,18.385095899997395,None,"['2', '3']",0,"[-0.08420110000588465, 0.029891300000599585]",18.385095899997395,None,,001,2022_May_10_1100,TMT_fmri,2021.2.3,None,
TMTstop-Control_1_2.xlsx,26:52,1,['2'],2,TMTstop-control_1_2.png,TMTstop-control_1_2.png,TMTstop-control_1_2.png,TMT_Control,2,26,0,1,1,1,0,0,0,0,,,,,,,,,,,,,,,2,0,22.5194177999947,None,"['1', '2']",1,"[0.5784511000092607, 0.6780460000009043]",22.5194177999947,None,,001,2022_May_10_1100,TMT_fmri,2021.2.3,None,
TMTstop-Control_1_2.xlsx,26:52,2,['3'],3,TMTstop-control_1_2.png,TMTstop-control_1_2firstgreen.png,TMTstop-control_1_2firstred.png,TMT_Control,2,27,0,1,1,1,0,1,1,1,,,,,,,,,,,,,,,1,1,23.32615860000078,None,['3'],1,[-0.02655419999791775],23.32615860000078,None,,001,2022_May_10_1100,TMT_fmri,2021.2.3,None,
TMTstop-Control_1_2.xlsx,26:52,3,['2'],2,TMTstop-control_1_2linestimulus0.png,TMTstop-control_1_2greenlinestimulus0.png,TMTstop-control_1_2redlinestimulus0.png,TMT_Control,2,28,0,1,1,1,0,2,2,2,,,,,,,,,,,,,,,2,0,23.45781469999929,None,"['1', '2']",1,"[0.007345400008489378, 0.08015780001005623]",23.45781469999929,None,,001,2022_May_10_1100,TMT_fmri,2021.2.3,None,
TMTstop-Control_1_2.xlsx,26:52,4,['3'],3,TMTstop-control_1_2linestimulus1.png,TMTstop-control_1_2greenlinestimulus1.png,TMTstop-control_1_2redlinestimulus1.png,TMT_Control,2,29,0,1,1,1,0,3,3,3,,,,,,,,,,,,,,,1,1,23.733720200005337,None,['3'],1,[-0.09103029999823775],23.733720200005337,None,,001,2022_May_10_1100,TMT_fmri,2021.2.3,None,
TMTstop-Control_1_2.xlsx,26:52,5,['2'],2,TMTstop-control_1_2linestimulus2.png,TMTstop-control_1_2greenlinestimulus2.png,TMTstop-control_1_2redlinestimulus2.png,TMT_Control,2,30,0,1,1,1,0,4,4,4,,,,,,,,,,,,,,,2,0,23.872368800002732,None,"['1', '2']",1,"[-0.10158220000448637, -0.03199819999281317]",23.872368800002732,None,,001,2022_May_10_1100,TMT_fmri,2021.2.3,None,
TMTstop-Control_1_2.xlsx,26:52,6,['3'],3,TMTstop-control_1_2linestimulus3.png,TMTstop-control_1_2greenlinestimulus3.png,TMTstop-control_1_2redlinestimulus3.png,TMT_Control,2,31,0,1,1,1,0,5,5,5,,,,,,,,,,,,,,,1,1,23.998812999998336,None,['3'],1,[-0.0021656999888364226],23.998812999998336,None,,001,2022_May_10_1100,TMT_fmri,2021.2.3,None,
TMTstop-Control_1_2.xlsx,26:52,7,['2'],2,TMTstop-control_1_2linestimulus4.png,TMTstop-control_1_2greenlinestimulus4.png,TMTstop-control_1_2redlinestimulus4.png,TMT_Control,2,32,0,1,1,1,0,6,6,6,,,,,,,,,,,,,,,2,0,24.13939159999427,None,"['1', '2']",1,"[-0.0011754000006476417, 0.0910345000011148]",24.13939159999427,None,,001,2022_May_10_1100,TMT_fmri,2021.2.3,None,
TMTstop-Control_1_2.xlsx,26:52,8,['1'],1,TMTstop-control_1_2linestimulus4.png,TMTstop-control_1_2greenlinestimulus5.png,TMTstop-control_1_2redlinestimulus5.png,TMT_Control,2,33,0,1,1,1,0,7,7,7,,,,,,,,,,,,,,,2,0,24.404496000002837,None,"['3', '1']",1,"[0.05450080000446178, 0.0758817000023555]",24.404496000002837,None,,001,2022_May_10_1100,TMT_fmri,2021.2.3,None,
TMTstop-Control_1_2.xlsx,26:52,9,['3'],3,TMTstop-control_1_2linestimulus6.png,TMTstop-control_1_2greenlinestimulus6.png,TMTstop-control_1_2redlinestimulus6.png,TMT_Control,2,34,0,1,1,1,0,8,8,8,,,,,,,,,,,,,,,3,0,24.68097719999787,None,"['1', '2', '3']",1,"[0.06653590001224075, 0.10401650000130758, 0.28270640000118874]",24.68097719999787,None,,001,2022_May_10_1100,TMT_fmri,2021.2.3,None,
TMTstop-Control_1_2.xlsx,26:52,10,['2'],2,TMTstop-control_1_2linestimulus7.png,TMTstop-control_1_2greenlinestimulus7.png,TMTstop-control_1_2redlinestimulus7.png,TMT_Control,2,35,0,1,1,1,0,9,9,9,,,,,,,,,,,,,,,2,0,25.097995599993737,None,"['1', '2']",1,"[0.08616059999621939, 0.14060280000558123]",25.097995599993737,None,,001,2022_May_10_1100,TMT_fmri,2021.2.3,None,
TMTstop-Control_1_2.xlsx,26:52,11,['3'],3,TMTstop-control_1_2linestimulus8.png,TMTstop-control_1_2greenlinestimulus8.png,TMTstop-control_1_2redlinestimulus8.png,TMT_Control,2,36,0,1,1,1,0,10,10,10,,,,,,,,,,,,,,,1,1,25.36732989999291,None,['3'],1,[0.01357659998757299],25.36732989999291,None,,001,2022_May_10_1100,TMT_fmri,2021.2.3,None,
TMTstop-Control_1_2.xlsx,26:52,12,['2'],2,TMTstop-control_1_2linestimulus9.png,TMTstop-control_1_2greenlinestimulus9.png,TMTstop-control_1_2redlinestimulus9.png,TMT_Control,2,37,0,1,1,1,0,11,11,11,,,,,,,,,,,,,,,2,0,25.508485300000757,None,"['1', '2']",1,"[0.004356399993412197, 0.08180420000280719]",25.508485300000757,None,,001,2022_May_10_1100,TMT_fmri,2021.2.3,None,
TMTstop-Control_1_2.xlsx,26:52,13,['3'],3,TMTstop-control_1_2linestimulus10.png,TMTstop-control_1_2greenlinestimulus10.png,TMTstop-control_1_2redlinestimulus10.png,TMT_Control,2,38,0,1,1,1,0,12,12,12,,,,,,,,,,,,,,,1,1,25.786399000004167,None,['3'],1,[-0.07196299999486655],25.786399000004167,None,,001,2022_May_10_1100,TMT_fmri,2021.2.3,None,
TMTstop-Control_1_2.xlsx,26:52,14,['2'],2,TMTstop-control_1_2linestimulus11.png,TMTstop-control_1_2greenlinestimulus11.png,TMTstop-control_1_2redlinestimulus11.png,TMT_Control,2,39,0,1,1,1,0,13,13,13,,,,,,,,,,,,,,,2,0,25.924404499994125,None,"['1', '2']",1,"[-0.08256969999638386, 0.0028119000053266063]",25.924404499994125,None,,001,2022_May_10_1100,TMT_fmri,2021.2.3,None,
TMTstop-Control_1_2.xlsx,26:52,15,['3'],3,TMTstop-control_1_2linestimulus12.png,TMTstop-control_1_2greenlinestimulus12.png,TMTstop-control_1_2redlinestimulus12.png,TMT_Control,2,40,0,1,1,1,0,14,14,14,,,,,,,,,,,,,,,1,1,26.06480599999486,None,['3'],1,[-0.025971499999286607],26.06480599999486,None,,001,2022_May_10_1100,TMT_fmri,2021.2.3,None,
TMTstop-Control_1_2.xlsx,26:52,16,['1'],1,TMTstop-control_1_2linestimulus13.png,TMTstop-control_1_2greenlinestimulus13.png,TMTstop-control_1_2redlinestimulus13.png,TMT_Control,2,41,0,1,1,1,0,15,15,15,,,,,,,,,,,,,,,1,1,26.20281449999311,None,['1'],1,[-0.04387750000751112],26.20281449999311,None,,001,2022_May_10_1100,TMT_fmri,2021.2.3,None,
TMTstop-Control_1_2.xlsx,26:52,17,['2'],2,TMTstop-control_1_2linestimulus14.png,TMTstop-control_1_2greenlinestimulus14.png,TMTstop-control_1_2redlinestimulus14.png,TMT_Control,2,42,0,1,1,1,0,16,16,16,,,,,,,,,,,,,,,1,1,26.32876010000473,None,['2'],1,[-0.07455060000938829],26.32876010000473,None,,001,2022_May_10_1100,TMT_fmri,2021.2.3,None,
TMTstop-Control_1_2.xlsx,26:52,18,['1'],1,TMTstop-control_1_2linestimulus15.png,TMTstop-control_1_2greenlinestimulus15.png,TMTstop-control_1_2redlinestimulus15.png,TMT_Control,2,43,0,1,1,1,0,17,17,17,,,,,,,,,,,,,,,3,0,26.452683399998932,None,"['2', '3', '1']",1,"[-0.058978300003218465, 0.015539600004558451, 0.16130360000533983]",26.452683399998932,None,,001,2022_May_10_1100,TMT_fmri,2021.2.3,None,
TMTstop-Control_1_2.xlsx,26:52,19,['2'],2,TMTstop-control_1_2linestimulus16.png,TMTstop-control_1_2greenlinestimulus16.png,TMTstop-control_1_2redlinestimulus16.png,TMT_Control,2,44,0,1,1,1,0,18,18,18,,,,,,,,,,,,,,,1,1,26.73528900000383,None,['2'],1,[0.021407500011264347],26.73528900000383,None,,001,2022_May_10_1100,TMT_fmri,2021.2.3,None,
TMTstop-Control_1_2.xlsx,26:52,20,['3'],3,TMTstop-control_1_2linestimulus17.png,TMTstop-control_1_2greenlinestimulus17.png,TMTstop-control_1_2redlinestimulus17.png,TMT_Control,2,45,0,1,1,1,0,19,19,19,,,,,,,,,,,,,,,1,1,26.856425299993134,None,['3'],1,[0.015146799996728078],26.856425299993134,None,,001,2022_May_10_1100,TMT_fmri,2021.2.3,None,
TMTstop-Control_1_2.xlsx,26:52,21,['1'],1,TMTstop-control_1_2linestimulus18.png,TMTstop-control_1_2greenlinestimulus18.png,TMTstop-control_1_2redlinestimulus18.png,TMT_Control,2,46,0,1,1,1,0,20,20,20,,,,,,,,,,,,,,,1,1,26.991487399995094,None,['1'],1,[0.02545970000210218],26.991487399995094,None,,001,2022_May_10_1100,TMT_fmri,2021.2.3,None,
TMTstop-Control_1_2.xlsx,26:52,22,['3'],3,TMTstop-control_1_2linestimulus19.png,TMTstop-control_1_2greenlinestimulus19.png,TMTstop-control_1_2redlinestimulus19.png,TMT_Control,2,47,0,1,1,1,0,21,21,21,,,,,,,,,,,,,,,2,0,27.132560600002762,None,"['2', '3']",1,"[-0.05113199999323115, 0.07854580000275746]",27.132560600002762,None,,001,2022_May_10_1100,TMT_fmri,2021.2.3,None,
TMTstop-Control_1_2.xlsx,26:52,23,['2'],2,TMTstop-control_1_2linestimulus20.png,TMTstop-control_1_2greenlinestimulus20.png,TMTstop-control_1_2redlinestimulus20.png,TMT_Control,2,48,0,1,1,1,0,22,22,22,,,,,,,,,,,,,,,2,0,27.41459020000184,None,"['1', '2']",1,"[-0.09409470000537112, 0.017396900002495386]",27.41459020000184,None,,001,2022_May_10_1100,TMT_fmri,2021.2.3,None,
TMTstop-Control_1_2.xlsx,26:52,24,['3'],3,TMTstop-control_1_2linestimulus21.png,TMTstop-control_1_2greenlinestimulus21.png,TMTstop-control_1_2redlinestimulus21.png,TMT_Control,2,49,0,1,1,1,0,23,23,23,,,,,,,,,,,,,,,1,1,27.555651200003922,None,['3'],1,[-0.021059799997601658],27.555651200003922,None,,001,2022_May_10_1100,TMT_fmri,2021.2.3,None,
TMTstop-Control_1_2.xlsx,26:52,25,['1'],1,TMTstop-control_1_2linestimulus22.png,TMTstop-control_1_2greenlinestimulus22.png,TMTstop-control_1_2redlinestimulus22.png,TMT_Control,2,50,0,1,1,1,0,24,24,24,,,,,,,,,,,,,,,1,1,27.686988300003577,None,['1'],1,[-0.03126230000634678],27.686988300003577,None,,001,2022_May_10_1100,TMT_fmri,2021.2.3,None,
TMTstop-Control_1_2.xlsx,26:52,None,None,None,TMTstop-control_1_2linestimulus23.png,TMTstop-control_1_2greenlinestimulus23.png,TMTstop-control_1_2redlinestimulus23.png,TMT_Control,2,Feedback_last,0,1,1,1,0,25,25,25,,,,,,,,,,,,,,,2,0,27.82673220000288,None,"['3', '1']",0,"[0.024283100006869063, 0.18586870000581257]",27.82673220000288,None,,001,2022_May_10_1100,TMT_fmri,2021.2.3,None,
TMTstop-Control_1_3.xlsx,52:78,1,['2'],2,TMTstop-control_1_3.png,TMTstop-control_1_3.png,TMTstop-control_1_3.png,TMT_Control,3,51,0,2,2,2,0,0,0,0,,,,,,,,,,,,,,,2,0,31.909972099994775,None,"['1', '2']",1,"[0.41480359999695793, 0.5370131000090623]",31.909972099994775,None,,001,2022_May_10_1100,TMT_fmri,2021.2.3,None,
TMTstop-Control_1_3.xlsx,52:78,2,['1'],1,TMTstop-control_1_3.png,TMTstop-control_1_3firstgreen.png,TMTstop-control_1_3firstred.png,TMT_Control,3,52,0,2,2,2,0,1,1,1,,,,,,,,,,,,,,,2,0,32.60550679999869,None,"['3', '1']",1,"[-0.04383379999489989, 0.10425289999693632]",32.60550679999869,None,,001,2022_May_10_1100,TMT_fmri,2021.2.3,None,
TMTstop-Control_1_3.xlsx,52:78,3,['2'],2,TMTstop-control_1_3linestimulus0.png,TMTstop-control_1_3greenlinestimulus0.png,TMTstop-control_1_3redlinestimulus0.png,TMT_Control,3,53,0,2,2,2,0,2,2,2,,,,,,,,,,,,,,,1,1,32.87165489999461,None,['2'],1,[-0.08976989999064244],32.87165489999461,None,,001,2022_May_10_1100,TMT_fmri,2021.2.3,None,
TMTstop-Control_1_3.xlsx,52:78,4,['1'],1,TMTstop-control_1_3linestimulus1.png,TMTstop-control_1_3greenlinestimulus1.png,TMTstop-control_1_3redlinestimulus1.png,TMT_Control,3,54,0,2,2,2,0,3,3,3,,,,,,,,,,,,,,,2,0,33.008196199996746,None,"['3', '1']",1,"[-0.10656559999915771, 0.008276199994725175]",33.008196199996746,None,,001,2022_May_10_1100,TMT_fmri,2021.2.3,None,
TMTstop-Control_1_3.xlsx,52:78,5,['3'],3,TMTstop-control_1_3linestimulus2.png,TMTstop-control_1_3greenlinestimulus2.png,TMTstop-control_1_3redlinestimulus2.png,TMT_Control,3,55,0,2,2,2,0,4,4,4,,,,,,,,,,,,,,,2,0,33.1493552000029,None,"['2', '3']",1,"[-0.05812810000497848, 0.05653089999395888]",33.1493552000029,None,,001,2022_May_10_1100,TMT_fmri,2021.2.3,None,
TMTstop-Control_1_3.xlsx,52:78,6,['1'],1,TMTstop-control_1_3linestimulus3.png,TMTstop-control_1_3greenlinestimulus3.png,TMTstop-control_1_3redlinestimulus3.png,TMT_Control,3,56,0,2,2,2,0,5,5,5,,,,,,,,,,,,,,,4,0,33.42985810000391,None,"['1', '2', '3', '1']",1,"[-0.1011626000108663, -0.033907200006069615, 0.07234469999093562, 0.23203699999430683]",33.42985810000391,None,,001,2022_May_10_1100,TMT_fmri,2021.2.3,None,
TMTstop-Control_1_3.xlsx,52:78,7,['2'],2,TMTstop-control_1_3linestimulus4.png,TMTstop-control_1_3greenlinestimulus4.png,TMTstop-control_1_3redlinestimulus4.png,TMT_Control,3,57,0,2,2,2,0,6,6,6,,,,,,,,,,,,,,,1,1,33.84529179999663,None,['2'],1,[0.16441749999648891],33.84529179999663,None,,001,2022_May_10_1100,TMT_fmri,2021.2.3,None,
TMTstop-Control_1_3.xlsx,52:78,8,['3'],3,TMTstop-control_1_3linestimulus4.png,TMTstop-control_1_3greenlinestimulus5.png,TMTstop-control_1_3redlinestimulus5.png,TMT_Control,3,58,0,2,2,2,0,7,7,7,,,,,,,,,,,,,,,1,1,34.109906199999386,None,['3'],1,[0.0030377999937627465],34.109906199999386,None,,001,2022_May_10_1100,TMT_fmri,2021.2.3,None,
TMTstop-Control_1_3.xlsx,52:78,9,['1'],1,TMTstop-control_1_3linestimulus6.png,TMTstop-control_1_3greenlinestimulus6.png,TMTstop-control_1_3redlinestimulus6.png,TMT_Control,3,59,0,2,2,2,0,8,8,8,,,,,,,,,,,,,,,1,1,34.24995779999881,None,['1'],1,[-0.021871399992960505],34.24995779999881,None,,001,2022_May_10_1100,TMT_fmri,2021.2.3,None,
TMTstop-Control_1_3.xlsx,52:78,10,['2'],2,TMTstop-control_1_3linestimulus7.png,TMTstop-control_1_3greenlinestimulus7.png,TMTstop-control_1_3redlinestimulus7.png,TMT_Control,3,60,0,2,2,2,0,9,9,9,,,,,,,,,,,,,,,1,1,34.37554569999338,None,['2'],1,[-0.021102800004882738],34.37554569999338,None,,001,2022_May_10_1100,TMT_fmri,2021.2.3,None,
TMTstop-Control_1_3.xlsx,52:78,11,['1'],1,TMTstop-control_1_3linestimulus8.png,TMTstop-control_1_3greenlinestimulus8.png,TMTstop-control_1_3redlinestimulus8.png,TMT_Control,3,61,0,2,2,2,0,10,10,10,,,,,,,,,,,,,,,2,0,34.513965799997095,None,"['3', '1']",1,"[-0.09377900000254158, 0.03731250000419095]",34.513965799997095,None,,001,2022_May_10_1100,TMT_fmri,2021.2.3,None,
TMTstop-Control_1_3.xlsx,52:78,12,['2'],2,TMTstop-control_1_3linestimulus9.png,TMTstop-control_1_3greenlinestimulus9.png,TMTstop-control_1_3redlinestimulus9.png,TMT_Control,3,62,0,2,2,2,0,11,11,11,,,,,,,,,,,,,,,1,1,34.711802999998326,None,['2'],1,[-0.07108949999383185],34.711802999998326,None,,001,2022_May_10_1100,TMT_fmri,2021.2.3,None,
TMTstop-Control_1_3.xlsx,52:78,13,['3'],3,TMTstop-control_1_3linestimulus10.png,TMTstop-control_1_3greenlinestimulus10.png,TMTstop-control_1_3redlinestimulus10.png,TMT_Control,3,63,0,2,2,2,0,12,12,12,,,,,,,,,,,,,,,1,1,34.85074840000016,None,['3'],1,[-0.09804650000296533],34.85074840000016,None,,001,2022_May_10_1100,TMT_fmri,2021.2.3,None,
TMTstop-Control_1_3.xlsx,52:78,14,['2'],2,TMTstop-control_1_3linestimulus11.png,TMTstop-control_1_3greenlinestimulus11.png,TMTstop-control_1_3redlinestimulus11.png,TMT_Control,3,64,0,2,2,2,0,13,13,13,,,,,,,,,,,,,,,2,0,34.97730579999916,None,"['1', '2']",1,"[-0.09948350000195205, -0.01607030000013765]",34.97730579999916,None,,001,2022_May_10_1100,TMT_fmri,2021.2.3,None,
TMTstop-Control_1_3.xlsx,52:78,15,['1'],1,TMTstop-control_1_3linestimulus12.png,TMTstop-control_1_3greenlinestimulus12.png,TMTstop-control_1_3redlinestimulus12.png,TMT_Control,3,65,0,2,2,2,0,14,14,14,,,,,,,,,,,,,,,5,0,35.10295610000321,None,"['3', '1', '2', '3', '1']",1,"[-0.017903899992234074, 0.10520550000364892, 0.17742500000167638, 0.31696940000983886, 0.4435525000008056]",35.10295610000321,None,,001,2022_May_10_1100,TMT_fmri,2021.2.3,None,
TMTstop-Control_1_3.xlsx,52:78,16,['3'],3,TMTstop-control_1_3linestimulus13.png,TMTstop-control_1_3greenlinestimulus13.png,TMTstop-control_1_3redlinestimulus13.png,TMT_Control,3,66,0,2,2,2,0,15,15,15,,,,,,,,,,,,,,,2,0,35.718436800001655,None,"['2', '3']",1,"[-0.07547409999824595, 0.04469589999644086]",35.718436800001655,None,,001,2022_May_10_1100,TMT_fmri,2021.2.3,None,
TMTstop-Control_1_3.xlsx,52:78,17,['1'],1,TMTstop-control_1_3linestimulus14.png,TMTstop-control_1_3greenlinestimulus14.png,TMTstop-control_1_3redlinestimulus14.png,TMT_Control,3,67,0,2,2,2,0,16,16,16,,,,,,,,,,,,,,,1,1,35.859427999996115,None,['1'],1,[0.049969900006544776],35.859427999996115,None,,001,2022_May_10_1100,TMT_fmri,2021.2.3,None,
TMTstop-Control_1_3.xlsx,52:78,18,['3'],3,TMTstop-control_1_3linestimulus15.png,TMTstop-control_1_3greenlinestimulus15.png,TMTstop-control_1_3redlinestimulus15.png,TMT_Control,3,68,0,2,2,2,0,17,17,17,,,,,,,,,,,,,,,2,0,36.00130879999779,None,"['2', '3']",1,"[-0.0202584999933606, 0.09641450000344776]",36.00130879999779,None,,001,2022_May_10_1100,TMT_fmri,2021.2.3,None,
TMTstop-Control_1_3.xlsx,52:78,19,['2'],2,TMTstop-control_1_3linestimulus16.png,TMTstop-control_1_3greenlinestimulus16.png,TMTstop-control_1_3redlinestimulus16.png,TMT_Control,3,69,0,2,2,2,0,18,18,18,,,,,,,,,,,,,,,2,0,36.26366159999452,None,"['1', '2']",1,"[-0.037286199993104674, 0.009003400002256967]",36.26366159999452,None,,001,2022_May_10_1100,TMT_fmri,2021.2.3,None,
TMTstop-Control_1_3.xlsx,52:78,20,['1'],1,TMTstop-control_1_3linestimulus17.png,TMTstop-control_1_3greenlinestimulus17.png,TMTstop-control_1_3redlinestimulus17.png,TMT_Control,3,70,0,2,2,2,0,19,19,19,,,,,,,,,,,,,,,2,0,36.40113499999279,None,"['3', '1']",1,"[-0.00016320000577252358, 0.1576125999999931]",36.40113499999279,None,,001,2022_May_10_1100,TMT_fmri,2021.2.3,None,
TMTstop-Control_1_3.xlsx,52:78,21,['3'],3,TMTstop-control_1_3linestimulus18.png,TMTstop-control_1_3greenlinestimulus18.png,TMTstop-control_1_3redlinestimulus18.png,TMT_Control,3,71,0,2,2,2,0,20,20,20,,,,,,,,,,,,,,,2,0,36.67670579999685,None,"['2', '3']",1,"[-0.04802440000639763, 0.09456739999586716]",36.67670579999685,None,,001,2022_May_10_1100,TMT_fmri,2021.2.3,None,
TMTstop-Control_1_3.xlsx,52:78,22,['2'],2,TMTstop-control_1_3linestimulus19.png,TMTstop-control_1_3greenlinestimulus19.png,TMTstop-control_1_3redlinestimulus19.png,TMT_Control,3,72,0,2,2,2,0,21,21,21,,,,,,,,,,,,,,,2,0,36.94256759999553,None,"['1', '2']",1,"[-0.05306469999777619, 0.05803780000132974]",36.94256759999553,None,,001,2022_May_10_1100,TMT_fmri,2021.2.3,None,
TMTstop-Control_1_3.xlsx,52:78,23,['3'],3,TMTstop-control_1_3linestimulus20.png,TMTstop-control_1_3greenlinestimulus20.png,TMTstop-control_1_3redlinestimulus20.png,TMT_Control,3,73,0,2,2,2,0,22,22,22,,,,,,,,,,,,,,,1,1,37.13251239999954,None,['3'],1,[-0.007721599991782568],37.13251239999954,None,,001,2022_May_10_1100,TMT_fmri,2021.2.3,None,
TMTstop-Control_1_3.xlsx,52:78,24,['1'],1,TMTstop-control_1_3linestimulus21.png,TMTstop-control_1_3greenlinestimulus21.png,TMTstop-control_1_3redlinestimulus21.png,TMT_Control,3,74,0,2,2,2,0,23,23,23,,,,,,,,,,,,,,,1,1,37.27237540000351,None,['1'],1,[-0.025935900004697032],37.27237540000351,None,,001,2022_May_10_1100,TMT_fmri,2021.2.3,None,
TMTstop-Control_1_3.xlsx,52:78,25,['2'],2,TMTstop-control_1_3linestimulus22.png,TMTstop-control_1_3greenlinestimulus22.png,TMTstop-control_1_3redlinestimulus22.png,TMT_Control,3,75,0,2,2,2,0,24,24,24,,,,,,,,,,,,,,,1,1,37.413876199992956,None,['2'],1,[-0.07911479999893345],37.413876199992956,None,,001,2022_May_10_1100,TMT_fmri,2021.2.3,None,
TMTstop-Control_1_3.xlsx,52:78,None,None,None,TMTstop-control_1_3linestimulus23.png,TMTstop-control_1_3greenlinestimulus23.png,TMTstop-control_1_3redlinestimulus23.png,TMT_Control,3,Feedback_last,0,2,2,2,0,25,25,25,,,,,,,,,,,,,,,4,0,37.552752599993255,None,"['3', '1', '2', '3']",0,"[-0.09058819999336265, 0.023232999999891035, 0.08728530000371393, 0.22755989999859594]",37.552752599993255,None,,001,2022_May_10_1100,TMT_fmri,2021.2.3,None,
TMTstop-Control_1_4.xlsx,78:104,1,['2'],2,TMTstop-control_1_4.png,TMTstop-control_1_4.png,TMTstop-control_1_4.png,TMT_Control,4,76,0,3,3,3,0,0,0,0,,,,,,,,,,,,,,,2,0,41.68738350000058,None,"['1', '2']",1,"[0.33935969999583904, 0.4661296999984188]",41.68738350000058,None,,001,2022_May_10_1100,TMT_fmri,2021.2.3,None,
TMTstop-Control_1_4.xlsx,78:104,2,['1'],1,TMTstop-control_1_4.png,TMTstop-control_1_4firstgreen.png,TMTstop-control_1_4firstred.png,TMT_Control,4,77,0,3,3,3,0,1,1,1,,,,,,,,,,,,,,,2,0,42.2704711999977,None,"['3', '1']",1,"[-0.011971499989158474, 0.1622848000115482]",42.2704711999977,None,,001,2022_May_10_1100,TMT_fmri,2021.2.3,None,
TMTstop-Control_1_4.xlsx,78:104,3,['3'],3,TMTstop-control_1_4linestimulus0.png,TMTstop-control_1_4greenlinestimulus0.png,TMTstop-control_1_4redlinestimulus0.png,TMT_Control,4,78,0,3,3,3,0,2,2,2,,,,,,,,,,,,,,,2,0,42.55138109999825,None,"['2', '3']",1,"[-0.05237060000945348, 0.081720399990445]",42.55138109999825,None,,001,2022_May_10_1100,TMT_fmri,2021.2.3,None,
TMTstop-Control_1_4.xlsx,78:104,4,['1'],1,TMTstop-control_1_4linestimulus1.png,TMTstop-control_1_4greenlinestimulus1.png,TMTstop-control_1_4redlinestimulus1.png,TMT_Control,4,79,0,3,3,3,0,3,3,3,,,,,,,,,,,,,,,1,1,42.815414199998486,None,['1'],1,[-0.03926060000958387],42.815414199998486,None,,001,2022_May_10_1100,TMT_fmri,2021.2.3,None,
TMTstop-Control_1_4.xlsx,78:104,5,['3'],3,TMTstop-control_1_4linestimulus2.png,TMTstop-control_1_4greenlinestimulus2.png,TMTstop-control_1_4redlinestimulus2.png,TMT_Control,4,80,0,3,3,3,0,4,4,4,,,,,,,,,,,,,,,2,0,42.95558429999801,None,"['2', '3']",1,"[-0.13325120000808965, 0.00917710000067018]",42.95558429999801,None,,001,2022_May_10_1100,TMT_fmri,2021.2.3,None,
TMTstop-Control_1_4.xlsx,78:104,6,['1'],1,TMTstop-control_1_4linestimulus3.png,TMTstop-control_1_4greenlinestimulus3.png,TMTstop-control_1_4redlinestimulus3.png,TMT_Control,4,81,0,3,3,3,0,5,5,5,,,,,,,,,,,,,,,1,1,43.08047929999884,None,['1'],1,[0.02093530001002364],43.08047929999884,None,,001,2022_May_10_1100,TMT_fmri,2021.2.3,None,
TMTstop-Control_1_4.xlsx,78:104,7,['3'],3,TMTstop-control_1_4linestimulus4.png,TMTstop-control_1_4greenlinestimulus4.png,TMTstop-control_1_4redlinestimulus4.png,TMT_Control,4,82,0,3,3,3,0,6,6,6,,,,,,,,,,,,,,,2,0,43.206332500005374,None,"['2', '3']",1,"[-0.04099259999929927, 0.08500049999565817]",43.206332500005374,None,,001,2022_May_10_1100,TMT_fmri,2021.2.3,None,
TMTstop-Control_1_4.xlsx,78:104,8,['1'],1,TMTstop-control_1_4linestimulus4.png,TMTstop-control_1_4greenlinestimulus5.png,TMTstop-control_1_4redlinestimulus5.png,TMT_Control,4,83,0,3,3,3,0,7,7,7,,,,,,,,,,,,,,,1,1,43.456917499992414,None,['1'],1,[-0.05205589999968652],43.456917499992414,None,,001,2022_May_10_1100,TMT_fmri,2021.2.3,None,
TMTstop-Control_1_4.xlsx,78:104,9,['3'],3,TMTstop-control_1_4linestimulus6.png,TMTstop-control_1_4greenlinestimulus6.png,TMTstop-control_1_4redlinestimulus6.png,TMT_Control,4,84,0,3,3,3,0,8,8,8,,,,,,,,,,,,,,,2,0,43.59825219999766,None,"['2', '3']",1,"[-0.10300309999729507, 0.013688799997908063]",43.59825219999766,None,,001,2022_May_10_1100,TMT_fmri,2021.2.3,None,
TMTstop-Control_1_4.xlsx,78:104,10,['2'],2,TMTstop-control_1_4linestimulus7.png,TMTstop-control_1_4greenlinestimulus7.png,TMTstop-control_1_4redlinestimulus7.png,TMT_Control,4,85,0,3,3,3,0,9,9,9,,,,,,,,,,,,,,,2,0,43.73918400000548,None,"['1', '2']",1,"[-0.009055399990756996, 0.08312440000008792]",43.73918400000548,None,,001,2022_May_10_1100,TMT_fmri,2021.2.3,None,
TMTstop-Control_1_4.xlsx,78:104,11,['1'],1,TMTstop-control_1_4linestimulus8.png,TMTstop-control_1_4greenlinestimulus8.png,TMTstop-control_1_4redlinestimulus8.png,TMT_Control,4,86,0,3,3,3,0,10,10,10,,,,,,,,,,,,,,,2,0,44.018611799998325,None,"['3', '1']",1,"[-0.08544750000874046, 0.028950299994903617]",44.018611799998325,None,,001,2022_May_10_1100,TMT_fmri,2021.2.3,None,
TMTstop-Control_1_4.xlsx,78:104,12,['3'],3,TMTstop-control_1_4linestimulus9.png,TMTstop-control_1_4greenlinestimulus9.png,TMTstop-control_1_4redlinestimulus9.png,TMT_Control,4,87,0,3,3,3,0,11,11,11,,,,,,,,,,,,,,,2,0,44.14735179999843,None,"['2', '3']",1,"[0.042518999995081685, 0.11022499999671709]",44.14735179999843,None,,001,2022_May_10_1100,TMT_fmri,2021.2.3,None,
TMTstop-Control_1_4.xlsx,78:104,13,['2'],2,TMTstop-control_1_4linestimulus10.png,TMTstop-control_1_4greenlinestimulus10.png,TMTstop-control_1_4redlinestimulus10.png,TMT_Control,4,88,0,3,3,3,0,12,12,12,,,,,,,,,,,,,,,2,0,44.40814759999921,None,"['1', '2']",1,"[0.011194699996849522, 0.11296880000736564]",44.40814759999921,None,,001,2022_May_10_1100,TMT_fmri,2021.2.3,None,
TMTstop-Control_1_4.xlsx,78:104,14,['3'],3,TMTstop-control_1_4linestimulus11.png,TMTstop-control_1_4greenlinestimulus11.png,TMTstop-control_1_4redlinestimulus11.png,TMT_Control,4,89,0,3,3,3,0,13,13,13,,,,,,,,,,,,,,,1,1,44.67811079999956,None,['3'],1,[-0.0447204999945825],44.67811079999956,None,,001,2022_May_10_1100,TMT_fmri,2021.2.3,None,
TMTstop-Control_1_4.xlsx,78:104,15,['2'],2,TMTstop-control_1_4linestimulus12.png,TMTstop-control_1_4greenlinestimulus12.png,TMTstop-control_1_4redlinestimulus12.png,TMT_Control,4,90,0,3,3,3,0,14,14,14,,,,,,,,,,,,,,,2,0,44.80303159999312,None,"['1', '2']",1,"[-0.032734699998400174, 0.041454699996393174]",44.80303159999312,None,,001,2022_May_10_1100,TMT_fmri,2021.2.3,None,
TMTstop-Control_1_4.xlsx,78:104,16,['1'],1,TMTstop-control_1_4linestimulus13.png,TMTstop-control_1_4greenlinestimulus13.png,TMTstop-control_1_4redlinestimulus13.png,TMT_Control,4,91,0,3,3,3,0,15,15,15,,,,,,,,,,,,,,,2,0,44.92802649999794,None,"['3', '1']",1,"[0.04782789999444503, 0.1767245999944862]",44.92802649999794,None,,001,2022_May_10_1100,TMT_fmri,2021.2.3,None,
TMTstop-Control_1_4.xlsx,78:104,17,['3'],3,TMTstop-control_1_4linestimulus14.png,TMTstop-control_1_4greenlinestimulus14.png,TMTstop-control_1_4redlinestimulus14.png,TMT_Control,4,92,0,3,3,3,0,16,16,16,,,,,,,,,,,,,,,2,0,45.33253529999638,None,"['2', '3']",1,"[-0.13543470000149682, -0.003431400007684715]",45.33253529999638,None,,001,2022_May_10_1100,TMT_fmri,2021.2.3,None,
TMTstop-Control_1_4.xlsx,78:104,18,['1'],1,TMTstop-control_1_4linestimulus15.png,TMTstop-control_1_4greenlinestimulus15.png,TMTstop-control_1_4redlinestimulus15.png,TMT_Control,4,93,0,3,3,3,0,17,17,17,,,,,,,,,,,,,,,1,1,45.45849350000208,None,['1'],1,[-0.004758199997013435],45.45849350000208,None,,001,2022_May_10_1100,TMT_fmri,2021.2.3,None,
TMTstop-Control_1_4.xlsx,78:104,19,['2'],2,TMTstop-control_1_4linestimulus16.png,TMTstop-control_1_4greenlinestimulus16.png,TMTstop-control_1_4redlinestimulus16.png,TMT_Control,4,94,0,3,3,3,0,18,18,18,,,,,,,,,,,,,,,1,1,45.59751039999537,None,['2'],1,[-0.08180470000661444],45.59751039999537,None,,001,2022_May_10_1100,TMT_fmri,2021.2.3,None,
TMTstop-Control_1_4.xlsx,78:104,20,['1'],1,TMTstop-control_1_4linestimulus17.png,TMTstop-control_1_4greenlinestimulus17.png,TMTstop-control_1_4redlinestimulus17.png,TMT_Control,4,95,0,3,3,3,0,19,19,19,,,,,,,,,,,,,,,5,0,45.72168590000365,None,"['3', '1', '2', '3', '1']",1,"[-0.08516820000659209, 0.05258550000144169, 0.1339906999928644, 0.26457070000469685, 0.38817639999615494]",45.72168590000365,None,,001,2022_May_10_1100,TMT_fmri,2021.2.3,None,
TMTstop-Control_1_4.xlsx,78:104,21,['2'],2,TMTstop-control_1_4linestimulus18.png,TMTstop-control_1_4greenlinestimulus18.png,TMTstop-control_1_4redlinestimulus18.png,TMT_Control,4,96,0,3,3,3,0,20,20,20,,,,,,,,,,,,,,,1,1,46.26958599999489,None,['2'],1,[-0.05688769998960197],46.26958599999489,None,,001,2022_May_10_1100,TMT_fmri,2021.2.3,None,
TMTstop-Control_1_4.xlsx,78:104,22,['1'],1,TMTstop-control_1_4linestimulus19.png,TMTstop-control_1_4greenlinestimulus19.png,TMTstop-control_1_4redlinestimulus19.png,TMT_Control,4,97,0,3,3,3,0,21,21,21,,,,,,,,,,,,,,,2,0,46.410247799998615,None,"['3', '1']",1,"[-0.08130130000063218, 0.07473910000408068]",46.410247799998615,None,,001,2022_May_10_1100,TMT_fmri,2021.2.3,None,
TMTstop-Control_1_4.xlsx,78:104,23,['2'],2,TMTstop-control_1_4linestimulus20.png,TMTstop-control_1_4greenlinestimulus20.png,TMTstop-control_1_4redlinestimulus20.png,TMT_Control,4,98,0,3,3,3,0,22,22,22,,,,,,,,,,,,,,,1,1,46.67457010000362,None,['2'],1,[-0.11065500001132023],46.67457010000362,None,,001,2022_May_10_1100,TMT_fmri,2021.2.3,None,
TMTstop-Control_1_4.xlsx,78:104,24,['1'],1,TMTstop-control_1_4linestimulus21.png,TMTstop-control_1_4greenlinestimulus21.png,TMTstop-control_1_4redlinestimulus21.png,TMT_Control,4,99,0,3,3,3,0,23,23,23,,,,,,,,,,,,,,,2,0,46.81458370000473,None,"['3', '1']",1,"[-0.11782469999161549, -0.00016299998969770968]",46.81458370000473,None,,001,2022_May_10_1100,TMT_fmri,2021.2.3,None,
TMTstop-Control_1_4.xlsx,78:104,25,['2'],2,TMTstop-control_1_4linestimulus22.png,TMTstop-control_1_4greenlinestimulus22.png,TMTstop-control_1_4redlinestimulus22.png,TMT_Control,4,100,0,3,3,3,0,24,24,24,,,,,,,,,,,,,,,1,1,46.9556123999937,None,['2'],1,[-0.06666039999981876],46.9556123999937,None,,001,2022_May_10_1100,TMT_fmri,2021.2.3,None,
TMTstop-Control_1_4.xlsx,78:104,None,None,None,TMTstop-control_1_4linestimulus23.png,TMTstop-control_1_4greenlinestimulus23.png,TMTstop-control_1_4redlinestimulus23.png,TMT_Control,4,Feedback_last,0,3,3,3,0,25,25,25,,,,,,,,,,,,,,,1,1,47.08124569999927,None,['3'],0,[-0.014326499993330799],47.08124569999927,None,,001,2022_May_10_1100,TMT_fmri,2021.2.3,None,
TMTstop-A_1_1.xlsx,0:26,1,['1'],1,TMTstop-A_1_1.png,TMTstop-A_1_1.png,TMTstop-A_1_1.png,TMT_A,1,1,,,,,,,,,0,0,0,0,0,0,0,0,,,,,,,1,1,61.25998740000068,None,['1'],1,[1.3120714999968186],61.25998740000068,None,,001,2022_May_10_1100,TMT_fmri,2021.2.3,None,
,,,,,,,,,,,,,,,,,,,,,,,,,,,,,,,,,0,0,,,,,,,,,,,,,,
