NumberLetter,corrAns,Correct,StimFile,Correct_StimFile,False_StimFile,Version,Block,TrialNumber_session,n,Stim.started_mean,Stim.started_raw,Stim.started_std,Stim.stopped_raw,key_resp_2.corr_mean,key_resp_2.corr_raw,key_resp_2.corr_std,key_resp_2.keys_raw,key_resp_2.rt_raw,key_resp_2.started_mean,key_resp_2.started_raw,key_resp_2.started_std,key_resp_2.stopped_raw,order
1,['1'],1,TMTstop-A_1_1.png,TMTstop-A_1_1.png,TMTstop-A_1_1.png,TMT_A,1,1,1.0,33.00194549560547,33.00194549560547,0.0,,1.0,1.0,0.0,1,1.2619273000018438,33.00194549560547,33.00194549560547,0.0,,0.0
2,['3'],3,TMTstop-A_1_1.png,TMTstop-A_1_1firstgreen.png,TMTstop-A_1_1firstred.png,TMT_A,1,2,1.0,34.342498779296875,34.342498779296875,0.0,,1.0,1.0,0.0,3,0.7514541999989888,34.342498779296875,34.342498779296875,0.0,,1.0
3,['1'],1,TMTstop-A_1_1linestimulus0.png,TMTstop-A_1_1greenlinestimulus0.png,TMTstop-A_1_1redlinestimulus0.png,TMT_A,1,3,1.0,35.175899505615234,35.175899505615234,0.0,,1.0,1.0,0.0,1,0.8795456999941962,35.175899505615234,35.175899505615234,0.0,,2.0
4,['3'],3,TMTstop-A_1_1linestimulus1.png,TMTstop-A_1_1greenlinestimulus1.png,TMTstop-A_1_1redlinestimulus1.png,TMT_A,1,4,1.0,36.13463592529297,36.13463592529297,0.0,,1.0,1.0,0.0,3,0.44208660000003874,36.13463592529297,36.13463592529297,0.0,,3.0
5,['1'],1,TMTstop-A_1_1linestimulus2.png,TMTstop-A_1_1greenlinestimulus2.png,TMTstop-A_1_1redlinestimulus2.png,TMT_A,1,5,1.0,36.654991149902344,36.654991149902344,0.0,,1.0,1.0,0.0,1,0.34334120000130497,36.654991149902344,36.654991149902344,0.0,,4.0
6,['3'],3,TMTstop-A_1_1linestimulus3.png,TMTstop-A_1_1greenlinestimulus3.png,TMTstop-A_1_1redlinestimulus3.png,TMT_A,1,6,1.0,37.085487365722656,37.085487365722656,0.0,,1.0,1.0,0.0,2,3,0.2992981999996118,0.6095907999988412,37.085487365722656,37.085487365722656,0.0,,5.0
7,['1'],1,TMTstop-A_1_1linestimulus4.png,TMTstop-A_1_1greenlinestimulus4.png,TMTstop-A_1_1redlinestimulus4.png,TMT_A,1,7,1.0,37.8078498840332,37.8078498840332,0.0,,1.0,1.0,0.0,1,0.09385859999747481,37.8078498840332,37.8078498840332,0.0,,6.0
8,['2'],2,TMTstop-A_1_1linestimulus5.png,TMTstop-A_1_1greenlinestimulus5.png,TMTstop-A_1_1redlinestimulus5.png,TMT_A,1,8,1.0,37.98188018798828,37.98188018798828,0.0,,1.0,1.0,0.0,2,0.019225900003220886,37.98188018798828,37.98188018798828,0.0,,7.0
9,['3'],3,TMTstop-A_1_1linestimulus6.png,TMTstop-A_1_1greenlinestimulus6.png,TMTstop-A_1_1redlinestimulus6.png,TMT_A,1,9,1.0,38.07861328125,38.07861328125,0.0,,1.0,1.0,0.0,3,0.0012952000106452033,38.07861328125,38.07861328125,0.0,,8.0
10,['1'],1,TMTstop-A_1_1linestimulus7.png,TMTstop-A_1_1greenlinestimulus7.png,TMTstop-A_1_1redlinestimulus7.png,TMT_A,1,10,1.0,38.161643981933594,38.161643981933594,0.0,,1.0,1.0,0.0,1,0.07849990000249818,38.161643981933594,38.161643981933594,0.0,,9.0
11,['3'],3,TMTstop-A_1_1linestimulus8.png,TMTstop-A_1_1greenlinestimulus8.png,TMTstop-A_1_1redlinestimulus8.png,TMT_A,1,11,1.0,38.321475982666016,38.321475982666016,0.0,,1.0,1.0,0.0,2,3,-0.0319761999999173,0.055105499995988794,38.321475982666016,38.321475982666016,0.0,,10.0
12,['2'],2,TMTstop-A_1_1linestimulus9.png,TMTstop-A_1_1greenlinestimulus9.png,TMTstop-A_1_1redlinestimulus9.png,TMT_A,1,12,1.0,38.481544494628906,38.481544494628906,0.0,,1.0,1.0,0.0,1,2,0.02899819999583997,0.08740799999213777,38.481544494628906,38.481544494628906,0.0,,11.0
13,['1'],1,TMTstop-A_1_1linestimulus10.png,TMTstop-A_1_1greenlinestimulus10.png,TMTstop-A_1_1redlinestimulus10.png,TMT_A,1,13,1.0,38.68293380737305,38.68293380737305,0.0,,1.0,1.0,0.0,3,1,-0.03103420000115875,0.10200159999658354,38.68293380737305,38.68293380737305,0.0,,12.0
14,['2'],2,TMTstop-A_1_1linestimulus11.png,TMTstop-A_1_1greenlinestimulus11.png,TMTstop-A_1_1redlinestimulus11.png,TMT_A,1,14,1.0,38.87710952758789,38.87710952758789,0.0,,1.0,1.0,0.0,2,-0.03330769999593031,38.87710952758789,38.87710952758789,0.0,,13.0
15,['1'],1,TMTstop-A_1_1linestimulus12.png,TMTstop-A_1_1greenlinestimulus12.png,TMTstop-A_1_1redlinestimulus12.png,TMT_A,1,15,1.0,38.95347595214844,38.95347595214844,0.0,,1.0,1.0,0.0,3,1,-0.009507599999778904,0.13378150000062305,38.95347595214844,38.95347595214844,0.0,,14.0
16,['2'],2,TMTstop-A_1_1linestimulus13.png,TMTstop-A_1_1greenlinestimulus13.png,TMTstop-A_1_1redlinestimulus13.png,TMT_A,1,16,1.0,39.19666290283203,39.19666290283203,0.0,,1.0,1.0,0.0,2,-0.05837749999773223,39.19666290283203,39.19666290283203,0.0,,15.0
17,['1'],1,TMTstop-A_1_1linestimulus14.png,TMTstop-A_1_1greenlinestimulus14.png,TMTstop-A_1_1redlinestimulus14.png,TMT_A,1,17,1.0,39.27309036254883,39.27309036254883,0.0,,1.0,1.0,0.0,3,1,-0.016281699994578958,0.10346379999828059,39.27309036254883,39.27309036254883,0.0,,16.0
18,['3'],3,TMTstop-A_1_1linestimulus15.png,TMTstop-A_1_1greenlinestimulus15.png,TMTstop-A_1_1redlinestimulus15.png,TMT_A,1,18,1.0,39.47467803955078,39.47467803955078,0.0,,1.0,1.0,0.0,2,3,-0.05781359999673441,0.06250250000448432,39.47467803955078,39.47467803955078,0.0,,17.0
19,['2'],2,TMTstop-A_1_1linestimulus16.png,TMTstop-A_1_1greenlinestimulus16.png,TMTstop-A_1_1redlinestimulus16.png,TMT_A,1,19,1.0,39.62724685668945,39.62724685668945,0.0,,1.0,1.0,0.0,1,2,0.037508499997784384,0.09298079999280162,39.62724685668945,39.62724685668945,0.0,,18.0
20,['3'],3,TMTstop-A_1_1linestimulus17.png,TMTstop-A_1_1greenlinestimulus17.png,TMTstop-A_1_1redlinestimulus17.png,TMT_A,1,20,1.0,39.82851028442383,39.82851028442383,0.0,,1.0,1.0,0.0,3,-0.012546600002679043,39.82851028442383,39.82851028442383,0.0,,19.0
21,['1'],1,TMTstop-A_1_1linestimulus18.png,TMTstop-A_1_1greenlinestimulus18.png,TMTstop-A_1_1redlinestimulus18.png,TMT_A,1,21,1.0,39.90544509887695,39.90544509887695,0.0,,1.0,1.0,0.0,1,0.048611599995638244,39.90544509887695,39.90544509887695,0.0,,20.0
22,['3'],3,TMTstop-A_1_1linestimulus19.png,TMTstop-A_1_1greenlinestimulus19.png,TMTstop-A_1_1redlinestimulus19.png,TMT_A,1,22,1.0,40.036834716796875,40.036834716796875,0.0,,1.0,1.0,0.0,2,3,-0.03776550000475254,0.08800920000066981,40.036834716796875,40.036834716796875,0.0,,21.0
23,['1'],1,TMTstop-A_1_1linestimulus20.png,TMTstop-A_1_1greenlinestimulus20.png,TMTstop-A_1_1redlinestimulus20.png,TMT_A,1,23,1.0,40.23809814453125,40.23809814453125,0.0,,1.0,1.0,0.0,1,0.004654599993955344,40.23809814453125,40.23809814453125,0.0,,22.0
24,['3'],3,TMTstop-A_1_1linestimulus21.png,TMTstop-A_1_1greenlinestimulus21.png,TMTstop-A_1_1redlinestimulus21.png,TMT_A,1,24,1.0,40.32836151123047,40.32836151123047,0.0,,1.0,1.0,0.0,2,3,-0.054128900010255165,0.07656919999863021,40.32836151123047,40.32836151123047,0.0,,23.0
25,['1'],1,TMTstop-A_1_1linestimulus22.png,TMTstop-A_1_1greenlinestimulus22.png,TMTstop-A_1_1redlinestimulus22.png,TMT_A,1,25,1.0,40.49595642089844,40.49595642089844,0.0,,1.0,1.0,0.0,1,0.017416700007743202,40.49595642089844,40.49595642089844,0.0,,24.0
None,None,None,TMTstop-A_1_1linestimulus23.png,TMTstop-A_1_1greenlinestimulus23.png,TMTstop-A_1_1redlinestimulus23.png,TMT_A,1,Feedback_last,1.0,40.5998420715332,40.5998420715332,0.0,,0.0,0.0,0.0,2,3,1,2,3,1,2,3,2,2,2,-0.021897899991017766,0.07371039999998175,0.1850412000057986,0.2581938000075752,0.35240230000636075,0.4718944000051124,0.5383251000021119,0.6588647000025958,0.746213100006571,0.8173940999986371,1.0084218999982113,40.5998420715332,40.5998420715332,0.0,,25.0

extraInfo
participant,
session,001
date,2022_Mar_30_1524
expName,TMT_fmri
psychopyVersion,2021.2.3
frameRate,143.55976535962884
﻿NumberLetter,corrAns,Correct,StimFile,Correct_StimFile,False_StimFile,Version,Block,TrialNumber_session,n,Stim.started_raw,Stim.stopped_raw,key_resp_2.corr_mean,key_resp_2.corr_raw,key_resp_2.corr_std,key_resp_2.keys_raw,key_resp_2.rt_raw,key_resp_2.started_raw,key_resp_2.stopped_raw,order
1,['1'],1,TMTstop-A_1_2.png,TMTstop-A_1_2.png,TMTstop-A_1_2.png,TMT_A,2,26,1.0,'44.745415',,1.0,1.0,0.0,1,0.800115400008508,'44.745415',,0.0
2,['3'],3,TMTstop-A_1_2.png,TMTstop-A_1_2firstgreen.png,TMTstop-A_1_2firstred.png,TMT_A,2,27,1.0,'45.627094',,1.0,1.0,0.0,2,3,0.0026840000064112246,0.07571370000368915,'45.627094',,1.0
3,['1'],1,TMTstop-A_1_2linestimulus0.png,TMTstop-A_1_2greenlinestimulus0.png,TMTstop-A_1_2redlinestimulus0.png,TMT_A,2,28,1.0,'45.79373',,1.0,1.0,0.0,1,0.046733600000152364,'45.79373',,2.0
4,['2'],2,TMTstop-A_1_2linestimulus1.png,TMTstop-A_1_2greenlinestimulus1.png,TMTstop-A_1_2redlinestimulus1.png,TMT_A,2,29,1.0,'45.918865',,1.0,1.0,0.0,2,-0.006278600005316548,'45.918865',,3.0
5,['1'],1,TMTstop-A_1_2linestimulus2.png,TMTstop-A_1_2greenlinestimulus2.png,TMTstop-A_1_2redlinestimulus2.png,TMT_A,2,30,1.0,'45.995056',,1.0,1.0,0.0,3,1,-0.015515699997195043,0.11692390000098385,'45.995056',,4.0
6,['3'],3,TMTstop-A_1_2linestimulus3.png,TMTstop-A_1_2greenlinestimulus3.png,TMTstop-A_1_2redlinestimulus3.png,TMT_A,2,31,1.0,'46.219276',,1.0,1.0,0.0,2,3,-0.07180589999188669,0.03490090000559576,'46.219276',,5.0
7,['2'],2,TMTstop-A_1_2linestimulus4.png,TMTstop-A_1_2greenlinestimulus4.png,TMTstop-A_1_2redlinestimulus4.png,TMT_A,2,32,1.0,'46.47874',,1.0,1.0,0.0,1,2,-0.10292970000591595,-0.009197299994411878,'46.47874',,6.0
8,['1'],1,TMTstop-A_1_2linestimulus5.png,TMTstop-A_1_2greenlinestimulus5.png,TMTstop-A_1_2redlinestimulus5.png,TMT_A,2,33,1.0,'46.557587',,1.0,1.0,0.0,3,1,-0.032822099994518794,0.11048770000343211,'46.557587',,7.0
9,['3'],3,TMTstop-A_1_2linestimulus6.png,TMTstop-A_1_2greenlinestimulus6.png,TMTstop-A_1_2redlinestimulus6.png,TMT_A,2,34,1.0,'46.752365',,1.0,1.0,0.0,2,3,-0.036758599992026575,0.059438399999635294,'46.752365',,8.0
10,['2'],2,TMTstop-A_1_2linestimulus7.png,TMTstop-A_1_2greenlinestimulus7.png,TMTstop-A_1_2redlinestimulus7.png,TMT_A,2,35,1.0,'46.911877',,1.0,1.0,0.0,1,2,0.02510410000104457,0.10692400000698399,'46.911877',,9.0
11,['1'],1,TMTstop-A_1_2linestimulus8.png,TMTstop-A_1_2greenlinestimulus8.png,TMTstop-A_1_2redlinestimulus8.png,TMT_A,2,36,1.0,'47.0999',,1.0,1.0,0.0,3,1,0.007716899999650195,0.1382871000096202,'47.0999',,10.0
12,['2'],2,TMTstop-A_1_2linestimulus9.png,TMTstop-A_1_2greenlinestimulus9.png,TMTstop-A_1_2redlinestimulus9.png,TMT_A,2,37,1.0,'47.314384',,1.0,1.0,0.0,2,0.004803999996511266,'47.314384',,11.0
13,['1'],1,TMTstop-A_1_2linestimulus10.png,TMTstop-A_1_2greenlinestimulus10.png,TMTstop-A_1_2redlinestimulus10.png,TMT_A,2,38,1.0,'47.404865',,1.0,1.0,0.0,3,1,-0.004275300001609139,0.12374959999579005,'47.404865',,12.0
14,['3'],3,TMTstop-A_1_2linestimulus11.png,TMTstop-A_1_2greenlinestimulus11.png,TMTstop-A_1_2redlinestimulus11.png,TMT_A,2,39,1.0,'47.606293',,1.0,1.0,0.0,2,3,-0.028576899989275262,0.06886300000769552,'47.606293',,13.0
15,['1'],1,TMTstop-A_1_2linestimulus12.png,TMTstop-A_1_2greenlinestimulus12.png,TMTstop-A_1_2redlinestimulus12.png,TMT_A,2,40,1.0,'47.765987',,1.0,1.0,0.0,1,0.022386600001482293,'47.765987',,14.0
16,['3'],3,TMTstop-A_1_2linestimulus13.png,TMTstop-A_1_2greenlinestimulus13.png,TMTstop-A_1_2redlinestimulus13.png,TMT_A,2,41,1.0,'47.87128',,1.0,1.0,0.0,2,3,-0.01092159999825526,0.07921080000232905,'47.87128',,15.0
17,['1'],1,TMTstop-A_1_2linestimulus14.png,TMTstop-A_1_2greenlinestimulus14.png,TMTstop-A_1_2redlinestimulus14.png,TMT_A,2,42,1.0,48.02188309999474,,0.0,0.0,0.0,,'--',48.02188309999474,,16.0
18,['2'],2,TMTstop-A_1_2linestimulus15.png,TMTstop-A_1_2greenlinestimulus15.png,TMTstop-A_1_2redlinestimulus15.png,TMT_A,2,43,0.0,'--','--',,,,'--','--','--','--',
19,['1'],1,TMTstop-A_1_2linestimulus16.png,TMTstop-A_1_2greenlinestimulus16.png,TMTstop-A_1_2redlinestimulus16.png,TMT_A,2,44,0.0,'--','--',,,,'--','--','--','--',
20,['2'],2,TMTstop-A_1_2linestimulus17.png,TMTstop-A_1_2greenlinestimulus17.png,TMTstop-A_1_2redlinestimulus17.png,TMT_A,2,45,0.0,'--','--',,,,'--','--','--','--',
21,['3'],3,TMTstop-A_1_2linestimulus18.png,TMTstop-A_1_2greenlinestimulus18.png,TMTstop-A_1_2redlinestimulus18.png,TMT_A,2,46,0.0,'--','--',,,,'--','--','--','--',
22,['2'],2,TMTstop-A_1_2linestimulus19.png,TMTstop-A_1_2greenlinestimulus19.png,TMTstop-A_1_2redlinestimulus19.png,TMT_A,2,47,0.0,'--','--',,,,'--','--','--','--',
23,['3'],3,TMTstop-A_1_2linestimulus20.png,TMTstop-A_1_2greenlinestimulus20.png,TMTstop-A_1_2redlinestimulus20.png,TMT_A,2,48,0.0,'--','--',,,,'--','--','--','--',
24,['2'],2,TMTstop-A_1_2linestimulus21.png,TMTstop-A_1_2greenlinestimulus21.png,TMTstop-A_1_2redlinestimulus21.png,TMT_A,2,49,0.0,'--','--',,,,'--','--','--','--',
25,['3'],3,TMTstop-A_1_2linestimulus22.png,TMTstop-A_1_2greenlinestimulus22.png,TMTstop-A_1_2redlinestimulus22.png,TMT_A,2,50,0.0,'--','--',,,,'--','--','--','--',
None,None,None,TMTstop-A_1_2linestimulus23.png,TMTstop-A_1_2greenlinestimulus23.png,TMTstop-A_1_2redlinestimulus23.png,TMT_A,2,Feedback_last,0.0,'--','--',,,,'--','--','--','--',

extraInfo
participant,
session,001
date,2022_Mar_30_1524
expName,TMT_fmri
psychopyVersion,2021.2.3
frameRate,143.55976535962884
