NumberLetter,corrAns,Correct,StimFile,Correct_StimFile,False_StimFile,Block,TrialNumber_session,n,Stim.started_mean,Stim.started_raw,Stim.started_std,Stim.stopped_raw,key_resp_2.corr_mean,key_resp_2.corr_raw,key_resp_2.corr_std,key_resp_2.keys_raw,key_resp_2.rt_raw,key_resp_2.started_mean,key_resp_2.started_raw,key_resp_2.started_std,key_resp_2.stopped_raw,order
1,['2'],2,TMTstop-A_1_1.png,TMTstop-A_1_1.png,TMTstop-A_1_1.png,1,1,1.0,19.175090789794922,19.175090789794922,0.0,,1.0,1.0,0.0,1,2,0.3718693000264466,0.4795452000107616,19.175090789794922,19.175090789794922,0.0,,0.0
2,['1'],1,TMTstop-A_1_1.png,TMTstop-A_1_1firstgreen.png,TMTstop-A_1_1firstred.png,1,2,1.0,19.755807876586914,19.755807876586914,0.0,,1.0,1.0,0.0,3,1,-0.03898759977892041,0.11712670000270009,19.755807876586914,19.755807876586914,0.0,,1.0
3,['2'],2,TMTstop-A_1_1linestimulus0.png,TMTstop-A_1_1greenlinestimulus0.png,TMTstop-A_1_1redlinestimulus0.png,1,3,1.0,19.957740783691406,19.957740783691406,0.0,,1.0,1.0,0.0,2,-0.025844499934464693,19.957740783691406,19.957740783691406,0.0,,2.0
4,['3'],3,TMTstop-A_1_1linestimulus1.png,TMTstop-A_1_1greenlinestimulus1.png,TMTstop-A_1_1redlinestimulus1.png,1,4,1.0,20.040437698364258,20.040437698364258,0.0,,1.0,1.0,0.0,3,-0.02572619984857738,20.040437698364258,20.040437698364258,0.0,,3.0
5,['2'],2,TMTstop-A_1_1linestimulus2.png,TMTstop-A_1_1greenlinestimulus2.png,TMTstop-A_1_1redlinestimulus2.png,1,5,1.0,20.11690330505371,20.11690330505371,0.0,,1.0,1.0,0.0,1,2,0.03903879993595183,0.09560150001198053,20.11690330505371,20.11690330505371,0.0,,4.0
6,['3'],3,TMTstop-A_1_1linestimulus3.png,TMTstop-A_1_1greenlinestimulus3.png,TMTstop-A_1_1redlinestimulus3.png,1,6,1.0,20.320106506347656,20.320106506347656,0.0,,1.0,1.0,0.0,3,-0.003770099952816963,20.320106506347656,20.320106506347656,0.0,,5.0
7,['2'],2,TMTstop-A_1_1linestimulus4.png,TMTstop-A_1_1greenlinestimulus4.png,TMTstop-A_1_1redlinestimulus4.png,1,7,1.0,20.400814056396484,20.400814056396484,0.0,,1.0,1.0,0.0,1,2,0.0492956000380218,0.1258702001068741,20.400814056396484,20.400814056396484,0.0,,6.0
8,['1'],1,TMTstop-A_1_1linestimulus5.png,TMTstop-A_1_1greenlinestimulus5.png,TMTstop-A_1_1redlinestimulus5.png,1,8,1.0,20.616819381713867,20.616819381713867,0.0,,1.0,1.0,0.0,3,1,-0.0024554000701755285,0.1312241000123322,20.616819381713867,20.616819381713867,0.0,,7.0
9,['2'],2,TMTstop-A_1_1linestimulus6.png,TMTstop-A_1_1greenlinestimulus6.png,TMTstop-A_1_1redlinestimulus6.png,1,9,1.0,20.826000213623047,20.826000213623047,0.0,,1.0,1.0,0.0,2,0.013267200207337737,20.826000213623047,20.826000213623047,0.0,,8.0
10,['1'],1,TMTstop-A_1_1linestimulus7.png,TMTstop-A_1_1greenlinestimulus7.png,TMTstop-A_1_1redlinestimulus7.png,1,10,1.0,20.915428161621094,20.915428161621094,0.0,,1.0,1.0,0.0,3,1,0.00503610004670918,0.1569626999553293,20.915428161621094,20.915428161621094,0.0,,9.0
11,['2'],2,TMTstop-A_1_1linestimulus8.png,TMTstop-A_1_1greenlinestimulus8.png,TMTstop-A_1_1redlinestimulus8.png,1,11,1.0,21.172513961791992,21.172513961791992,0.0,,1.0,1.0,0.0,2,-0.032336900010704994,21.172513961791992,21.172513961791992,0.0,,10.0
12,['3'],3,TMTstop-A_1_1linestimulus9.png,TMTstop-A_1_1greenlinestimulus9.png,TMTstop-A_1_1redlinestimulus9.png,1,12,1.0,21.2487850189209,21.2487850189209,0.0,,1.0,1.0,0.0,3,0.0026223999448120594,21.2487850189209,21.2487850189209,0.0,,11.0
13,['2'],2,TMTstop-A_1_1linestimulus10.png,TMTstop-A_1_1greenlinestimulus10.png,TMTstop-A_1_1redlinestimulus10.png,1,13,1.0,21.339210510253906,21.339210510253906,0.0,,1.0,1.0,0.0,1,2,0.05432510003447533,0.1543068999890238,21.339210510253906,21.339210510253906,0.0,,12.0
14,['3'],3,TMTstop-A_1_1linestimulus11.png,TMTstop-A_1_1greenlinestimulus11.png,TMTstop-A_1_1redlinestimulus11.png,1,14,1.0,21.596603393554688,21.596603393554688,0.0,,1.0,1.0,0.0,3,-0.019265000009909272,21.596603393554688,21.596603393554688,0.0,,13.0
15,['1'],1,TMTstop-A_1_1linestimulus12.png,TMTstop-A_1_1greenlinestimulus12.png,TMTstop-A_1_1redlinestimulus12.png,1,15,1.0,21.67339515686035,21.67339515686035,0.0,,1.0,1.0,0.0,1,0.059908200055360794,21.67339515686035,21.67339515686035,0.0,,14.0
16,['3'],3,TMTstop-A_1_1linestimulus13.png,TMTstop-A_1_1greenlinestimulus13.png,TMTstop-A_1_1redlinestimulus13.png,1,16,1.0,21.812297821044922,21.812297821044922,0.0,,1.0,1.0,0.0,2,3,0.006659599952399731,0.11187849985435605,21.812297821044922,21.812297821044922,0.0,,15.0
17,['2'],2,TMTstop-A_1_1linestimulus14.png,TMTstop-A_1_1greenlinestimulus14.png,TMTstop-A_1_1redlinestimulus14.png,1,17,1.0,22.040849685668945,22.040849685668945,0.0,,1.0,1.0,0.0,1,2,0.04348180000670254,0.09459130000323057,22.040849685668945,22.040849685668945,0.0,,16.0
18,['3'],3,TMTstop-A_1_1linestimulus15.png,TMTstop-A_1_1greenlinestimulus15.png,TMTstop-A_1_1redlinestimulus15.png,1,18,1.0,22.248769760131836,22.248769760131836,0.0,,1.0,1.0,0.0,3,0.011657200055196881,22.248769760131836,22.248769760131836,0.0,,17.0
19,['1'],1,TMTstop-A_1_1linestimulus16.png,TMTstop-A_1_1greenlinestimulus16.png,TMTstop-A_1_1redlinestimulus16.png,1,19,1.0,22.33924674987793,22.33924674987793,0.0,,1.0,1.0,0.0,1,0.07079549995251,22.33924674987793,22.33924674987793,0.0,,18.0
20,['3'],3,TMTstop-A_1_1linestimulus17.png,TMTstop-A_1_1greenlinestimulus17.png,TMTstop-A_1_1redlinestimulus17.png,1,20,1.0,22.498870849609375,22.498870849609375,0.0,,1.0,1.0,0.0,2,3,-0.037302999990060925,0.09618690004572272,22.498870849609375,22.498870849609375,0.0,,19.0
21,['1'],1,TMTstop-A_1_1linestimulus18.png,TMTstop-A_1_1greenlinestimulus18.png,TMTstop-A_1_1redlinestimulus18.png,1,21,1.0,22.714082717895508,22.714082717895508,0.0,,1.0,1.0,0.0,1,0.025251700077205896,22.714082717895508,22.714082717895508,0.0,,20.0
22,['3'],3,TMTstop-A_1_1linestimulus19.png,TMTstop-A_1_1greenlinestimulus19.png,TMTstop-A_1_1redlinestimulus19.png,1,22,1.0,22.826013565063477,22.826013565063477,0.0,,1.0,1.0,0.0,2,3,-0.0035166998859494925,0.1302776001393795,22.826013565063477,22.826013565063477,0.0,,21.0
23,['1'],1,TMTstop-A_1_1linestimulus20.png,TMTstop-A_1_1greenlinestimulus20.png,TMTstop-A_1_1redlinestimulus20.png,1,23,1.0,23.033540725708008,23.033540725708008,0.0,,1.0,1.0,0.0,1,0.45754180010408163,23.033540725708008,23.033540725708008,0.0,,22.0
24,['2'],2,TMTstop-A_1_1linestimulus21.png,TMTstop-A_1_1greenlinestimulus21.png,TMTstop-A_1_1redlinestimulus21.png,1,24,1.0,23.58417320251465,23.58417320251465,0.0,,1.0,1.0,0.0,2,0.6872680999804288,23.58417320251465,23.58417320251465,0.0,,23.0
25,['3'],3,TMTstop-A_1_1linestimulus22.png,TMTstop-A_1_1greenlinestimulus22.png,TMTstop-A_1_1redlinestimulus22.png,1,25,1.0,24.35979461669922,24.35979461669922,0.0,,1.0,1.0,0.0,3,0.8331138999201357,24.35979461669922,24.35979461669922,0.0,,24.0
None,None,None,TMTstop-A_1_1linestimulus23.png,TMTstop-A_1_1greenlinestimulus23.png,TMTstop-A_1_1redlinestimulus23.png,1,None,1.0,25.276559829711914,25.276559829711914,0.0,,1.0,1.0,0.0,,'--',25.276559829711914,25.276559829711914,0.0,,25.0

extraInfo
participant,
session,001
date,2022_Feb_02_1501
expName,TMTAstop-A
psychopyVersion,2021.2.3
frameRate,144.71340213994173
﻿NumberLetter,corrAns,Correct,StimFile,Correct_StimFile,False_StimFile,Block,TrialNumber_session,n,Stim.started_raw,Stim.stopped_raw,key_resp_2.corr_mean,key_resp_2.corr_raw,key_resp_2.corr_std,key_resp_2.keys_raw,key_resp_2.started_raw,key_resp_2.stopped_raw,order
1,['3'],3,TMTstop-A_1_2.png,TMTstop-A_1_2.png,TMTstop-A_1_2.png,2,26,1.0,29.379511899896897,,0.0,0.0,0.0,,29.379511899896897,,0.0
2,['2'],2,TMTstop-A_1_2.png,TMTstop-A_1_2firstgreen.png,TMTstop-A_1_2firstred.png,2,27,0.0,'--','--',,,,'--','--','--',
3,['3'],3,TMTstop-A_1_2linestimulus0.png,TMTstop-A_1_2greenlinestimulus0.png,TMTstop-A_1_2redlinestimulus0.png,2,28,0.0,'--','--',,,,'--','--','--',
4,['1'],1,TMTstop-A_1_2linestimulus1.png,TMTstop-A_1_2greenlinestimulus1.png,TMTstop-A_1_2redlinestimulus1.png,2,29,0.0,'--','--',,,,'--','--','--',
5,['2'],2,TMTstop-A_1_2linestimulus2.png,TMTstop-A_1_2greenlinestimulus2.png,TMTstop-A_1_2redlinestimulus2.png,2,30,0.0,'--','--',,,,'--','--','--',
6,['3'],3,TMTstop-A_1_2linestimulus3.png,TMTstop-A_1_2greenlinestimulus3.png,TMTstop-A_1_2redlinestimulus3.png,2,31,0.0,'--','--',,,,'--','--','--',
7,['2'],2,TMTstop-A_1_2linestimulus4.png,TMTstop-A_1_2greenlinestimulus4.png,TMTstop-A_1_2redlinestimulus4.png,2,32,0.0,'--','--',,,,'--','--','--',
8,['1'],1,TMTstop-A_1_2linestimulus5.png,TMTstop-A_1_2greenlinestimulus5.png,TMTstop-A_1_2redlinestimulus5.png,2,33,0.0,'--','--',,,,'--','--','--',
9,['2'],2,TMTstop-A_1_2linestimulus6.png,TMTstop-A_1_2greenlinestimulus6.png,TMTstop-A_1_2redlinestimulus6.png,2,34,0.0,'--','--',,,,'--','--','--',
10,['3'],3,TMTstop-A_1_2linestimulus7.png,TMTstop-A_1_2greenlinestimulus7.png,TMTstop-A_1_2redlinestimulus7.png,2,35,0.0,'--','--',,,,'--','--','--',
11,['1'],1,TMTstop-A_1_2linestimulus8.png,TMTstop-A_1_2greenlinestimulus8.png,TMTstop-A_1_2redlinestimulus8.png,2,36,0.0,'--','--',,,,'--','--','--',
12,['2'],2,TMTstop-A_1_2linestimulus9.png,TMTstop-A_1_2greenlinestimulus9.png,TMTstop-A_1_2redlinestimulus9.png,2,37,0.0,'--','--',,,,'--','--','--',
13,['3'],3,TMTstop-A_1_2linestimulus10.png,TMTstop-A_1_2greenlinestimulus10.png,TMTstop-A_1_2redlinestimulus10.png,2,38,0.0,'--','--',,,,'--','--','--',
14,['1'],1,TMTstop-A_1_2linestimulus11.png,TMTstop-A_1_2greenlinestimulus11.png,TMTstop-A_1_2redlinestimulus11.png,2,39,0.0,'--','--',,,,'--','--','--',
15,['3'],3,TMTstop-A_1_2linestimulus12.png,TMTstop-A_1_2greenlinestimulus12.png,TMTstop-A_1_2redlinestimulus12.png,2,40,0.0,'--','--',,,,'--','--','--',
16,['1'],1,TMTstop-A_1_2linestimulus13.png,TMTstop-A_1_2greenlinestimulus13.png,TMTstop-A_1_2redlinestimulus13.png,2,41,0.0,'--','--',,,,'--','--','--',
17,['2'],2,TMTstop-A_1_2linestimulus14.png,TMTstop-A_1_2greenlinestimulus14.png,TMTstop-A_1_2redlinestimulus14.png,2,42,0.0,'--','--',,,,'--','--','--',
18,['1'],1,TMTstop-A_1_2linestimulus15.png,TMTstop-A_1_2greenlinestimulus15.png,TMTstop-A_1_2redlinestimulus15.png,2,43,0.0,'--','--',,,,'--','--','--',
19,['3'],3,TMTstop-A_1_2linestimulus16.png,TMTstop-A_1_2greenlinestimulus16.png,TMTstop-A_1_2redlinestimulus16.png,2,44,0.0,'--','--',,,,'--','--','--',
20,['1'],1,TMTstop-A_1_2linestimulus17.png,TMTstop-A_1_2greenlinestimulus17.png,TMTstop-A_1_2redlinestimulus17.png,2,45,0.0,'--','--',,,,'--','--','--',
21,['2'],2,TMTstop-A_1_2linestimulus18.png,TMTstop-A_1_2greenlinestimulus18.png,TMTstop-A_1_2redlinestimulus18.png,2,46,0.0,'--','--',,,,'--','--','--',
22,['1'],1,TMTstop-A_1_2linestimulus19.png,TMTstop-A_1_2greenlinestimulus19.png,TMTstop-A_1_2redlinestimulus19.png,2,47,0.0,'--','--',,,,'--','--','--',
23,['2'],2,TMTstop-A_1_2linestimulus20.png,TMTstop-A_1_2greenlinestimulus20.png,TMTstop-A_1_2redlinestimulus20.png,2,48,0.0,'--','--',,,,'--','--','--',
24,['1'],1,TMTstop-A_1_2linestimulus21.png,TMTstop-A_1_2greenlinestimulus21.png,TMTstop-A_1_2redlinestimulus21.png,2,49,0.0,'--','--',,,,'--','--','--',
25,['2'],2,TMTstop-A_1_2linestimulus22.png,TMTstop-A_1_2greenlinestimulus22.png,TMTstop-A_1_2redlinestimulus22.png,2,50,0.0,'--','--',,,,'--','--','--',
None,None,None,TMTstop-A_1_2linestimulus23.png,TMTstop-A_1_2greenlinestimulus23.png,TMTstop-A_1_2redlinestimulus23.png,2,None,0.0,'--','--',,,,'--','--','--',

extraInfo
participant,
session,001
date,2022_Feb_02_1501
expName,TMTAstop-A
psychopyVersion,2021.2.3
frameRate,144.71340213994173
