NumberLetter,corrAns,StimFile,trials.thisRepN,trials.thisTrialN,trials.thisN,trials.thisIndex,trials_2.thisRepN,trials_2.thisTrialN,trials_2.thisN,trials_2.thisIndex,Instruct.started,Instruct.stopped,text_2.started,text_2.stopped,Stim.started,Stim.stopped,key_resp_2.keys,key_resp_2.corr,key_resp_2.rt,key_resp_2.started,key_resp_2.stopped,text_3.started,text_3.stopped,key_resp_3.keys,key_resp_3.rt,key_resp_3.started,key_resp_3.stopped,text.started,text.stopped,participant,session,date,expName,psychopyVersion,frameRate,
1,1,TMTAD1.bmp,0,0,0,0,,,,,9.297282900020946,None,9.297282900020946,None,13.299025700020138,None,1,1,3.77829479999491,13.299025700020138,None,,,,,,,,,123r,001,2021_Oct_21_1538,TMTAB,2021.2.3,60.01954236157345,
2,3,TMTAD1.bmp,0,1,1,1,,,,,,,,,17.100733500003116,None,2,0,1.908029499987606,17.100733500003116,None,,,,,,,,,123r,001,2021_Oct_21_1538,TMTAB,2021.2.3,60.01954236157345,
3,2,TMTAD11.bmp,0,2,2,2,,,,,,,,,19.035049700003583,None,3,0,0.7164966999844182,19.035049700003583,None,,,,,,,,,123r,001,2021_Oct_21_1538,TMTAB,2021.2.3,60.01954236157345,
4,1,TMTAD12.bmp,0,3,3,3,,,,,,,,,19.768705600028625,None,1,1,0.6075267999840435,19.768705600028625,None,,,,,,,,,123r,001,2021_Oct_21_1538,TMTAB,2021.2.3,60.01954236157345,
5,2,TMTAD13.bmp,0,4,4,4,,,,,,,,,20.402389300026698,None,2,1,0.4349792000139132,20.402389300026698,None,,,,,,,,,123r,001,2021_Oct_21_1538,TMTAB,2021.2.3,60.01954236157345,
6,3,TMTAD14.bmp,0,5,5,5,,,,,,,,,20.869201000023168,None,3,1,0.3548845000041183,20.869201000023168,None,,,,,,,,,123r,001,2021_Oct_21_1538,TMTAB,2021.2.3,60.01954236157345,
7,2,TMTAD15.bmp,0,6,6,6,,,,,,,,,21.252766300021904,None,1,0,0.39933889999520034,21.252766300021904,None,,,,,,,,,123r,001,2021_Oct_21_1538,TMTAB,2021.2.3,60.01954236157345,
8,1,TMTAD16.bmp,0,7,7,7,,,,,,,,,21.669600100023672,None,2,0,0.16003110000747256,21.669600100023672,None,,,,,,,,,123r,001,2021_Oct_21_1538,TMTAB,2021.2.3,60.01954236157345,
9,3,TMTAD17.bmp,0,8,8,8,,,,,,,,,21.853025700023863,None,3,1,0.1358784000040032,21.853025700023863,None,,,,,,,,,123r,001,2021_Oct_21_1538,TMTAB,2021.2.3,60.01954236157345,
10,2,TMTAD18.bmp,0,9,9,9,,,,,,,,,22.019757800007937,None,1,0,0.21656739999889396,22.019757800007937,None,,,,,,,,,123r,001,2021_Oct_21_1538,TMTAB,2021.2.3,60.01954236157345,
11,3,TMTAD19.bmp,0,10,10,10,,,,,,,,,22.253272000001743,None,2,0,0.05782839999301359,22.253272000001743,None,,,,,,,,,123r,001,2021_Oct_21_1538,TMTAB,2021.2.3,60.01954236157345,
12,1,TMTAD110.bmp,0,11,11,11,,,,,,,,,22.33656420002808,None,3,0,0.15068049999536015,22.33656420002808,None,,,,,,,,,123r,001,2021_Oct_21_1538,TMTAB,2021.2.3,60.01954236157345,
13,2,TMTAD111.bmp,0,12,12,12,,,,,,,,,22.503252800001064,None,1,0,0.16962099997908808,22.503252800001064,None,,,,,,,,,123r,001,2021_Oct_21_1538,TMTAB,2021.2.3,60.01954236157345,
14,3,TMTAD112.bmp,0,13,13,13,,,,,,,,,22.703372600022703,None,2,0,0.005098099994938821,22.703372600022703,None,,,,,,,,,123r,001,2021_Oct_21_1538,TMTAB,2021.2.3,60.01954236157345,
15,1,TMTAD113.bmp,0,14,14,14,,,,,,,,,22.736775500001386,None,3,0,0.15786109998589382,22.736775500001386,None,,,,,,,,,123r,001,2021_Oct_21_1538,TMTAB,2021.2.3,60.01954236157345,
16,2,TMTAD114.bmp,0,15,15,15,,,,,,,,,22.92018860002281,None,1,0,0.23363170001539402,22.92018860002281,None,,,,,,,,,123r,001,2021_Oct_21_1538,TMTAB,2021.2.3,60.01954236157345,
17,3,TMTAD115.bmp,0,16,16,16,,,,,,,,,23.170264400017913,None,2,0,0.028008900000713766,23.170264400017913,None,,,,,,,,,123r,001,2021_Oct_21_1538,TMTAB,2021.2.3,60.01954236157345,
18,2,TMTAD116.bmp,0,17,17,17,,,,,,,,,23.22030350001296,None,3,0,0.5735655000025872,23.22030350001296,None,,,,,,,,,123r,001,2021_Oct_21_1538,TMTAB,2021.2.3,60.01954236157345,
19,3,TMTAD117.bmp,0,18,18,18,,,,,,,,,23.82064230000833,None,1,0,0.33759149999241345,23.82064230000833,None,,,,,,,,,123r,001,2021_Oct_21_1538,TMTAB,2021.2.3,60.01954236157345,
20,1,TMTAD118.bmp,0,19,19,19,,,,,,,,,24.187460300017847,None,2,0,0.09925810000277124,24.187460300017847,None,,,,,,,,,123r,001,2021_Oct_21_1538,TMTAB,2021.2.3,60.01954236157345,
21,2,TMTAD119.bmp,0,20,20,20,,,,,,,,,24.304203700012295,None,3,0,0.10727999999653548,24.304203700012295,None,,,,,,,,,123r,001,2021_Oct_21_1538,TMTAB,2021.2.3,60.01954236157345,
22,3,TMTAD120.bmp,0,21,21,21,,,,,,,,,24.437511600001017,None,1,0,0.2017797000007704,24.437511600001017,None,,,,,,,,,123r,001,2021_Oct_21_1538,TMTAB,2021.2.3,60.01954236157345,
23,1,TMTAD121.bmp,0,22,22,22,,,,,,,,,24.67101280001225,None,2,0,0.0422242000058759,24.67101280001225,None,,,,,,,,,123r,001,2021_Oct_21_1538,TMTAB,2021.2.3,60.01954236157345,
24,2,TMTAD122.bmp,0,23,23,23,,,,,,,,,24.737695000017993,None,3,0,0.08025719999568537,24.737695000017993,None,,,,,,,,,123r,001,2021_Oct_21_1538,TMTAB,2021.2.3,60.01954236157345,
None,None,TMTAD123.bmp,0,24,24,24,,,,,,,,,24.837759400019422,None,1,0,0.1939206999959424,24.837759400019422,None,,,,,,,,,123r,001,2021_Oct_21_1538,TMTAB,2021.2.3,60.01954236157345,
,,,,,,,,,,,,,,,,,,,,,,25.054594400018686,None,2,0.037397900014184415,25.054594400018686,None,,,123r,001,2021_Oct_21_1538,TMTAB,2021.2.3,60.01954236157345,
1,3,TMTBD1.bmp,,,,,0,0,0,0,25.12124930002028,None,25.12124930002028,None,25.254632200027118,None,1,0,1.4341907000052743,25.254632200027118,None,,,,,,,,,123r,001,2021_Oct_21_1538,TMTAB,2021.2.3,60.01954236157345,
A,1,TMTBD1.bmp,,,,,0,1,1,1,,,,,26.70527690000017,None,2,0,0.19466500001726672,26.70527690000017,None,,,,,,,,,123r,001,2021_Oct_21_1538,TMTAB,2021.2.3,60.01954236157345,
2,3,TMTBD11.bmp,,,,,0,2,2,2,,,,,27.25562650000211,None,3,1,0.3958849999762606,27.25562650000211,None,,,,,,,,,123r,001,2021_Oct_21_1538,TMTAB,2021.2.3,60.01954236157345,
B,2,TMTBD1A.bmp,,,,,0,3,3,3,,,,,27.672636600007536,None,3,0,0.37902089999988675,27.672636600007536,None,,,,,,,,,123r,001,2021_Oct_21_1538,TMTAB,2021.2.3,60.01954236157345,
3,1,TMTBD12.bmp,,,,,0,4,4,4,,,,,28.85627590000513,None,3,0,-0.39941120002185926,28.85627590000513,None,,,,,,,,,123r,001,2021_Oct_21_1538,TMTAB,2021.2.3,60.01954236157345,
C,2,TMTBD1B.bmp,,,,,0,5,5,5,,,,,28.889596800028812,None,1,0,-0.024289699998917058,28.889596800028812,None,,,,,,,,,123r,001,2021_Oct_21_1538,TMTAB,2021.2.3,60.01954236157345,
4,3,TMTBD13.bmp,,,,,0,6,6,6,,,,,29.739984800020466,None,1,0,-0.4693099999858532,29.739984800020466,None,,,,,,,,,123r,001,2021_Oct_21_1538,TMTAB,2021.2.3,60.01954236157345,
D,1,TMTBD1C.bmp,,,,,0,7,7,7,,,,,29.7567344000272,None,2,0,0.001920500013511628,29.7567344000272,None,,,,,,,,,123r,001,2021_Oct_21_1538,TMTAB,2021.2.3,60.01954236157345,
5,2,TMTBD14.bmp,,,,,0,8,8,8,,,,,30.223381300020264,None,2,1,-0.0013935999886598438,30.223381300020264,None,,,,,,,,,123r,001,2021_Oct_21_1538,TMTAB,2021.2.3,60.01954236157345,
E,3,TMTBD1D.bmp,,,,,0,9,9,9,,,,,30.24025710002752,None,3,1,0.3839217000058852,30.24025710002752,None,,,,,,,,,123r,001,2021_Oct_21_1538,TMTAB,2021.2.3,60.01954236157345,
6,2,TMTBD15.bmp,,,,,0,10,10,10,,,,,31.17393020002055,None,3,0,-0.03813459997763857,31.17393020002055,None,,,,,,,,,123r,001,2021_Oct_21_1538,TMTAB,2021.2.3,60.01954236157345,
F,1,TMTBD1E.bmp,,,,,0,11,11,11,,,,,31.190739400015445,None,3,0,0.48595219998969696,31.190739400015445,None,,,,,,,,,123r,001,2021_Oct_21_1538,TMTAB,2021.2.3,60.01954236157345,
7,2,TMTBD16.bmp,,,,,0,12,12,12,,,,,32.157816400023876,None,3,0,0.09532170000602491,32.157816400023876,None,,,,,,,,,123r,001,2021_Oct_21_1538,TMTAB,2021.2.3,60.01954236157345,
G,1,TMTBD1F.bmp,,,,,0,13,13,13,,,,,32.27446640000562,None,3,0,0.498011999996379,32.27446640000562,None,,,,,,,,,123r,001,2021_Oct_21_1538,TMTAB,2021.2.3,60.01954236157345,
8,3,TMTBD17.bmp,,,,,0,14,14,14,,,,,33.04162550001638,None,3,1,0.3217259999946691,33.04162550001638,None,,,,,,,,,123r,001,2021_Oct_21_1538,TMTAB,2021.2.3,60.01954236157345,
H,2,TMTBD1G.bmp,,,,,0,15,15,15,,,,,33.3917885000119,None,3,0,0.4624759999860544,33.3917885000119,None,,,,,,,,,123r,001,2021_Oct_21_1538,TMTAB,2021.2.3,60.01954236157345,
9,3,TMTBD18.bmp,,,,,0,16,16,16,,,,,34.19216740000411,None,3,1,0.3142969000036828,34.19216740000411,None,,,,,,,,,123r,001,2021_Oct_21_1538,TMTAB,2021.2.3,60.01954236157345,
I,1,TMTBD1H.bmp,,,,,0,17,17,17,,,,,34.52560300001642,None,3,0,0.4937184000154957,34.52560300001642,None,,,,,,,,,123r,001,2021_Oct_21_1538,TMTAB,2021.2.3,60.01954236157345,
10,2,TMTBD19.bmp,,,,,0,18,18,18,,,,,35.55945250001969,None,3,0,0.3231878000078723,35.55945250001969,None,,,,,,,,,123r,001,2021_Oct_21_1538,TMTAB,2021.2.3,60.01954236157345,
J,1,TMTBD1I.bmp,,,,,0,19,19,19,,,,,35.90965290000895,None,3,0,0.5850656000257004,35.90965290000895,None,,,,,,,,,123r,001,2021_Oct_21_1538,TMTAB,2021.2.3,60.01954236157345,
11,3,TMTBD110.bmp,,,,,0,20,20,20,,,,,36.926705000019865,None,2,0,0.49473989999387413,36.926705000019865,None,,,,,,,,,123r,001,2021_Oct_21_1538,TMTAB,2021.2.3,60.01954236157345,
K,1,TMTBD1J.bmp,,,,,0,21,21,21,,,,,37.46043090001331,None,2,0,1.0166171000164468,37.46043090001331,None,,,,,,,,,123r,001,2021_Oct_21_1538,TMTAB,2021.2.3,60.01954236157345,
12,2,TMTBD111.bmp,,,,,0,22,22,22,,,,,38.77751550002722,None,2,1,0.7672064999933355,38.77751550002722,None,,,,,,,,,123r,001,2021_Oct_21_1538,TMTAB,2021.2.3,60.01954236157345,
L,3,TMTBD1K.bmp,,,,,0,23,23,23,,,,,39.56120480000391,None,2,0,0.7214838999789208,39.56120480000391,None,,,,,,,,,123r,001,2021_Oct_21_1538,TMTAB,2021.2.3,60.01954236157345,
None,None,TMTBD112.bmp,,,,,0,24,24,24,,,,,40.59507590002613,None,2,0,0.6688859999994747,40.59507590002613,None,,,,,,,,,123r,001,2021_Oct_21_1538,TMTAB,2021.2.3,60.01954236157345,
,,,,,,,,,,,,,,,,,,,,,,,,,,,,41.29537590002292,None,,,,,,,
