NumberLetter,corrAns,Correct,StimFile,Correct_StimFile,False_StimFile,Version,Paper,TrialNumber_Version,Round,Block,TrialNumber_total,n,Stim.started_mean,Stim.started_raw,Stim.started_std,Stim.stopped_raw,key_resp_2.corr_mean,key_resp_2.corr_raw,key_resp_2.corr_std,key_resp_2.keys_raw,key_resp_2.rt_raw,key_resp_2.started_mean,key_resp_2.started_raw,key_resp_2.started_std,key_resp_2.stopped_raw,order
1,['2'],2,Images/TMTstop-control_1_1.png,Images/TMTstop-control_1_1.png,Images/TMTstop-control_1_1.png,TMT_Control,C1,1,1,1,1,1.0,40.17319869995117,40.17319869995117,0.0,,1.0,1.0,0.0,1,3,2,2.563803300028667,2.7786491999868304,2.8035153999808244,40.17319869995117,40.17319869995117,0.0,,0.0
2,['1'],1,Images/TMTstop-control_1_1.png,Images/TMTstop-control_1_1firstgreen.png,Images/TMTstop-control_1_1firstred.png,TMT_Control,C1,2,None,1,2,1.0,43.043670654296875,43.043670654296875,0.0,,1.0,1.0,0.0,1,0.1489100999897346,43.043670654296875,43.043670654296875,0.0,,1.0
3,['3'],3,Images/TMTstop-control_1_1linestimulus0.png,Images/TMTstop-control_1_1greenlinestimulus0.png,Images/TMTstop-control_1_1redlinestimulus0.png,TMT_Control,C1,3,None,1,3,1.0,43.24744415283203,43.24744415283203,0.0,,1.0,1.0,0.0,3,0.08552200003759935,43.24744415283203,43.24744415283203,0.0,,2.0
4,['1'],1,Images/TMTstop-control_1_1linestimulus1.png,Images/TMTstop-control_1_1greenlinestimulus1.png,Images/TMTstop-control_1_1redlinestimulus1.png,TMT_Control,C1,4,None,1,4,1.0,43.40534973144531,43.40534973144531,0.0,,1.0,1.0,0.0,2,1,0.005808099987916648,0.09704399999463931,43.40534973144531,43.40534973144531,0.0,,3.0
5,['3'],3,Images/TMTstop-control_1_1linestimulus2.png,Images/TMTstop-control_1_1greenlinestimulus2.png,Images/TMTstop-control_1_1redlinestimulus2.png,TMT_Control,C1,5,None,1,5,1.0,43.576271057128906,43.576271057128906,0.0,,1.0,1.0,0.0,3,0.07736060000024736,43.576271057128906,43.576271057128906,0.0,,4.0
6,['1'],1,Images/TMTstop-control_1_1linestimulus3.png,Images/TMTstop-control_1_1greenlinestimulus3.png,Images/TMTstop-control_1_1redlinestimulus3.png,TMT_Control,C1,6,None,1,6,1.0,43.70986557006836,43.70986557006836,0.0,,1.0,1.0,0.0,2,1,0.009660699986852705,0.11152699997182935,43.70986557006836,43.70986557006836,0.0,,5.0
7,['2'],2,Images/TMTstop-control_1_1linestimulus4.png,Images/TMTstop-control_1_1greenlinestimulus4.png,Images/TMTstop-control_1_1redlinestimulus4.png,TMT_Control,C1,7,None,1,7,1.0,43.89910888671875,43.89910888671875,0.0,,1.0,1.0,0.0,3,2,0.08415000000968575,0.12634220003383234,43.89910888671875,43.89910888671875,0.0,,6.0
8,['1'],1,Images/TMTstop-control_1_1linestimulus4.png,Images/TMTstop-control_1_1greenlinestimulus5.png,Images/TMTstop-control_1_1redlinestimulus5.png,TMT_Control,C1,8,None,1,8,1.0,44.087894439697266,44.087894439697266,0.0,,1.0,1.0,0.0,1,0.05325330002233386,44.087894439697266,44.087894439697266,0.0,,7.0
9,['3'],3,Images/TMTstop-control_1_1linestimulus6.png,Images/TMTstop-control_1_1greenlinestimulus6.png,Images/TMTstop-control_1_1redlinestimulus6.png,TMT_Control,C1,9,None,1,9,1.0,44.19703674316406,44.19703674316406,0.0,,1.0,1.0,0.0,3,0.10121900000376627,44.19703674316406,44.19703674316406,0.0,,8.0
10,['2'],2,Images/TMTstop-control_1_1linestimulus7.png,Images/TMTstop-control_1_1greenlinestimulus7.png,Images/TMTstop-control_1_1redlinestimulus7.png,TMT_Control,C1,10,None,1,10,1.0,44.34833526611328,44.34833526611328,0.0,,1.0,1.0,0.0,2,0.005620800016913563,44.34833526611328,44.34833526611328,0.0,,9.0
11,['1'],1,Images/TMTstop-control_1_1linestimulus8.png,Images/TMTstop-control_1_1greenlinestimulus8.png,Images/TMTstop-control_1_1redlinestimulus8.png,TMT_Control,C1,11,None,1,11,1.0,44.43178176879883,44.43178176879883,0.0,,1.0,1.0,0.0,1,0.042811399966012686,44.43178176879883,44.43178176879883,0.0,,10.0
12,['2'],2,Images/TMTstop-control_1_1linestimulus9.png,Images/TMTstop-control_1_1greenlinestimulus9.png,Images/TMTstop-control_1_1redlinestimulus9.png,TMT_Control,C1,12,None,1,12,1.0,44.53184127807617,44.53184127807617,0.0,,1.0,1.0,0.0,3,2,0.08842129999538884,0.13761239999439567,44.53184127807617,44.53184127807617,0.0,,11.0
13,['3'],3,Images/TMTstop-control_1_1linestimulus10.png,Images/TMTstop-control_1_1greenlinestimulus10.png,Images/TMTstop-control_1_1redlinestimulus10.png,TMT_Control,C1,13,None,1,13,1.0,44.73235321044922,44.73235321044922,0.0,,1.0,1.0,0.0,1,3,2,1,3,0.032474700012244284,0.1982531999819912,0.23489749996224418,0.35230470000533387,0.5103471999755129,44.73235321044922,44.73235321044922,0.0,,12.0
14,['2'],2,Images/TMTstop-control_1_1linestimulus11.png,Images/TMTstop-control_1_1greenlinestimulus11.png,Images/TMTstop-control_1_1redlinestimulus11.png,TMT_Control,C1,14,None,1,14,1.0,45.32292556762695,45.32292556762695,0.0,,1.0,1.0,0.0,2,-0.02759200002765283,45.32292556762695,45.32292556762695,0.0,,13.0
15,['3'],3,Images/TMTstop-control_1_1linestimulus12.png,Images/TMTstop-control_1_1greenlinestimulus12.png,Images/TMTstop-control_1_1redlinestimulus12.png,TMT_Control,C1,15,None,1,15,1.0,45.37562561035156,45.37562561035156,0.0,,1.0,1.0,0.0,1,1,2,3,0.006892100034747273,0.37568420002935454,0.5881430000299588,0.5957583000417799,45.37562561035156,45.37562561035156,0.0,,14.0
16,['2'],2,Images/TMTstop-control_1_1linestimulus13.png,Images/TMTstop-control_1_1greenlinestimulus13.png,Images/TMTstop-control_1_1redlinestimulus13.png,TMT_Control,C1,16,None,1,16,1.0,46.06157684326172,46.06157684326172,0.0,,1.0,1.0,0.0,1,2,3,1,3,2,0.04600129998289049,0.21555199997965246,0.21643430000403896,0.3670138000161387,0.5230076999869198,0.571432399970945,46.06157684326172,46.06157684326172,0.0,,15.0
17,['3'],3,Images/TMTstop-control_1_1linestimulus14.png,Images/TMTstop-control_1_1greenlinestimulus14.png,Images/TMTstop-control_1_1redlinestimulus14.png,TMT_Control,C1,17,None,1,17,1.0,46.71839904785156,46.71839904785156,0.0,,1.0,1.0,0.0,1,3,0.018187300011049956,0.18309780000708997,46.71839904785156,46.71839904785156,0.0,,16.0
18,['2'],2,Images/TMTstop-control_1_1linestimulus15.png,Images/TMTstop-control_1_1greenlinestimulus15.png,Images/TMTstop-control_1_1redlinestimulus15.png,TMT_Control,C1,18,None,1,18,1.0,46.95808029174805,46.95808029174805,0.0,,1.0,1.0,0.0,2,-0.034633400035090744,46.95808029174805,46.95808029174805,0.0,,17.0
19,['1'],1,Images/TMTstop-control_1_1linestimulus16.png,Images/TMTstop-control_1_1greenlinestimulus16.png,Images/TMTstop-control_1_1redlinestimulus16.png,TMT_Control,C1,19,None,1,19,1.0,47.00910949707031,47.00910949707031,0.0,,1.0,1.0,0.0,1,0.05109960003755987,47.00910949707031,47.00910949707031,0.0,,18.0
20,['3'],3,Images/TMTstop-control_1_1linestimulus17.png,Images/TMTstop-control_1_1greenlinestimulus17.png,Images/TMTstop-control_1_1redlinestimulus17.png,TMT_Control,C1,20,None,1,20,1.0,47.116127014160156,47.116127014160156,0.0,,1.0,1.0,0.0,3,0.1295250999974087,47.116127014160156,47.116127014160156,0.0,,19.0
21,['1'],1,Images/TMTstop-control_1_1linestimulus18.png,Images/TMTstop-control_1_1greenlinestimulus18.png,Images/TMTstop-control_1_1redlinestimulus18.png,TMT_Control,C1,21,None,1,21,1.0,47.29997253417969,47.29997253417969,0.0,,1.0,1.0,0.0,2,1,-0.015864700020756572,0.1716471000108868,47.29997253417969,47.29997253417969,0.0,,20.0
22,['2'],2,Images/TMTstop-control_1_1linestimulus19.png,Images/TMTstop-control_1_1greenlinestimulus19.png,Images/TMTstop-control_1_1redlinestimulus19.png,TMT_Control,C1,22,None,1,22,1.0,47.56110382080078,47.56110382080078,0.0,,1.0,1.0,0.0,2,0.694446399982553,47.56110382080078,47.56110382080078,0.0,,21.0
23,['3'],3,Images/TMTstop-control_1_1linestimulus20.png,Images/TMTstop-control_1_1greenlinestimulus20.png,Images/TMTstop-control_1_1redlinestimulus20.png,TMT_Control,C1,23,None,1,23,1.0,48.31930160522461,48.31930160522461,0.0,,1.0,1.0,0.0,3,0.3345740000368096,48.31930160522461,48.31930160522461,0.0,,22.0
24,['2'],2,Images/TMTstop-control_1_1linestimulus21.png,Images/TMTstop-control_1_1greenlinestimulus21.png,Images/TMTstop-control_1_1redlinestimulus21.png,TMT_Control,C1,24,None,1,24,1.0,48.71123504638672,48.71123504638672,0.0,,1.0,1.0,0.0,2,0.31840119999833405,48.71123504638672,48.71123504638672,0.0,,23.0
25,['1'],1,Images/TMTstop-control_1_1linestimulus22.png,Images/TMTstop-control_1_1greenlinestimulus22.png,Images/TMTstop-control_1_1redlinestimulus22.png,TMT_Control,C1,25,None,1,25,1.0,49.10664749145508,49.10664749145508,0.0,,1.0,1.0,0.0,1,0.2628672000137158,49.10664749145508,49.10664749145508,0.0,,24.0
None,None,None,Images/TMTstop-control_1_1linestimulus23.png,Images/TMTstop-control_1_1greenlinestimulus23.png,Images/TMTstop-control_1_1redlinestimulus23.png,TMT_Control,C1,Feedback_last,None,1,Feedback_last,1.0,49.431182861328125,49.431182861328125,0.0,,1.0,1.0,0.0,,'--',49.431182861328125,49.431182861328125,0.0,,25.0

extraInfo
participant,
session,001
date,2022_Dec_20_1551
expName,TMT_fmri
psychopyVersion,2021.2.3
frameRate,59.8764031355123
﻿NumberLetter,corrAns,Correct,StimFile,Correct_StimFile,False_StimFile,Version,Paper,TrialNumber_Version,Round,Block,TrialNumber_total,n,Stim.started_mean,Stim.started_raw,Stim.started_std,Stim.stopped_raw,key_resp_2.corr_mean,key_resp_2.corr_raw,key_resp_2.corr_std,key_resp_2.keys_raw,key_resp_2.rt_raw,key_resp_2.started_mean,key_resp_2.started_raw,key_resp_2.started_std,key_resp_2.stopped_raw,order
1,['2'],2,Images/TMTstop-control_1_2.png,Images/TMTstop-control_1_2.png,Images/TMTstop-control_1_2.png,TMT_Control,C2,26,None,1,26,1.0,53.734806060791016,53.734806060791016,0.0,,1.0,1.0,0.0,2,0.6468773999949917,53.734806060791016,53.734806060791016,0.0,,0.0
2,['3'],3,Images/TMTstop-control_1_2.png,Images/TMTstop-control_1_2firstgreen.png,Images/TMTstop-control_1_2firstred.png,TMT_Control,C2,27,None,1,27,1.0,54.447689056396484,54.447689056396484,0.0,,1.0,1.0,0.0,3,-0.008459000033326447,54.447689056396484,54.447689056396484,0.0,,1.0
3,['2'],2,Images/TMTstop-control_1_2linestimulus0.png,Images/TMTstop-control_1_2greenlinestimulus0.png,Images/TMTstop-control_1_2redlinestimulus0.png,TMT_Control,C2,28,None,1,28,1.0,54.49772262573242,54.49772262573242,0.0,,1.0,1.0,0.0,1,3,2,0.06299940001918003,0.22950680000940338,0.3235854000085965,54.49772262573242,54.49772262573242,0.0,,2.0
4,['3'],3,Images/TMTstop-control_1_2linestimulus1.png,Images/TMTstop-control_1_2greenlinestimulus1.png,Images/TMTstop-control_1_2redlinestimulus1.png,TMT_Control,C2,29,None,1,29,1.0,54.871307373046875,54.871307373046875,0.0,,1.0,1.0,0.0,1,3,0.010277000023052096,0.17721530003473163,54.871307373046875,54.871307373046875,0.0,,3.0
5,['2'],2,Images/TMTstop-control_1_2linestimulus2.png,Images/TMTstop-control_1_2greenlinestimulus2.png,Images/TMTstop-control_1_2redlinestimulus2.png,TMT_Control,C2,30,None,1,30,1.0,55.14500045776367,55.14500045776367,0.0,,1.0,1.0,0.0,2,-0.04078420001314953,55.14500045776367,55.14500045776367,0.0,,4.0
6,['3'],3,Images/TMTstop-control_1_2linestimulus3.png,Images/TMTstop-control_1_2greenlinestimulus3.png,Images/TMTstop-control_1_2redlinestimulus3.png,TMT_Control,C2,31,None,1,31,1.0,55.19496536254883,55.19496536254883,0.0,,1.0,1.0,0.0,1,3,0.0675694000092335,0.2283445000066422,55.19496536254883,55.19496536254883,0.0,,5.0
7,['2'],2,Images/TMTstop-control_1_2linestimulus4.png,Images/TMTstop-control_1_2greenlinestimulus4.png,Images/TMTstop-control_1_2redlinestimulus4.png,TMT_Control,C2,32,None,1,32,1.0,55.478851318359375,55.478851318359375,0.0,,1.0,1.0,0.0,2,-0.009574999974574894,55.478851318359375,55.478851318359375,0.0,,6.0
8,['1'],1,Images/TMTstop-control_1_2linestimulus4.png,Images/TMTstop-control_1_2greenlinestimulus5.png,Images/TMTstop-control_1_2redlinestimulus5.png,TMT_Control,C2,33,None,1,33,1.0,55.5288200378418,55.5288200378418,0.0,,1.0,1.0,0.0,1,0.04898179997690022,55.5288200378418,55.5288200378418,0.0,,7.0
9,['3'],3,Images/TMTstop-control_1_2linestimulus6.png,Images/TMTstop-control_1_2greenlinestimulus6.png,Images/TMTstop-control_1_2redlinestimulus6.png,TMT_Control,C2,34,None,1,34,1.0,55.628421783447266,55.628421783447266,0.0,,1.0,1.0,0.0,3,0.1254789999802597,55.628421783447266,55.628421783447266,0.0,,8.0
10,['2'],2,Images/TMTstop-control_1_2linestimulus7.png,Images/TMTstop-control_1_2greenlinestimulus7.png,Images/TMTstop-control_1_2redlinestimulus7.png,TMT_Control,C2,35,None,1,35,1.0,55.82038497924805,55.82038497924805,0.0,,1.0,1.0,0.0,2,-0.044571599981281906,55.82038497924805,55.82038497924805,0.0,,9.0
11,['3'],3,Images/TMTstop-control_1_2linestimulus8.png,Images/TMTstop-control_1_2greenlinestimulus8.png,Images/TMTstop-control_1_2redlinestimulus8.png,TMT_Control,C2,36,None,1,36,1.0,55.870365142822266,55.870365142822266,0.0,,1.0,1.0,0.0,1,3,0.05825100000947714,0.205252300016582,55.870365142822266,55.870365142822266,0.0,,10.0
12,['2'],2,Images/TMTstop-control_1_2linestimulus9.png,Images/TMTstop-control_1_2greenlinestimulus9.png,Images/TMTstop-control_1_2redlinestimulus9.png,TMT_Control,C2,37,None,1,37,1.0,56.143768310546875,56.143768310546875,0.0,,1.0,1.0,0.0,2,-0.02516790002118796,56.143768310546875,56.143768310546875,0.0,,11.0
13,['3'],3,Images/TMTstop-control_1_2linestimulus10.png,Images/TMTstop-control_1_2greenlinestimulus10.png,Images/TMTstop-control_1_2redlinestimulus10.png,TMT_Control,C2,38,None,1,38,1.0,56.19329833984375,56.19329833984375,0.0,,1.0,1.0,0.0,1,3,0.07337529998039827,0.23159079998731613,56.19329833984375,56.19329833984375,0.0,,12.0
14,['2'],2,Images/TMTstop-control_1_2linestimulus11.png,Images/TMTstop-control_1_2greenlinestimulus11.png,Images/TMTstop-control_1_2redlinestimulus11.png,TMT_Control,C2,39,None,1,39,1.0,56.48831558227539,56.48831558227539,0.0,,1.0,1.0,0.0,2,-0.043148300028406084,56.48831558227539,56.48831558227539,0.0,,13.0
15,['3'],3,Images/TMTstop-control_1_2linestimulus12.png,Images/TMTstop-control_1_2greenlinestimulus12.png,Images/TMTstop-control_1_2redlinestimulus12.png,TMT_Control,C2,40,None,1,40,1.0,56.5382080078125,56.5382080078125,0.0,,1.0,1.0,0.0,1,3,0.05378409998957068,0.2234110999852419,56.5382080078125,56.5382080078125,0.0,,14.0
16,['1'],1,Images/TMTstop-control_1_2linestimulus13.png,Images/TMTstop-control_1_2greenlinestimulus13.png,Images/TMTstop-control_1_2redlinestimulus13.png,TMT_Control,C2,41,None,1,41,1.0,56.81914138793945,56.81914138793945,0.0,,1.0,1.0,0.0,2,1,-0.040598199993837625,0.12166599999181926,56.81914138793945,56.81914138793945,0.0,,15.0
17,['2'],2,Images/TMTstop-control_1_2linestimulus14.png,Images/TMTstop-control_1_2greenlinestimulus14.png,Images/TMTstop-control_1_2redlinestimulus14.png,TMT_Control,C2,42,None,1,42,1.0,57.01993942260742,57.01993942260742,0.0,,1.0,1.0,0.0,3,2,0.08752439997624606,0.11164809996262193,57.01993942260742,57.01993942260742,0.0,,16.0
18,['1'],1,Images/TMTstop-control_1_2linestimulus15.png,Images/TMTstop-control_1_2greenlinestimulus15.png,Images/TMTstop-control_1_2redlinestimulus15.png,TMT_Control,C2,43,None,1,43,1.0,57.22624969482422,57.22624969482422,0.0,,1.0,1.0,0.0,1,0.06339259998640046,57.22624969482422,57.22624969482422,0.0,,17.0
19,['2'],2,Images/TMTstop-control_1_2linestimulus16.png,Images/TMTstop-control_1_2greenlinestimulus16.png,Images/TMTstop-control_1_2redlinestimulus16.png,TMT_Control,C2,44,None,1,44,1.0,57.34298324584961,57.34298324584961,0.0,,1.0,1.0,0.0,3,2,0.11162129999138415,0.18966329999966547,57.34298324584961,57.34298324584961,0.0,,18.0
20,['3'],3,Images/TMTstop-control_1_2linestimulus17.png,Images/TMTstop-control_1_2greenlinestimulus17.png,Images/TMTstop-control_1_2redlinestimulus17.png,TMT_Control,C2,45,None,1,45,1.0,57.61391830444336,57.61391830444336,0.0,,1.0,1.0,0.0,1,3,2,1,3,-0.004745999991428107,0.15265309996902943,0.1850342999678105,0.32446139998501167,0.5021871000062674,57.61391830444336,57.61391830444336,0.0,,19.0
21,['1'],1,Images/TMTstop-control_1_2linestimulus18.png,Images/TMTstop-control_1_2greenlinestimulus18.png,Images/TMTstop-control_1_2redlinestimulus18.png,TMT_Control,C2,46,None,1,46,1.0,58.20507049560547,58.20507049560547,0.0,,1.0,1.0,0.0,2,1,-0.04343170003267005,0.05169499997282401,58.20507049560547,58.20507049560547,0.0,,20.0
22,['3'],3,Images/TMTstop-control_1_2linestimulus19.png,Images/TMTstop-control_1_2greenlinestimulus19.png,Images/TMTstop-control_1_2redlinestimulus19.png,TMT_Control,C2,47,None,1,47,1.0,58.307254791259766,58.307254791259766,0.0,,1.0,1.0,0.0,3,0.10733670002082363,58.307254791259766,58.307254791259766,0.0,,21.0
23,['2'],2,Images/TMTstop-control_1_2linestimulus20.png,Images/TMTstop-control_1_2greenlinestimulus20.png,Images/TMTstop-control_1_2redlinestimulus20.png,TMT_Control,C2,48,None,1,48,1.0,58.474700927734375,58.474700927734375,0.0,,1.0,1.0,0.0,2,-0.011096500034909695,58.474700927734375,58.474700927734375,0.0,,22.0
24,['3'],3,Images/TMTstop-control_1_2linestimulus21.png,Images/TMTstop-control_1_2greenlinestimulus21.png,Images/TMTstop-control_1_2redlinestimulus21.png,TMT_Control,C2,49,None,1,49,1.0,58.53034591674805,58.53034591674805,0.0,,1.0,1.0,0.0,1,3,2,1,3,0.08528340002521873,0.2543677000212483,0.2707739999750629,0.4195632999762893,0.6254605000140145,58.53034591674805,58.53034591674805,0.0,,23.0
25,['1'],1,Images/TMTstop-control_1_2linestimulus22.png,Images/TMTstop-control_1_2greenlinestimulus22.png,Images/TMTstop-control_1_2redlinestimulus22.png,TMT_Control,C2,50,None,1,50,1.0,59.24607849121094,59.24607849121094,0.0,,1.0,1.0,0.0,2,1,0.027636900020297617,0.2017842000350356,59.24607849121094,59.24607849121094,0.0,,24.0
None,None,None,Images/TMTstop-control_1_2linestimulus23.png,Images/TMTstop-control_1_2greenlinestimulus23.png,Images/TMTstop-control_1_2redlinestimulus23.png,TMT_Control,C2,Feedback_last,None,1,Feedback_last,1.0,59.5301399230957,59.5301399230957,0.0,,0.0,0.0,0.0,1,0.11555539997061715,59.5301399230957,59.5301399230957,0.0,,25.0

extraInfo
participant,
session,001
date,2022_Dec_20_1551
expName,TMT_fmri
psychopyVersion,2021.2.3
frameRate,59.8764031355123
﻿NumberLetter,corrAns,Correct,StimFile,Correct_StimFile,False_StimFile,Version,Paper,TrialNumber_Version,Round,Block,TrialNumber_total,n,Stim.started_mean,Stim.started_raw,Stim.started_std,Stim.stopped_raw,key_resp_2.corr_mean,key_resp_2.corr_raw,key_resp_2.corr_std,key_resp_2.keys_raw,key_resp_2.rt_raw,key_resp_2.started_mean,key_resp_2.started_raw,key_resp_2.started_std,key_resp_2.stopped_raw,order
1,['2'],2,Images/TMTstop-control_1_3.png,Images/TMTstop-control_1_3.png,Images/TMTstop-control_1_3.png,TMT_Control,C3,51,None,1,51,1.0,63.88019943237305,63.88019943237305,0.0,,1.0,1.0,0.0,3,2,0.4055582999717444,0.49301729997387156,63.88019943237305,63.88019943237305,0.0,,0.0
2,['1'],1,Images/TMTstop-control_1_3.png,Images/TMTstop-control_1_3firstgreen.png,Images/TMTstop-control_1_3firstred.png,TMT_Control,C3,52,None,1,52,1.0,64.4292984008789,64.4292984008789,0.0,,1.0,1.0,0.0,1,0.06542240001726896,64.4292984008789,64.4292984008789,0.0,,1.0
3,['2'],2,Images/TMTstop-control_1_3linestimulus0.png,Images/TMTstop-control_1_3greenlinestimulus0.png,Images/TMTstop-control_1_3redlinestimulus0.png,TMT_Control,C3,53,None,1,53,1.0,64.54643249511719,64.54643249511719,0.0,,1.0,1.0,0.0,3,2,0.1362063999986276,0.21207549999235198,64.54643249511719,64.54643249511719,0.0,,2.0
4,['1'],1,Images/TMTstop-control_1_3linestimulus1.png,Images/TMTstop-control_1_3greenlinestimulus1.png,Images/TMTstop-control_1_3redlinestimulus1.png,TMT_Control,C3,54,None,1,54,1.0,64.85841369628906,64.85841369628906,0.0,,1.0,1.0,0.0,1,-0.020599199982825667,64.85841369628906,64.85841369628906,0.0,,3.0
5,['3'],3,Images/TMTstop-control_1_3linestimulus2.png,Images/TMTstop-control_1_3greenlinestimulus2.png,Images/TMTstop-control_1_3redlinestimulus2.png,TMT_Control,C3,55,None,1,55,1.0,64.91197204589844,64.91197204589844,0.0,,1.0,1.0,0.0,3,0.07362089998787269,64.91197204589844,64.91197204589844,0.0,,4.0
6,['1'],1,Images/TMTstop-control_1_3linestimulus3.png,Images/TMTstop-control_1_3greenlinestimulus3.png,Images/TMTstop-control_1_3redlinestimulus3.png,TMT_Control,C3,56,None,1,56,1.0,65.04583740234375,65.04583740234375,0.0,,1.0,1.0,0.0,2,1,-0.012147200002800673,0.09187329997075722,65.04583740234375,65.04583740234375,0.0,,5.0
7,['2'],2,Images/TMTstop-control_1_3linestimulus4.png,Images/TMTstop-control_1_3greenlinestimulus4.png,Images/TMTstop-control_1_3redlinestimulus4.png,TMT_Control,C3,57,None,1,57,1.0,65.23512268066406,65.23512268066406,0.0,,1.0,1.0,0.0,3,2,0.0750226000091061,0.11115419998532161,65.23512268066406,65.23512268066406,0.0,,6.0
8,['3'],3,Images/TMTstop-control_1_3linestimulus4.png,Images/TMTstop-control_1_3greenlinestimulus5.png,Images/TMTstop-control_1_3redlinestimulus5.png,TMT_Control,C3,58,None,1,58,1.0,65.42546081542969,65.42546081542969,0.0,,1.0,1.0,0.0,1,3,0.05151849996764213,0.1873564999550581,65.42546081542969,65.42546081542969,0.0,,7.0
9,['1'],1,Images/TMTstop-control_1_3linestimulus6.png,Images/TMTstop-control_1_3greenlinestimulus6.png,Images/TMTstop-control_1_3redlinestimulus6.png,TMT_Control,C3,59,None,1,59,1.0,65.68985748291016,65.68985748291016,0.0,,1.0,1.0,0.0,2,1,-0.004131200024858117,0.11488820001250133,65.68985748291016,65.68985748291016,0.0,,8.0
10,['2'],2,Images/TMTstop-control_1_3linestimulus7.png,Images/TMTstop-control_1_3greenlinestimulus7.png,Images/TMTstop-control_1_3redlinestimulus7.png,TMT_Control,C3,60,None,1,60,1.0,65.89706420898438,65.89706420898438,0.0,,1.0,1.0,0.0,3,2,0.06658829998923466,0.1101857999456115,65.89706420898438,65.89706420898438,0.0,,9.0
11,['1'],1,Images/TMTstop-control_1_3linestimulus8.png,Images/TMTstop-control_1_3greenlinestimulus8.png,Images/TMTstop-control_1_3redlinestimulus8.png,TMT_Control,C3,61,None,1,61,1.0,66.07060241699219,66.07060241699219,0.0,,1.0,1.0,0.0,1,0.019053900032304227,66.07060241699219,66.07060241699219,0.0,,10.0
12,['2'],2,Images/TMTstop-control_1_3linestimulus9.png,Images/TMTstop-control_1_3greenlinestimulus9.png,Images/TMTstop-control_1_3redlinestimulus9.png,TMT_Control,C3,62,None,1,62,1.0,66.17068481445312,66.17068481445312,0.0,,0.0,0.0,0.0,,'--',66.17068481445312,66.17068481445312,0.0,,11.0
13,['3'],3,Images/TMTstop-control_1_3linestimulus10.png,Images/TMTstop-control_1_3greenlinestimulus10.png,Images/TMTstop-control_1_3redlinestimulus10.png,TMT_Control,C3,63,None,1,63,0.0,,,,'--',,,,'--','--',,,,'--',
14,['2'],2,Images/TMTstop-control_1_3linestimulus11.png,Images/TMTstop-control_1_3greenlinestimulus11.png,Images/TMTstop-control_1_3redlinestimulus11.png,TMT_Control,C3,64,None,1,64,0.0,,,,'--',,,,'--','--',,,,'--',
15,['1'],1,Images/TMTstop-control_1_3linestimulus12.png,Images/TMTstop-control_1_3greenlinestimulus12.png,Images/TMTstop-control_1_3redlinestimulus12.png,TMT_Control,C3,65,None,1,65,0.0,,,,'--',,,,'--','--',,,,'--',
16,['3'],3,Images/TMTstop-control_1_3linestimulus13.png,Images/TMTstop-control_1_3greenlinestimulus13.png,Images/TMTstop-control_1_3redlinestimulus13.png,TMT_Control,C3,66,None,1,66,0.0,,,,'--',,,,'--','--',,,,'--',
17,['1'],1,Images/TMTstop-control_1_3linestimulus14.png,Images/TMTstop-control_1_3greenlinestimulus14.png,Images/TMTstop-control_1_3redlinestimulus14.png,TMT_Control,C3,67,None,1,67,0.0,,,,'--',,,,'--','--',,,,'--',
18,['3'],3,Images/TMTstop-control_1_3linestimulus15.png,Images/TMTstop-control_1_3greenlinestimulus15.png,Images/TMTstop-control_1_3redlinestimulus15.png,TMT_Control,C3,68,None,1,68,0.0,,,,'--',,,,'--','--',,,,'--',
19,['2'],2,Images/TMTstop-control_1_3linestimulus16.png,Images/TMTstop-control_1_3greenlinestimulus16.png,Images/TMTstop-control_1_3redlinestimulus16.png,TMT_Control,C3,69,None,1,69,0.0,,,,'--',,,,'--','--',,,,'--',
20,['1'],1,Images/TMTstop-control_1_3linestimulus17.png,Images/TMTstop-control_1_3greenlinestimulus17.png,Images/TMTstop-control_1_3redlinestimulus17.png,TMT_Control,C3,70,None,1,70,0.0,,,,'--',,,,'--','--',,,,'--',
21,['3'],3,Images/TMTstop-control_1_3linestimulus18.png,Images/TMTstop-control_1_3greenlinestimulus18.png,Images/TMTstop-control_1_3redlinestimulus18.png,TMT_Control,C3,71,None,1,71,0.0,,,,'--',,,,'--','--',,,,'--',
22,['2'],2,Images/TMTstop-control_1_3linestimulus19.png,Images/TMTstop-control_1_3greenlinestimulus19.png,Images/TMTstop-control_1_3redlinestimulus19.png,TMT_Control,C3,72,None,1,72,0.0,,,,'--',,,,'--','--',,,,'--',
23,['3'],3,Images/TMTstop-control_1_3linestimulus20.png,Images/TMTstop-control_1_3greenlinestimulus20.png,Images/TMTstop-control_1_3redlinestimulus20.png,TMT_Control,C3,73,None,1,73,0.0,,,,'--',,,,'--','--',,,,'--',
24,['1'],1,Images/TMTstop-control_1_3linestimulus21.png,Images/TMTstop-control_1_3greenlinestimulus21.png,Images/TMTstop-control_1_3redlinestimulus21.png,TMT_Control,C3,74,None,1,74,0.0,,,,'--',,,,'--','--',,,,'--',
25,['2'],2,Images/TMTstop-control_1_3linestimulus22.png,Images/TMTstop-control_1_3greenlinestimulus22.png,Images/TMTstop-control_1_3redlinestimulus22.png,TMT_Control,C3,75,None,1,75,0.0,,,,'--',,,,'--','--',,,,'--',
None,None,None,Images/TMTstop-control_1_3linestimulus23.png,Images/TMTstop-control_1_3greenlinestimulus23.png,Images/TMTstop-control_1_3redlinestimulus23.png,TMT_Control,C3,Feedback_last,None,1,Feedback_last,0.0,,,,'--',,,,'--','--',,,,'--',

extraInfo
participant,
session,001
date,2022_Dec_20_1551
expName,TMT_fmri
psychopyVersion,2021.2.3
frameRate,59.8764031355123
