Block_file,Condition_rows,NumberLetter,corrAns,Correct,StimFile,Correct_StimFile,False_StimFile,Version,Block,TrialNumber_session,Blocks_TMTControl.thisRepN,Blocks_TMTControl.thisTrialN,Blocks_TMTControl.thisN,Blocks_TMTControl.thisIndex,trials_TMTControl.thisRepN,trials_TMTControl.thisTrialN,trials_TMTControl.thisN,trials_TMTControl.thisIndex,key_resp_7.keys,key_resp_7.rt,key_resp_7.started,key_resp_7.stopped,polygon_2.started,polygon_2.stopped,Attempts,First_attempt,Stim.started,Stim.stopped,key_resp_2.keys,key_resp_2.corr,key_resp_2.rt,key_resp_2.started,key_resp_2.stopped,participant,session,date,expName,psychopyVersion,frameRate,
,,,,,,,,,,,,,,,,,,,s,1.5139856999885524,9.832875799998874,None,,,,,,,,,,,,,001,2022_May_10_1514,TMT_fmri,2021.2.3,59.87841090009852,
TMTstop-Control_1_1.xlsx,0:26,1,['2'],2,TMTstop-control_1_1.png,TMTstop-control_1_1.png,TMTstop-control_1_1.png,TMT_Control,1,1,0,0,0,0,0,0,0,0,,,,,9.832875799998874,None,2,0,11.53351069999917,None,"['3', '2']",1,"[1.9322653999988688, 2.3609880000003614]",11.53351069999917,None,,001,2022_May_10_1514,TMT_fmri,2021.2.3,59.87841090009852,
TMTstop-Control_1_1.xlsx,0:26,2,['1'],1,TMTstop-control_1_1.png,TMTstop-control_1_1firstgreen.png,TMTstop-control_1_1firstred.png,TMT_Control,1,2,0,0,0,0,0,1,1,1,,,,,,,1,1,13.94448679999914,None,['1'],1,[0.31091259999084286],13.94448679999914,None,,001,2022_May_10_1514,TMT_fmri,2021.2.3,59.87841090009852,
TMTstop-Control_1_1.xlsx,0:26,3,['3'],3,TMTstop-control_1_1linestimulus0.png,TMTstop-control_1_1greenlinestimulus0.png,TMTstop-control_1_1redlinestimulus0.png,TMT_Control,1,3,0,0,0,0,0,2,2,2,,,,,,,2,0,14.319341800000984,None,"['2', '3']",1,"[0.17794549999234732, 0.1857875999994576]",14.319341800000984,None,,001,2022_May_10_1514,TMT_fmri,2021.2.3,59.87841090009852,
TMTstop-Control_1_1.xlsx,0:26,4,['1'],1,TMTstop-control_1_1linestimulus1.png,TMTstop-control_1_1greenlinestimulus1.png,TMTstop-control_1_1redlinestimulus1.png,TMT_Control,1,4,0,0,0,0,0,3,3,3,,,,,,,1,1,14.610785600001691,None,['1'],1,[0.0028097999893361703],14.610785600001691,None,,001,2022_May_10_1514,TMT_fmri,2021.2.3,59.87841090009852,
TMTstop-Control_1_1.xlsx,0:26,5,['3'],3,TMTstop-control_1_1linestimulus2.png,TMTstop-control_1_1greenlinestimulus2.png,TMTstop-control_1_1redlinestimulus2.png,TMT_Control,1,5,0,0,0,0,0,4,4,4,,,,,,,1,1,14.69370259999414,None,['3'],1,[0.07176829999662004],14.69370259999414,None,,001,2022_May_10_1514,TMT_fmri,2021.2.3,59.87841090009852,
TMTstop-Control_1_1.xlsx,0:26,6,['1'],1,TMTstop-control_1_1linestimulus3.png,TMTstop-control_1_1greenlinestimulus3.png,TMTstop-control_1_1redlinestimulus3.png,TMT_Control,1,6,0,0,0,0,0,5,5,5,,,,,,,2,0,14.831092599997646,None,"['2', '1']",1,"[-0.037060000002384186, 0.09073609999904875]",14.831092599997646,None,,001,2022_May_10_1514,TMT_fmri,2021.2.3,59.87841090009852,
TMTstop-Control_1_1.xlsx,0:26,7,['2'],2,TMTstop-control_1_1linestimulus4.png,TMTstop-control_1_1greenlinestimulus4.png,TMTstop-control_1_1redlinestimulus4.png,TMT_Control,1,7,0,0,0,0,0,6,6,6,,,,,,,2,0,14.986149099990143,None,"['3', '2']",1,"[0.0735487999918405, 0.10295179999957327]",14.986149099990143,None,,001,2022_May_10_1514,TMT_fmri,2021.2.3,59.87841090009852,
TMTstop-Control_1_1.xlsx,0:26,8,['1'],1,TMTstop-control_1_1linestimulus4.png,TMTstop-control_1_1greenlinestimulus5.png,TMTstop-control_1_1redlinestimulus5.png,TMT_Control,1,8,0,0,0,0,0,7,7,7,,,,,,,1,1,15.178608499991242,None,['1'],1,[0.02963150000141468],15.178608499991242,None,,001,2022_May_10_1514,TMT_fmri,2021.2.3,59.87841090009852,
TMTstop-Control_1_1.xlsx,0:26,9,['3'],3,TMTstop-control_1_1linestimulus6.png,TMTstop-control_1_1greenlinestimulus6.png,TMTstop-control_1_1redlinestimulus6.png,TMT_Control,1,9,0,0,0,0,0,8,8,8,,,,,,,5,0,15.26749889999337,None,"['3', '2', '1', '2', '3']",1,"[0.08945099999255035, 0.09407209999335464, 0.2449027999973623, 0.41421859999536537, 0.41886320000048727]",15.26749889999337,None,,001,2022_May_10_1514,TMT_fmri,2021.2.3,59.87841090009852,
TMTstop-Control_1_1.xlsx,0:26,10,['2'],2,TMTstop-control_1_1linestimulus7.png,TMTstop-control_1_1greenlinestimulus7.png,TMTstop-control_1_1redlinestimulus7.png,TMT_Control,1,10,0,0,0,0,0,9,9,9,,,,,,,2,0,15.78200759999163,None,"['1', '2']",1,"[0.06007120000140276, 0.20968439998978283]",15.78200759999163,None,,001,2022_May_10_1514,TMT_fmri,2021.2.3,59.87841090009852,
TMTstop-Control_1_1.xlsx,0:26,11,['1'],1,TMTstop-control_1_1linestimulus8.png,TMTstop-control_1_1greenlinestimulus8.png,TMTstop-control_1_1redlinestimulus8.png,TMT_Control,1,11,0,0,0,0,0,10,10,10,,,,,,,1,1,16.055458000002545,None,['1'],1,[0.11352440000337083],16.055458000002545,None,,001,2022_May_10_1514,TMT_fmri,2021.2.3,59.87841090009852,
TMTstop-Control_1_1.xlsx,0:26,12,['2'],2,TMTstop-control_1_1linestimulus9.png,TMTstop-control_1_1greenlinestimulus9.png,TMTstop-control_1_1redlinestimulus9.png,TMT_Control,1,12,0,0,0,0,0,11,11,11,,,,,,,2,0,16.22178690000146,None,"['3', '2']",1,"[0.09212919999845326, 0.18156339999404736]",16.22178690000146,None,,001,2022_May_10_1514,TMT_fmri,2021.2.3,59.87841090009852,
TMTstop-Control_1_1.xlsx,0:26,13,['3'],3,TMTstop-control_1_1linestimulus10.png,TMTstop-control_1_1greenlinestimulus10.png,TMTstop-control_1_1redlinestimulus10.png,TMT_Control,1,13,0,0,0,0,0,12,12,12,,,,,,,3,0,16.487258900000597,None,"['1', '2', '3']",1,"[0.011441199996625073, 0.13438019999011885, 0.13888079999014735]",16.487258900000597,None,,001,2022_May_10_1514,TMT_fmri,2021.2.3,59.87841090009852,
TMTstop-Control_1_1.xlsx,0:26,14,['2'],2,TMTstop-control_1_1linestimulus11.png,TMTstop-control_1_1greenlinestimulus11.png,TMTstop-control_1_1redlinestimulus11.png,TMT_Control,1,14,0,0,0,0,0,13,13,13,,,,,,,6,0,16.716321999992942,None,"['1', '2', '3', '1', '3', '2']",1,"[0.06725950000691228, 0.24525950000679586, 0.24995160000980832, 0.41040730000531767, 0.5845732000016142, 0.5892959000047995]",16.716321999992942,None,,001,2022_May_10_1514,TMT_fmri,2021.2.3,59.87841090009852,
TMTstop-Control_1_1.xlsx,0:26,15,['3'],3,TMTstop-control_1_1linestimulus12.png,TMTstop-control_1_1greenlinestimulus12.png,TMTstop-control_1_1redlinestimulus12.png,TMT_Control,1,15,0,0,0,0,0,14,14,14,,,,,,,5,0,17.3892499999929,None,"['1', '2', '1', '2', '3']",1,"[0.08109240001067519, 0.2270110000099521, 0.41854800000146497, 0.6365886999992654, 0.6398487999977078]",17.3892499999929,None,,001,2022_May_10_1514,TMT_fmri,2021.2.3,59.87841090009852,
TMTstop-Control_1_1.xlsx,0:26,16,['2'],2,TMTstop-control_1_1linestimulus13.png,TMTstop-control_1_1greenlinestimulus13.png,TMTstop-control_1_1redlinestimulus13.png,TMT_Control,1,16,0,0,0,0,0,15,15,15,,,,,,,9,0,18.125568399991607,None,"['1', '2', '3', '1', '2', '3', '1', '1', '2']",1,"[0.07040289998985827, 0.24523069999122526, 0.24837190000107512, 0.4003284999926109, 0.5469363999873167, 0.5529286999953911, 0.7208737999899313, 1.2287960999965435, 1.3991765999962809]",18.125568399991607,None,,001,2022_May_10_1514,TMT_fmri,2021.2.3,59.87841090009852,
TMTstop-Control_1_1.xlsx,0:26,17,['3'],3,TMTstop-control_1_1linestimulus14.png,TMTstop-control_1_1greenlinestimulus14.png,TMTstop-control_1_1redlinestimulus14.png,TMT_Control,1,17,0,0,0,0,0,16,16,16,,,,,,,3,0,19.616123599989805,None,"['1', '2', '3']",1,"[0.12744529999326915, 0.20279699999082368, 0.32867269999405835]",19.616123599989805,None,,001,2022_May_10_1514,TMT_fmri,2021.2.3,59.87841090009852,
TMTstop-Control_1_1.xlsx,0:26,18,['2'],2,TMTstop-control_1_1linestimulus15.png,TMTstop-control_1_1greenlinestimulus15.png,TMTstop-control_1_1redlinestimulus15.png,TMT_Control,1,18,0,0,0,0,0,17,17,17,,,,,,,2,0,20.0097359999927,None,"['1', '2']",1,"[0.08695490000536665, 0.26718360000813846]",20.0097359999927,None,,001,2022_May_10_1514,TMT_fmri,2021.2.3,59.87841090009852,
TMTstop-Control_1_1.xlsx,0:26,19,['1'],1,TMTstop-control_1_1linestimulus16.png,TMTstop-control_1_1greenlinestimulus16.png,TMTstop-control_1_1redlinestimulus16.png,TMT_Control,1,19,0,0,0,0,0,18,18,18,,,,,,,1,1,20.372985800000606,None,['1'],1,[0.02856469999824185],20.372985800000606,None,,001,2022_May_10_1514,TMT_fmri,2021.2.3,59.87841090009852,
TMTstop-Control_1_1.xlsx,0:26,20,['3'],3,TMTstop-control_1_1linestimulus17.png,TMTstop-control_1_1greenlinestimulus17.png,TMTstop-control_1_1redlinestimulus17.png,TMT_Control,1,20,0,0,0,0,0,19,19,19,,,,,,,1,1,20.47316409999621,None,['3'],1,[0.055211099999723956],20.47316409999621,None,,001,2022_May_10_1514,TMT_fmri,2021.2.3,59.87841090009852,
TMTstop-Control_1_1.xlsx,0:26,21,['1'],1,TMTstop-control_1_1linestimulus18.png,TMTstop-control_1_1greenlinestimulus18.png,TMTstop-control_1_1redlinestimulus18.png,TMT_Control,1,21,0,0,0,0,0,20,20,20,,,,,,,2,0,20.58994389999134,None,"['2', '1']",1,"[-0.04265000000305008, 0.12167350000527222]",20.58994389999134,None,,001,2022_May_10_1514,TMT_fmri,2021.2.3,59.87841090009852,
TMTstop-Control_1_1.xlsx,0:26,22,['2'],2,TMTstop-control_1_1linestimulus19.png,TMTstop-control_1_1greenlinestimulus19.png,TMTstop-control_1_1redlinestimulus19.png,TMT_Control,1,22,0,0,0,0,0,21,21,21,,,,,,,2,0,20.801229199991212,None,"['3', '2']",1,"[0.04235059999336954, 0.08469160000095144]",20.801229199991212,None,,001,2022_May_10_1514,TMT_fmri,2021.2.3,59.87841090009852,
TMTstop-Control_1_1.xlsx,0:26,23,['3'],3,TMTstop-control_1_1linestimulus20.png,TMTstop-control_1_1greenlinestimulus20.png,TMTstop-control_1_1redlinestimulus20.png,TMT_Control,1,23,0,0,0,0,0,22,22,22,,,,,,,2,0,20.95232969999779,None,"['1', '3']",1,"[0.07726769999135286, 0.225541499996325]",20.95232969999779,None,,001,2022_May_10_1514,TMT_fmri,2021.2.3,59.87841090009852,
TMTstop-Control_1_1.xlsx,0:26,24,['2'],2,TMTstop-control_1_1linestimulus21.png,TMTstop-control_1_1greenlinestimulus21.png,TMTstop-control_1_1redlinestimulus21.png,TMT_Control,1,24,0,0,0,0,0,23,23,23,,,,,,,1,1,21.2453436999931,None,['2'],1,[-0.026856800002860837],21.2453436999931,None,,001,2022_May_10_1514,TMT_fmri,2021.2.3,59.87841090009852,
TMTstop-Control_1_1.xlsx,0:26,25,['1'],1,TMTstop-control_1_1linestimulus22.png,TMTstop-control_1_1greenlinestimulus22.png,TMTstop-control_1_1redlinestimulus22.png,TMT_Control,1,25,0,0,0,0,0,24,24,24,,,,,,,1,1,21.2954391999956,None,['1'],1,[0.0401034999958938],21.2954391999956,None,,001,2022_May_10_1514,TMT_fmri,2021.2.3,59.87841090009852,
TMTstop-Control_1_1.xlsx,0:26,None,None,None,TMTstop-control_1_1linestimulus23.png,TMTstop-control_1_1greenlinestimulus23.png,TMTstop-control_1_1redlinestimulus23.png,TMT_Control,1,Feedback_last,0,0,0,0,0,25,25,25,,,,,,,5,0,21.395851699999184,None,"['3', '2', '1', '3', '2']",0,"[0.10164310000254773, 0.13821530000132043, 0.26705919999221805, 0.40255980000074487, 0.4504612000018824]",21.395851699999184,None,,001,2022_May_10_1514,TMT_fmri,2021.2.3,59.87841090009852,
TMTstop-Control_1_2.xlsx,26:52,1,['2'],2,TMTstop-control_1_2.png,TMTstop-control_1_2.png,TMTstop-control_1_2.png,TMT_Control,2,26,0,1,1,1,0,0,0,0,,,,,,,1,1,25.513964400000987,None,['2'],1,[0.5962321999977576],25.513964400000987,None,,001,2022_May_10_1514,TMT_fmri,2021.2.3,59.87841090009852,
TMTstop-Control_1_2.xlsx,26:52,2,['3'],3,TMTstop-control_1_2.png,TMTstop-control_1_2firstgreen.png,TMTstop-control_1_2firstred.png,TMT_Control,2,27,0,1,1,1,0,1,1,1,,,,,,,1,1,26.172626499988837,None,['3'],1,[0.21261719999893103],26.172626499988837,None,,001,2022_May_10_1514,TMT_fmri,2021.2.3,59.87841090009852,
TMTstop-Control_1_2.xlsx,26:52,3,['2'],2,TMTstop-control_1_2linestimulus0.png,TMTstop-control_1_2greenlinestimulus0.png,TMTstop-control_1_2redlinestimulus0.png,TMT_Control,2,28,0,1,1,1,0,2,2,2,,,,,,,6,0,26.446764199994504,None,"['1', '2', '3', '1', '3', '2']",1,"[0.05424940001103096, 0.2509018999990076, 0.2554043999989517, 0.3975691000086954, 0.5813061000080779, 0.5850031000009039]",26.446764199994504,None,,001,2022_May_10_1514,TMT_fmri,2021.2.3,59.87841090009852,
TMTstop-Control_1_2.xlsx,26:52,4,['3'],3,TMTstop-control_1_2linestimulus1.png,TMTstop-control_1_2greenlinestimulus1.png,TMTstop-control_1_2redlinestimulus1.png,TMT_Control,2,29,0,1,1,1,0,3,3,3,,,,,,,5,0,27.107976599989343,None,"['1', '3', '2', '1', '3']",1,"[0.08064679999370128, 0.26621000000159256, 0.27036179999413434, 0.41530860000057146, 0.5806827999913367]",27.107976599989343,None,,001,2022_May_10_1514,TMT_fmri,2021.2.3,59.87841090009852,
TMTstop-Control_1_2.xlsx,26:52,5,['2'],2,TMTstop-control_1_2linestimulus2.png,TMTstop-control_1_2greenlinestimulus2.png,TMTstop-control_1_2redlinestimulus2.png,TMT_Control,2,30,0,1,1,1,0,4,4,4,,,,,,,1,1,27.759070100000827,None,['2'],1,[-0.0429535000002943],27.759070100000827,None,,001,2022_May_10_1514,TMT_fmri,2021.2.3,59.87841090009852,
TMTstop-Control_1_2.xlsx,26:52,6,['3'],3,TMTstop-control_1_2linestimulus3.png,TMTstop-control_1_2greenlinestimulus3.png,TMTstop-control_1_2redlinestimulus3.png,TMT_Control,2,31,0,1,1,1,0,5,5,5,,,,,,,2,0,27.81109750000178,None,"['1', '3']",1,"[0.06111199999577366, 0.21303129999432713]",27.81109750000178,None,,001,2022_May_10_1514,TMT_fmri,2021.2.3,59.87841090009852,
TMTstop-Control_1_2.xlsx,26:52,7,['2'],2,TMTstop-control_1_2linestimulus4.png,TMTstop-control_1_2greenlinestimulus4.png,TMTstop-control_1_2redlinestimulus4.png,TMT_Control,2,32,0,1,1,1,0,6,6,6,,,,,,,1,1,28.094666599994525,None,['2'],1,[-0.03456550001283176],28.094666599994525,None,,001,2022_May_10_1514,TMT_fmri,2021.2.3,59.87841090009852,
TMTstop-Control_1_2.xlsx,26:52,8,['1'],1,TMTstop-control_1_2linestimulus4.png,TMTstop-control_1_2greenlinestimulus5.png,TMTstop-control_1_2redlinestimulus5.png,TMT_Control,2,33,0,1,1,1,0,7,7,7,,,,,,,1,1,28.144719899995835,None,['1'],1,[0.061642300002858974],28.144719899995835,None,,001,2022_May_10_1514,TMT_fmri,2021.2.3,59.87841090009852,
TMTstop-Control_1_2.xlsx,26:52,9,['3'],3,TMTstop-control_1_2linestimulus6.png,TMTstop-control_1_2greenlinestimulus6.png,TMTstop-control_1_2redlinestimulus6.png,TMT_Control,2,34,0,1,1,1,0,8,8,8,,,,,,,1,1,28.260990700000548,None,['3'],1,[0.0968523999908939],28.260990700000548,None,,001,2022_May_10_1514,TMT_fmri,2021.2.3,59.87841090009852,
TMTstop-Control_1_2.xlsx,26:52,10,['2'],2,TMTstop-control_1_2linestimulus7.png,TMTstop-control_1_2greenlinestimulus7.png,TMTstop-control_1_2redlinestimulus7.png,TMT_Control,2,35,0,1,1,1,0,9,9,9,,,,,,,1,1,28.411173599990434,None,['2'],1,[-0.011198299995157868],28.411173599990434,None,,001,2022_May_10_1514,TMT_fmri,2021.2.3,59.87841090009852,
TMTstop-Control_1_2.xlsx,26:52,11,['3'],3,TMTstop-control_1_2linestimulus8.png,TMTstop-control_1_2greenlinestimulus8.png,TMTstop-control_1_2redlinestimulus8.png,TMT_Control,2,36,0,1,1,1,0,10,10,10,,,,,,,2,0,28.46143569999549,None,"['1', '3']",1,"[0.08476369999698363, 0.2228233000059845]",28.46143569999549,None,,001,2022_May_10_1514,TMT_fmri,2021.2.3,59.87841090009852,
TMTstop-Control_1_2.xlsx,26:52,12,['2'],2,TMTstop-control_1_2linestimulus9.png,TMTstop-control_1_2greenlinestimulus9.png,TMTstop-control_1_2redlinestimulus9.png,TMT_Control,2,37,0,1,1,1,0,11,11,11,,,,,,,1,1,28.752051599993138,None,['2'],1,[-0.029664200003026053],28.752051599993138,None,,001,2022_May_10_1514,TMT_fmri,2021.2.3,59.87841090009852,
TMTstop-Control_1_2.xlsx,26:52,13,['3'],3,TMTstop-control_1_2linestimulus10.png,TMTstop-control_1_2greenlinestimulus10.png,TMTstop-control_1_2redlinestimulus10.png,TMT_Control,2,38,0,1,1,1,0,12,12,12,,,,,,,2,0,28.80174939999415,None,"['1', '3']",1,"[0.08363389999431092, 0.2497573000000557]",28.80174939999415,None,,001,2022_May_10_1514,TMT_fmri,2021.2.3,59.87841090009852,
TMTstop-Control_1_2.xlsx,26:52,14,['2'],2,TMTstop-control_1_2linestimulus11.png,TMTstop-control_1_2greenlinestimulus11.png,TMTstop-control_1_2redlinestimulus11.png,TMT_Control,2,39,0,1,1,1,0,13,13,13,,,,,,,1,1,29.145995599988964,None,['2'],1,[-0.0452246000058949],29.145995599988964,None,,001,2022_May_10_1514,TMT_fmri,2021.2.3,59.87841090009852,
TMTstop-Control_1_2.xlsx,26:52,15,['3'],3,TMTstop-control_1_2linestimulus12.png,TMTstop-control_1_2greenlinestimulus12.png,TMTstop-control_1_2redlinestimulus12.png,TMT_Control,2,40,0,1,1,1,0,14,14,14,,,,,,,8,0,29.196015699999407,None,"['1', '3', '2', '1', '3', '2', '1', '3']",1,"[0.09054799999285024, 0.2607787000015378, 0.2927874000015436, 0.44750059999933, 0.6072866000031354, 0.6478666000039084, 0.8007464999973308, 0.9531828000035603]",29.196015699999407,None,,001,2022_May_10_1514,TMT_fmri,2021.2.3,59.87841090009852,
TMTstop-Control_1_2.xlsx,26:52,16,['1'],1,TMTstop-control_1_2linestimulus13.png,TMTstop-control_1_2greenlinestimulus13.png,TMTstop-control_1_2redlinestimulus13.png,TMT_Control,2,41,0,1,1,1,0,15,15,15,,,,,,,2,0,30.205891099991277,None,"['2', '1']",1,"[-0.026068999999552034, 0.14877800000249408]",30.205891099991277,None,,001,2022_May_10_1514,TMT_fmri,2021.2.3,59.87841090009852,
TMTstop-Control_1_2.xlsx,26:52,17,['2'],2,TMTstop-control_1_2linestimulus14.png,TMTstop-control_1_2greenlinestimulus14.png,TMTstop-control_1_2redlinestimulus14.png,TMT_Control,2,42,0,1,1,1,0,16,16,16,,,,,,,2,0,30.409700599993812,None,"['3', '2']",1,"[0.12825700000394136, 0.21929710000404157]",30.409700599993812,None,,001,2022_May_10_1514,TMT_fmri,2021.2.3,59.87841090009852,
TMTstop-Control_1_2.xlsx,26:52,18,['1'],1,TMTstop-control_1_2linestimulus15.png,TMTstop-control_1_2greenlinestimulus15.png,TMTstop-control_1_2redlinestimulus15.png,TMT_Control,2,43,0,1,1,1,0,17,17,17,,,,,,,1,1,30.698819500001264,None,['1'],1,[0.0473342000041157],30.698819500001264,None,,001,2022_May_10_1514,TMT_fmri,2021.2.3,59.87841090009852,
TMTstop-Control_1_2.xlsx,26:52,19,['2'],2,TMTstop-control_1_2linestimulus16.png,TMTstop-control_1_2greenlinestimulus16.png,TMTstop-control_1_2redlinestimulus16.png,TMT_Control,2,44,0,1,1,1,0,18,18,18,,,,,,,2,0,30.809720999997808,None,"['3', '2']",1,"[0.062249800001154654, 0.09067809999396559]",30.809720999997808,None,,001,2022_May_10_1514,TMT_fmri,2021.2.3,59.87841090009852,
TMTstop-Control_1_2.xlsx,26:52,20,['3'],3,TMTstop-control_1_2linestimulus17.png,TMTstop-control_1_2greenlinestimulus17.png,TMTstop-control_1_2redlinestimulus17.png,TMT_Control,2,45,0,1,1,1,0,19,19,19,,,,,,,2,0,31.000931399990804,None,"['1', '3']",1,"[0.06848899999749847, 0.20705420000012964]",31.000931399990804,None,,001,2022_May_10_1514,TMT_fmri,2021.2.3,59.87841090009852,
TMTstop-Control_1_2.xlsx,26:52,21,['1'],1,TMTstop-control_1_2linestimulus18.png,TMTstop-control_1_2greenlinestimulus18.png,TMTstop-control_1_2redlinestimulus18.png,TMT_Control,2,46,0,1,1,1,0,20,20,20,,,,,,,2,0,31.273361699990346,None,"['2', '1']",1,"[-0.010103400010848418, 0.17806249999557622]",31.273361699990346,None,,001,2022_May_10_1514,TMT_fmri,2021.2.3,59.87841090009852,
TMTstop-Control_1_2.xlsx,26:52,22,['3'],3,TMTstop-control_1_2linestimulus19.png,TMTstop-control_1_2greenlinestimulus19.png,TMTstop-control_1_2redlinestimulus19.png,TMT_Control,2,47,0,1,1,1,0,21,21,21,,,,,,,1,1,31.523755899994285,None,['3'],1,[0.08927310000581201],31.523755899994285,None,,001,2022_May_10_1514,TMT_fmri,2021.2.3,59.87841090009852,
TMTstop-Control_1_2.xlsx,26:52,23,['2'],2,TMTstop-control_1_2linestimulus20.png,TMTstop-control_1_2greenlinestimulus20.png,TMTstop-control_1_2redlinestimulus20.png,TMT_Control,2,48,0,1,1,1,0,22,22,22,,,,,,,1,1,31.673802399993292,None,['2'],1,[-0.021940700011327863],31.673802399993292,None,,001,2022_May_10_1514,TMT_fmri,2021.2.3,59.87841090009852,
TMTstop-Control_1_2.xlsx,26:52,24,['3'],3,TMTstop-control_1_2linestimulus21.png,TMTstop-control_1_2greenlinestimulus21.png,TMTstop-control_1_2redlinestimulus21.png,TMT_Control,2,49,0,1,1,1,0,23,23,23,,,,,,,2,0,31.72393110000121,None,"['1', '3']",1,"[0.10717699999804609, 0.24147810001159087]",31.72393110000121,None,,001,2022_May_10_1514,TMT_fmri,2021.2.3,59.87841090009852,
TMTstop-Control_1_2.xlsx,26:52,25,['1'],1,TMTstop-control_1_2linestimulus22.png,TMTstop-control_1_2greenlinestimulus22.png,TMTstop-control_1_2redlinestimulus22.png,TMT_Control,2,50,0,1,1,1,0,24,24,24,,,,,,,2,0,32.052745900000446,None,"['2', '1']",1,"[-0.04846890000044368, 0.11369209999975283]",32.052745900000446,None,,001,2022_May_10_1514,TMT_fmri,2021.2.3,59.87841090009852,
TMTstop-Control_1_2.xlsx,26:52,None,None,None,TMTstop-control_1_2linestimulus23.png,TMTstop-control_1_2greenlinestimulus23.png,TMTstop-control_1_2redlinestimulus23.png,TMT_Control,2,Feedback_last,0,1,1,1,0,25,25,25,,,,,,,6,0,32.2529552999913,None,"['3', '2', '1', '3', '2', '1']",0,"[0.03331410000100732, 0.07016550000116695, 0.27529749998939224, 0.4220828999968944, 0.46951939999416936, 0.71257419999165]",32.2529552999913,None,,001,2022_May_10_1514,TMT_fmri,2021.2.3,59.87841090009852,
,,,,,,,,,,,,,,,,,,,,,,,,,0,0,,,,,,,,,,,,,,
