NumB_1_1erLetter,corrAns,StimFile,Correct_StimFile,False_StimFile,DurationTrial,NumberLetter,NumB_1_2erLetter,trials.thisRepN,trials.thisTrialN,trials.thisN,trials.thisIndex,trials2.thisRepN,trials2.thisTrialN,trials2.thisN,trials2.thisIndex,trials3.thisRepN,trials3.thisTrialN,trials3.thisN,trials3.thisIndex,trials4.thisRepN,trials4.thisTrialN,trials4.thisN,trials4.thisIndex,Instruct.started,Instruct.stopped,text_2.started,text_2.stopped,Stim.started,Stim.stopped,key_resp_2.keys,key_resp_2.corr,key_resp_2.rt,key_resp_2.started,key_resp_2.stopped,polygon.started,polygon.stopped,text.started,text.stopped,participant,session,date,expName,psychopyVersion,frameRate,
1,1,TMT-B_1_1.png,TMT-B_1_1.png,TMT-B_1_1.png,10,,,0,0,0,0,,,,,,,,,,,,,8.390141999989282,None,8.390141999989282,None,23.677044299984118,None,['1'],0,[0.9622774999879766],23.677044299984118,None,,,,,,001,2021_Oct_29_1219,TMTAB,2021.2.3,138.47768712148115,
A,2,TMT-B_1_1.png,TMT-B_1_1firstgreen.png,TMT-B_1_1firstred.png,10,,,0,1,1,1,,,,,,,,,,,,,,,,,24.729780699999537,None,['1'],0,[1.390081600024132],24.729780699999537,None,,,,,,001,2021_Oct_29_1219,TMTAB,2021.2.3,138.47768712148115,
2,1,TMT-B_1_1linestimulus0.png,TMT-B_1_1greenlinestimulus0.png,TMT-B_1_1redlinestimulus0.png,10,,,0,2,2,2,,,,,,,,,,,,,,,,,26.22457629998098,None,['1'],0,[0.5065084999951068],26.22457629998098,None,,,,,,001,2021_Oct_29_1219,TMTAB,2021.2.3,138.47768712148115,
B,3,TMT-B_1_1linestimulus1.png,TMT-B_1_1greenlinestimulus1.png,TMT-B_1_1redlinestimulus1.png,10,,,0,3,3,3,,,,,,,,,,,,,,,,,26.84237130000838,None,['1'],0,[0.3016205999883823],26.84237130000838,None,,,,,,001,2021_Oct_29_1219,TMTAB,2021.2.3,138.47768712148115,
3,2,TMT-B_1_1linestimulus2.png,TMT-B_1_1greenlinestimulus2.png,TMT-B_1_1redlinestimulus2.png,10,,,0,4,4,4,,,,,,,,,,,,,,,,,27.23066539998399,None,['1'],0,[0.6373067999957129],27.23066539998399,None,,,,,,001,2021_Oct_29_1219,TMTAB,2021.2.3,138.47768712148115,
C,1,TMT-B_1_1linestimulus3.png,TMT-B_1_1greenlinestimulus3.png,TMT-B_1_1redlinestimulus3.png,10,,,0,5,5,5,,,,,,,,,,,,,,,,,27.961150799994357,None,['1'],0,[0.19413270000950433],27.961150799994357,None,,,,,,001,2021_Oct_29_1219,TMTAB,2021.2.3,138.47768712148115,
4,2,TMT-B_1_1linestimulus4.png,TMT-B_1_1greenlinestimulus4.png,TMT-B_1_1redlinestimulus4.png,10,,,0,6,6,6,,,,,,,,,,,,,,,,,28.25054429998272,None,None,0,,28.25054429998272,None,,,,,,001,2021_Oct_29_1219,TMTAB,2021.2.3,138.47768712148115,
,3,TMT-BX_1_1.png,TMT-BX_1_1.png,TMT-BX_1_1.png,,7,,,,,,0,0,0,0,,,,,,,,,,,,,116.79222199998912,None,None,0,,116.79222199998912,None,113.68398269999307,None,,,,001,2021_Oct_29_1219,TMTAB,2021.2.3,138.47768712148115,
,1,TMT-BX_1_1.png,TMT-BX_1_1firstgreen.png,TMT-BX_1_1firstred.png,,G,,,,,,0,1,1,1,,,,,,,,,,,,,116.88949552997947,None,None,0,,116.88949552997947,None,,,,,,001,2021_Oct_29_1219,TMTAB,2021.2.3,138.47768712148115,
,2,TMT-BX_1_1linestimulus0.png,TMT-BX_1_1greenlinestimulus0.png,TMT-BX_1_1redlinestimulus0.png,,8,,,,,,0,2,2,2,,,,,,,,,,,,,116.99757722996874,None,None,0,,116.99757722996874,None,,,,,,001,2021_Oct_29_1219,TMTAB,2021.2.3,138.47768712148115,
,1,TMT-BX_1_1linestimulus1.png,TMT-BX_1_1greenlinestimulus1.png,TMT-BX_1_1redlinestimulus1.png,,H,,,,,,0,3,3,3,,,,,,,,,,,,,117.09485075995907,None,None,0,,117.09485075995907,None,,,,,,001,2021_Oct_29_1219,TMTAB,2021.2.3,138.47768712148115,
,3,TMT-BX_1_1linestimulus2.png,TMT-BX_1_1greenlinestimulus2.png,TMT-BX_1_1redlinestimulus2.png,,9,,,,,,0,4,4,4,,,,,,,,,,,,,117.20293245994834,None,None,0,,117.20293245994834,None,,,,,,001,2021_Oct_29_1219,TMTAB,2021.2.3,138.47768712148115,
,1,TMT-BX_1_1linestimulus3.png,TMT-BX_1_1greenlinestimulus3.png,TMT-BX_1_1redlinestimulus3.png,,I,,,,,,0,5,5,5,,,,,,,,,,,,,117.30020598993869,None,None,0,,117.30020598993869,None,,,,,,001,2021_Oct_29_1219,TMTAB,2021.2.3,138.47768712148115,
,2,TMT-BX_1_1linestimulus4.png,TMT-BX_1_1greenlinestimulus4.png,TMT-BX_1_1redlinestimulus4.png,,10,,,,,,0,6,6,6,,,,,,,,,,,,,117.40828768992796,None,None,0,,117.40828768992796,None,,,,,,001,2021_Oct_29_1219,TMTAB,2021.2.3,138.47768712148115,
,3,TMT-BX_1_1linestimulus5.png,TMT-BX_1_1greenlinestimulus5.png,TMT-BX_1_1redlinestimulus5.png,,J,,,,,,0,7,7,7,,,,,,,,,,,,,117.51636938991723,None,None,0,,117.51636938991723,None,,,,,,001,2021_Oct_29_1219,TMTAB,2021.2.3,138.47768712148115,
,2,TMT-BX_1_1linestimulus6.png,TMT-BX_1_1greenlinestimulus6.png,TMT-BX_1_1redlinestimulus6.png,,11,,,,,,0,8,8,8,,,,,,,,,,,,,117.6244510899065,None,None,0,,117.6244510899065,None,,,,,,001,2021_Oct_29_1219,TMTAB,2021.2.3,138.47768712148115,
,1,TMT-BX_1_1linestimulus7.png,TMT-BX_1_1greenlinestimulus7.png,TMT-BX_1_1redlinestimulus7.png,,K,,,,,,0,9,9,9,,,,,,,,,,,,,117.72172461989685,None,None,0,,117.72172461989685,None,,,,,,001,2021_Oct_29_1219,TMTAB,2021.2.3,138.47768712148115,
,2,TMT-BX_1_1linestimulus8.png,TMT-BX_1_1greenlinestimulus8.png,TMT-BX_1_1redlinestimulus8.png,,12,,,,,,0,10,10,10,,,,,,,,,,,,,117.84061448988504,None,None,0,,117.84061448988504,None,,,,,,001,2021_Oct_29_1219,TMTAB,2021.2.3,138.47768712148115,
,1,TMT-BX_1_1linestimulus9.png,TMT-BX_1_1greenlinestimulus9.png,TMT-BX_1_1redlinestimulus9.png,,L,,,,,,0,11,11,11,,,,,,,,,,,,,117.94869618987431,None,None,0,,117.94869618987431,None,,,,,,001,2021_Oct_29_1219,TMTAB,2021.2.3,138.47768712148115,
,None,None,TMT-BX_1_1greenlinestimulus10.png,TMT-BX_1_1redlinestimulus10.png,,None,,,,,,0,12,12,12,,,,,,,,,,,,,118.0675860598625,None,None,1,,118.0675860598625,None,,,,,,001,2021_Oct_29_1219,TMTAB,2021.2.3,138.47768712148115,
,2,TMT-B_1_2.png,TMT-B_1_2.png,TMT-B_1_2.png,10,,1,,,,,,,,,0,0,0,0,,,,,,,,,121.11588435000158,None,None,0,,121.11588435000158,None,118.08583309999085,None,,,,001,2021_Oct_29_1219,TMTAB,2021.2.3,138.47768712148115,
,3,TMT-B_1_2.png,TMT-B_1_2firstgreen.png,TMT-B_1_2firstred.png,10,,A,,,,,,,,,0,1,1,1,,,,,,,,,121.18073336999514,None,None,0,,121.18073336999514,None,,,,,,001,2021_Oct_29_1219,TMTAB,2021.2.3,138.47768712148115,
,1,TMT-B_1_2linestimulus0.png,TMT-B_1_2greenlinestimulus0.png,TMT-B_1_2redlinestimulus0.png,10,,2,,,,,,,,,0,2,2,2,,,,,,,,,121.25639055998762,None,None,0,,121.25639055998762,None,,,,,,001,2021_Oct_29_1219,TMTAB,2021.2.3,138.47768712148115,
,2,TMT-B_1_2linestimulus1.png,TMT-B_1_2greenlinestimulus1.png,TMT-B_1_2redlinestimulus1.png,10,,B,,,,,,,,,0,3,3,3,,,,,,,,,121.3212395799812,None,None,0,,121.3212395799812,None,,,,,,001,2021_Oct_29_1219,TMTAB,2021.2.3,138.47768712148115,
,3,TMT-B_1_2linestimulus2.png,TMT-B_1_2greenlinestimulus2.png,TMT-B_1_2redlinestimulus2.png,10,,3,,,,,,,,,0,4,4,4,,,,,,,,,121.41851310997153,None,None,0,,121.41851310997153,None,,,,,,001,2021_Oct_29_1219,TMTAB,2021.2.3,138.47768712148115,
,2,TMT-B_1_2linestimulus3.png,TMT-B_1_2greenlinestimulus3.png,TMT-B_1_2redlinestimulus3.png,10,,C,,,,,,,,,0,5,5,5,,,,,,,,,121.50497846996295,None,None,0,,121.50497846996295,None,,,,,,001,2021_Oct_29_1219,TMTAB,2021.2.3,138.47768712148115,
,1,TMT-B_1_2linestimulus4.png,TMT-B_1_2greenlinestimulus4.png,TMT-B_1_2redlinestimulus4.png,10,,4,,,,,,,,,0,6,6,6,,,,,,,,,121.59144382995437,None,None,0,,121.59144382995437,None,,,,,,001,2021_Oct_29_1219,TMTAB,2021.2.3,138.47768712148115,
,3,TMT-B_1_2linestimulus5.png,TMT-B_1_2greenlinestimulus5.png,TMT-B_1_2redlinestimulus5.png,10,,D,,,,,,,,,0,7,7,7,,,,,,,,,121.66710101994686,None,None,0,,121.66710101994686,None,,,,,,001,2021_Oct_29_1219,TMTAB,2021.2.3,138.47768712148115,
,1,TMT-B_1_2linestimulus6.png,TMT-B_1_2greenlinestimulus6.png,TMT-B_1_2redlinestimulus6.png,10,,5,,,,,,,,,0,8,8,8,,,,,,,,,121.74275820993934,None,None,0,,121.74275820993934,None,,,,,,001,2021_Oct_29_1219,TMTAB,2021.2.3,138.47768712148115,
,3,TMT-B_1_2linestimulus7.png,TMT-B_1_2greenlinestimulus7.png,TMT-B_1_2redlinestimulus7.png,10,,E,,,,,,,,,0,9,9,9,,,,,,,,,121.81841539993184,None,None,0,,121.81841539993184,None,,,,,,001,2021_Oct_29_1219,TMTAB,2021.2.3,138.47768712148115,
,1,TMT-B_1_2linestimulus8.png,TMT-B_1_2greenlinestimulus8.png,TMT-B_1_2redlinestimulus8.png,10,,6,,,,,,,,,0,10,10,10,,,,,,,,,121.8832644199254,None,None,0,,121.8832644199254,None,,,,,,001,2021_Oct_29_1219,TMTAB,2021.2.3,138.47768712148115,
,2,TMT-B_1_2linestimulus9.png,TMT-B_1_2greenlinestimulus9.png,TMT-B_1_2redlinestimulus9.png,10,,F,,,,,,,,,0,11,11,11,,,,,,,,,121.94811343991896,None,None,0,,121.94811343991896,None,,,,,,001,2021_Oct_29_1219,TMTAB,2021.2.3,138.47768712148115,
,None,None,TMT-B_1_2greenlinestimulus10.png,TMT-B_1_2redlinestimulus10.png,1,,None,,,,,,,,,0,12,12,12,,,,,,,,,122.01296245991252,None,None,1,,122.01296245991252,None,,,,,,001,2021_Oct_29_1219,TMTAB,2021.2.3,138.47768712148115,
,2,TMT-BX_1_2.png,TMT-BX_1_2.png,TMT-BX_1_2.png,,7,,,,,,,,,,,,,,0,0,0,0,,,,,125.10952265997766,None,None,0,,125.10952265997766,None,122.03689650000888,None,,,,001,2021_Oct_29_1219,TMTAB,2021.2.3,138.47768712148115,
,3,TMT-BX_1_2.png,TMT-BX_1_2firstgreen.png,TMT-BX_1_2firstred.png,,G,,,,,,,,,,,,,,0,1,1,1,,,,,125.16356350997229,None,None,0,,125.16356350997229,None,,,,,,001,2021_Oct_29_1219,TMTAB,2021.2.3,138.47768712148115,
,1,TMT-BX_1_2linestimulus0.png,TMT-BX_1_2greenlinestimulus0.png,TMT-BX_1_2redlinestimulus0.png,,8,,,,,,,,,,,,,,0,2,2,2,,,,,125.22841252996587,None,None,0,,125.22841252996587,None,,,,,,001,2021_Oct_29_1219,TMTAB,2021.2.3,138.47768712148115,
,3,TMT-BX_1_2linestimulus1.png,TMT-BX_1_2greenlinestimulus1.png,TMT-BX_1_2redlinestimulus1.png,,H,,,,,,,,,,,,,,0,3,3,3,,,,,125.29326154995942,None,None,0,,125.29326154995942,None,,,,,,001,2021_Oct_29_1219,TMTAB,2021.2.3,138.47768712148115,
,2,TMT-BX_1_2linestimulus2.png,TMT-BX_1_2greenlinestimulus2.png,TMT-BX_1_2redlinestimulus2.png,,9,,,,,,,,,,,,,,0,4,4,4,,,,,125.35811056995298,None,None,0,,125.35811056995298,None,,,,,,001,2021_Oct_29_1219,TMTAB,2021.2.3,138.47768712148115,
,1,TMT-BX_1_2linestimulus3.png,TMT-BX_1_2greenlinestimulus3.png,TMT-BX_1_2redlinestimulus3.png,,I,,,,,,,,,,,,,,0,5,5,5,,,,,125.42295958994654,None,None,0,,125.42295958994654,None,,,,,,001,2021_Oct_29_1219,TMTAB,2021.2.3,138.47768712148115,
,3,TMT-BX_1_2linestimulus4.png,TMT-BX_1_2greenlinestimulus4.png,TMT-BX_1_2redlinestimulus4.png,,10,,,,,,,,,,,,,,0,6,6,6,,,,,125.4878086099401,None,None,0,,125.4878086099401,None,,,,,,001,2021_Oct_29_1219,TMTAB,2021.2.3,138.47768712148115,
,2,TMT-BX_1_2linestimulus5.png,TMT-BX_1_2greenlinestimulus5.png,TMT-BX_1_2redlinestimulus5.png,,J,,,,,,,,,,,,,,0,7,7,7,,,,,125.5634657999326,None,None,0,,125.5634657999326,None,,,,,,001,2021_Oct_29_1219,TMTAB,2021.2.3,138.47768712148115,
,3,TMT-BX_1_2linestimulus6.png,TMT-BX_1_2greenlinestimulus6.png,TMT-BX_1_2redlinestimulus6.png,,11,,,,,,,,,,,,,,0,8,8,8,,,,,125.62831481992616,None,None,0,,125.62831481992616,None,,,,,,001,2021_Oct_29_1219,TMTAB,2021.2.3,138.47768712148115,
,2,TMT-BX_1_2linestimulus7.png,TMT-BX_1_2greenlinestimulus7.png,TMT-BX_1_2redlinestimulus7.png,,K,,,,,,,,,,,,,,0,9,9,9,,,,,125.70397200991864,None,None,0,,125.70397200991864,None,,,,,,001,2021_Oct_29_1219,TMTAB,2021.2.3,138.47768712148115,
,3,TMT-BX_1_2linestimulus8.png,TMT-BX_1_2greenlinestimulus8.png,TMT-BX_1_2redlinestimulus8.png,,12,,,,,,,,,,,,,,0,10,10,10,,,,,125.77962919991114,None,None,0,,125.77962919991114,None,,,,,,001,2021_Oct_29_1219,TMTAB,2021.2.3,138.47768712148115,
,2,TMT-BX_1_2linestimulus9.png,TMT-BX_1_2greenlinestimulus9.png,TMT-BX_1_2redlinestimulus9.png,,L,,,,,,,,,,,,,,0,11,11,11,,,,,125.85528638990363,None,None,0,,125.85528638990363,None,,,,,,001,2021_Oct_29_1219,TMTAB,2021.2.3,138.47768712148115,
,None,None,TMT-BX_1_2greenlinestimulus10.png,TMT-BX_1_2redlinestimulus10.png,,None,,,,,,,,,,,,,,0,12,12,12,,,,,125.95255991989397,None,None,1,,125.95255991989397,None,,,,,,001,2021_Oct_29_1219,TMTAB,2021.2.3,138.47768712148115,
,,,,,,,,,,,,,,,,,,,,,,,,,,,,,,,,,,,,,125.9718203000084,None,,,,,,,
