Block_file,Condition_rows,NumberLetter,corrAns,Correct,StimFile,Correct_StimFile,False_StimFile,Version,Paper,TrialNumber_Version,Round,Block,Blocks_TMTControl.thisRepN,Blocks_TMTControl.thisTrialN,Blocks_TMTControl.thisN,Blocks_TMTControl.thisIndex,trials_TMTControl.thisRepN,trials_TMTControl.thisTrialN,trials_TMTControl.thisN,trials_TMTControl.thisIndex,Blocks_TMTA.thisRepN,Blocks_TMTA.thisTrialN,Blocks_TMTA.thisN,Blocks_TMTA.thisIndex,trials_TMTA.thisRepN,trials_TMTA.thisTrialN,trials_TMTA.thisN,trials_TMTA.thisIndex,Blocks_TMTB.thisRepN,Blocks_TMTB.thisTrialN,Blocks_TMTB.thisN,Blocks_TMTB.thisIndex,trials_TMTB.thisRepN,trials_TMTB.thisTrialN,trials_TMTB.thisN,trials_TMTB.thisIndex,Blocks_TMTControl_2.thisRepN,Blocks_TMTControl_2.thisTrialN,Blocks_TMTControl_2.thisN,Blocks_TMTControl_2.thisIndex,trials_TMTControl_2.thisRepN,trials_TMTControl_2.thisTrialN,trials_TMTControl_2.thisN,trials_TMTControl_2.thisIndex,Blocks_TMTA_2.thisRepN,Blocks_TMTA_2.thisTrialN,Blocks_TMTA_2.thisN,Blocks_TMTA_2.thisIndex,trials_TMTA_2.thisRepN,trials_TMTA_2.thisTrialN,trials_TMTA_2.thisN,trials_TMTA_2.thisIndex,Blocks_TMTB_2.thisRepN,Blocks_TMTB_2.thisTrialN,Blocks_TMTB_2.thisN,Blocks_TMTB_2.thisIndex,trials_TMTB_2.thisRepN,trials_TMTB_2.thisTrialN,trials_TMTB_2.thisN,trials_TMTB_2.thisIndex,key_resp_7.keys,key_resp_7.rt,key_resp_7.started,key_resp_7.stopped,polygon_2.started,polygon_2.stopped,Attempts,First_attempt,ResponseClock,Stim.started,Stim.stopped,key_resp_2.keys,key_resp_2.corr,key_resp_2.rt,key_resp_2.started,key_resp_2.stopped,participant,session,date,expName,psychopyVersion,frameRate,
,,,,,,,,,,,,,,,,,,,,,,,,,,,,,,,,,,,,,,,,,,,,,,,,,,,,,,,,,,,,,s,0.619541099993512,14.41497410001466,None,,,,,,,,,,,,,,001,2022_May_11_1110,TMT_fmri,2021.2.3,59.94176058854945,
TMTstop-Control_1_1.xlsx,0:26,1,['2'],2,TMTstop-control_1_1.png,TMTstop-control_1_1.png,TMTstop-control_1_1.png,TMT_Control,1,1,1,1,0,0,0,0,0,0,0,0,,,,,,,,,,,,,,,,,,,,,,,,,,,,,,,,,,,,,,,,,,,,,14.41497410001466,None,1,1,0.7799017000070307,15.230692200013436,None,['2'],1,[0.6012902999937069],15.230692200013436,None,,001,2022_May_11_1110,TMT_fmri,2021.2.3,59.94176058854945,
TMTstop-Control_1_1.xlsx,0:26,2,['1'],1,TMTstop-control_1_1.png,TMTstop-control_1_1firstgreen.png,TMTstop-control_1_1firstred.png,TMT_Control,1,2,None,1,0,0,0,0,0,1,1,1,,,,,,,,,,,,,,,,,,,,,,,,,,,,,,,,,,,,,,,,,,,,,,,1,1,0.9039002000063192,15.889233299996704,None,['1'],1,[0.054560599994147196],15.889233299996704,None,,001,2022_May_11_1110,TMT_fmri,2021.2.3,59.94176058854945,
TMTstop-Control_1_1.xlsx,0:26,3,['3'],3,TMTstop-control_1_1linestimulus0.png,TMTstop-control_1_1greenlinestimulus0.png,TMTstop-control_1_1redlinestimulus0.png,TMT_Control,1,3,None,1,0,0,0,0,0,2,2,2,,,,,,,,,,,,,,,,,,,,,,,,,,,,,,,,,,,,,,,,,,,,,,,1,1,0.9789007999934256,16.01374880000367,None,['3'],1,[0.010880299989366904],16.01374880000367,None,,001,2022_May_11_1110,TMT_fmri,2021.2.3,59.94176058854945,
TMTstop-Control_1_1.xlsx,0:26,4,['1'],1,TMTstop-control_1_1linestimulus1.png,TMTstop-control_1_1greenlinestimulus1.png,TMTstop-control_1_1redlinestimulus1.png,TMT_Control,1,4,None,1,0,0,0,0,0,3,3,3,,,,,,,,,,,,,,,,,,,,,,,,,,,,,,,,,,,,,,,,,,,,,,,1,1,1.0949044000008143,16.080590099998517,None,['1'],1,[0.0645451000018511],16.080590099998517,None,,001,2022_May_11_1110,TMT_fmri,2021.2.3,59.94176058854945,
TMTstop-Control_1_1.xlsx,0:26,5,['3'],3,TMTstop-control_1_1linestimulus2.png,TMTstop-control_1_1greenlinestimulus2.png,TMTstop-control_1_1redlinestimulus2.png,TMT_Control,1,5,None,1,0,0,0,0,0,4,4,4,,,,,,,,,,,,,,,,,,,,,,,,,,,,,,,,,,,,,,,,,,,,,,,2,0,1.2459022999973968,16.19707940000808,None,"['2', '3']",1,"[0.03582769999047741, 0.09091949998401105]",16.19707940000808,None,,001,2022_May_11_1110,TMT_fmri,2021.2.3,59.94176058854945,
TMTstop-Control_1_1.xlsx,0:26,6,['1'],1,TMTstop-control_1_1linestimulus3.png,TMTstop-control_1_1greenlinestimulus3.png,TMTstop-control_1_1redlinestimulus3.png,TMT_Control,1,6,None,1,0,0,0,0,0,5,5,5,,,,,,,,,,,,,,,,,,,,,,,,,,,,,,,,,,,,,,,,,,,,,,,1,1,1.412900700001046,16.347421300015412,None,['1'],1,[0.11437210001167841],16.347421300015412,None,,001,2022_May_11_1110,TMT_fmri,2021.2.3,59.94176058854945,
TMTstop-Control_1_1.xlsx,0:26,7,['2'],2,TMTstop-control_1_1linestimulus4.png,TMTstop-control_1_1greenlinestimulus4.png,TMTstop-control_1_1redlinestimulus4.png,TMT_Control,1,7,None,1,0,0,0,0,0,6,6,6,,,,,,,,,,,,,,,,,,,,,,,,,,,,,,,,,,,,,,,,,,,,,,,1,1,1.4629111000103876,16.514338600012707,None,['2'],1,[-0.0066654999973252416],16.514338600012707,None,,001,2022_May_11_1110,TMT_fmri,2021.2.3,59.94176058854945,
TMTstop-Control_1_1.xlsx,0:26,8,['1'],1,TMTstop-control_1_1linestimulus4.png,TMTstop-control_1_1greenlinestimulus5.png,TMTstop-control_1_1redlinestimulus5.png,TMT_Control,1,8,None,1,0,0,0,0,0,7,7,7,,,,,,,,,,,,,,,,,,,,,,,,,,,,,,,,,,,,,,,,,,,,,,,2,0,1.7027729999972507,16.564488900010474,None,"['3', '1']",1,"[0.034107199986465275, 0.1910197999968659]",16.564488900010474,None,,001,2022_May_11_1110,TMT_fmri,2021.2.3,59.94176058854945,
TMTstop-Control_1_1.xlsx,0:26,9,['3'],3,TMTstop-control_1_1linestimulus6.png,TMTstop-control_1_1greenlinestimulus6.png,TMTstop-control_1_1redlinestimulus6.png,TMT_Control,1,9,None,1,0,0,0,0,0,8,8,8,,,,,,,,,,,,,,,,,,,,,,,,,,,,,,,,,,,,,,,,,,,,,,,2,0,1.853874199994607,16.805026300018653,None,"['2', '3']",1,"[-0.004932999989250675, 0.07859730001655407]",16.805026300018653,None,,001,2022_May_11_1110,TMT_fmri,2021.2.3,59.94176058854945,
TMTstop-Control_1_1.xlsx,0:26,10,['2'],2,TMTstop-control_1_1linestimulus7.png,TMTstop-control_1_1greenlinestimulus7.png,TMTstop-control_1_1redlinestimulus7.png,TMT_Control,1,10,None,1,0,0,0,0,0,9,9,9,,,,,,,,,,,,,,,,,,,,,,,,,,,,,,,,,,,,,,,,,,,,,,,4,0,2.659875999990618,16.95480450001196,None,"['1', '3', '1', '2']",1,"[0.09950429998571053, 0.30194209999172017, 0.5310355999972671, 0.7149401000060607]",16.95480450001196,None,,001,2022_May_11_1110,TMT_fmri,2021.2.3,59.94176058854945,
TMTstop-Control_1_1.xlsx,0:26,11,['1'],1,TMTstop-control_1_1linestimulus8.png,TMTstop-control_1_1greenlinestimulus8.png,TMTstop-control_1_1redlinestimulus8.png,TMT_Control,1,11,None,1,0,0,0,0,0,10,10,10,,,,,,,,,,,,,,,,,,,,,,,,,,,,,,,,,,,,,,,,,,,,,,,2,0,2.861901600001147,17.76133090001531,None,"['3', '1']",1,"[-0.018084200011799112, 0.14056430000346154]",17.76133090001531,None,,001,2022_May_11_1110,TMT_fmri,2021.2.3,59.94176058854945,
TMTstop-Control_1_1.xlsx,0:26,12,['2'],2,TMTstop-control_1_1linestimulus9.png,TMTstop-control_1_1greenlinestimulus9.png,TMTstop-control_1_1redlinestimulus9.png,TMT_Control,1,12,None,1,0,0,0,0,0,11,11,11,,,,,,,,,,,,,,,,,,,,,,,,,,,,,,,,,,,,,,,,,,,,,,,1,1,2.912870100000873,17.96423899999354,None,['2'],1,[-0.03893760000937618],17.96423899999354,None,,001,2022_May_11_1110,TMT_fmri,2021.2.3,59.94176058854945,
TMTstop-Control_1_1.xlsx,0:26,13,['3'],3,TMTstop-control_1_1linestimulus10.png,TMTstop-control_1_1greenlinestimulus10.png,TMTstop-control_1_1redlinestimulus10.png,TMT_Control,1,13,None,1,0,0,0,0,0,12,12,12,,,,,,,,,,,,,,,,,,,,,,,,,,,,,,,,,,,,,,,,,,,,,,,1,1,3.047196100000292,18.014418400009163,None,['3'],1,[0.07720480000716634],18.014418400009163,None,,001,2022_May_11_1110,TMT_fmri,2021.2.3,59.94176058854945,
TMTstop-Control_1_1.xlsx,0:26,14,['2'],2,TMTstop-control_1_1linestimulus11.png,TMTstop-control_1_1greenlinestimulus11.png,TMTstop-control_1_1redlinestimulus11.png,TMT_Control,1,14,None,1,0,0,0,0,0,13,13,13,,,,,,,,,,,,,,,,,,,,,,,,,,,,,,,,,,,,,,,,,,,,,,,2,0,3.2698749999981374,18.148313900019275,None,"['1', '2']",1,"[0.065401900006691, 0.12816590000875294]",18.148313900019275,None,,001,2022_May_11_1110,TMT_fmri,2021.2.3,59.94176058854945,
TMTstop-Control_1_1.xlsx,0:26,15,['3'],3,TMTstop-control_1_1linestimulus12.png,TMTstop-control_1_1greenlinestimulus12.png,TMTstop-control_1_1redlinestimulus12.png,TMT_Control,1,15,None,1,0,0,0,0,0,14,14,14,,,,,,,,,,,,,,,,,,,,,,,,,,,,,,,,,,,,,,,,,,,,,,,1,1,3.326897999999346,18.378097100008745,None,['3'],1,[-0.011791600001743063],18.378097100008745,None,,001,2022_May_11_1110,TMT_fmri,2021.2.3,59.94176058854945,
TMTstop-Control_1_1.xlsx,0:26,16,['2'],2,TMTstop-control_1_1linestimulus13.png,TMTstop-control_1_1greenlinestimulus13.png,TMTstop-control_1_1redlinestimulus13.png,TMT_Control,1,16,None,1,0,0,0,0,0,15,15,15,,,,,,,,,,,,,,,,,,,,,,,,,,,,,,,,,,,,,,,,,,,,,,,4,0,4.6609063000069,18.4283146999951,None,"['1', '3', '1', '2']",1,"[0.12166030000662431, 0.38260230000014417, 1.2577133000013418, 1.2752940000209492]",18.4283146999951,None,,001,2022_May_11_1110,TMT_fmri,2021.2.3,59.94176058854945,
TMTstop-Control_1_1.xlsx,0:26,17,['3'],3,TMTstop-control_1_1linestimulus14.png,TMTstop-control_1_1greenlinestimulus14.png,TMTstop-control_1_1redlinestimulus14.png,TMT_Control,1,17,None,1,0,0,0,0,0,16,16,16,,,,,,,,,,,,,,,,,,,,,,,,,,,,,,,,,,,,,,,,,,,,,,,1,1,4.812900599994464,19.763278800004628,None,['3'],1,[0.08954119999543764],19.763278800004628,None,,001,2022_May_11_1110,TMT_fmri,2021.2.3,59.94176058854945,
TMTstop-Control_1_1.xlsx,0:26,18,['2'],2,TMTstop-control_1_1linestimulus15.png,TMTstop-control_1_1greenlinestimulus15.png,TMTstop-control_1_1redlinestimulus15.png,TMT_Control,1,18,None,1,0,0,0,0,0,17,17,17,,,,,,,,,,,,,,,,,,,,,,,,,,,,,,,,,,,,,,,,,,,,,,,2,0,5.117877399985446,19.913409600005252,None,"['1', '2']",1,"[0.092865399987204, 0.230981900007464]",19.913409600005252,None,,001,2022_May_11_1110,TMT_fmri,2021.2.3,59.94176058854945,
TMTstop-Control_1_1.xlsx,0:26,19,['1'],1,TMTstop-control_1_1linestimulus16.png,TMTstop-control_1_1greenlinestimulus16.png,TMTstop-control_1_1redlinestimulus16.png,TMT_Control,1,19,None,1,0,0,0,0,0,18,18,18,,,,,,,,,,,,,,,,,,,,,,,,,,,,,,,,,,,,,,,,,,,,,,,2,0,5.397905599995283,20.22665739999502,None,"['3', '1']",1,"[0.05610210000304505, 0.21199420001357794]",20.22665739999502,None,,001,2022_May_11_1110,TMT_fmri,2021.2.3,59.94176058854945,
TMTstop-Control_1_1.xlsx,0:26,20,['3'],3,TMTstop-control_1_1linestimulus17.png,TMTstop-control_1_1greenlinestimulus17.png,TMTstop-control_1_1redlinestimulus17.png,TMT_Control,1,20,None,1,0,0,0,0,0,19,19,19,,,,,,,,,,,,,,,,,,,,,,,,,,,,,,,,,,,,,,,,,,,,,,,2,0,5.597899899992626,20.498870500014164,None,"['2', '3']",1,"[0.0867294000054244, 0.12025659999926575]",20.498870500014164,None,,001,2022_May_11_1110,TMT_fmri,2021.2.3,59.94176058854945,
TMTstop-Control_1_1.xlsx,0:26,21,['1'],1,TMTstop-control_1_1linestimulus18.png,TMTstop-control_1_1greenlinestimulus18.png,TMTstop-control_1_1redlinestimulus18.png,TMT_Control,1,21,None,1,0,0,0,0,0,20,20,20,,,,,,,,,,,,,,,,,,,,,,,,,,,,,,,,,,,,,,,,,,,,,,,1,1,5.714912399998866,20.698768600006588,None,['1'],1,[0.05898440000601113],20.698768600006588,None,,001,2022_May_11_1110,TMT_fmri,2021.2.3,59.94176058854945,
TMTstop-Control_1_1.xlsx,0:26,22,['2'],2,TMTstop-control_1_1linestimulus19.png,TMTstop-control_1_1greenlinestimulus19.png,TMTstop-control_1_1redlinestimulus19.png,TMT_Control,1,22,None,1,0,0,0,0,0,21,21,21,,,,,,,,,,,,,,,,,,,,,,,,,,,,,,,,,,,,,,,,,,,,,,,1,1,5.86490019998746,20.849483900004998,None,['2'],1,[0.05969980001100339],20.849483900004998,None,,001,2022_May_11_1110,TMT_fmri,2021.2.3,59.94176058854945,
TMTstop-Control_1_1.xlsx,0:26,23,['3'],3,TMTstop-control_1_1linestimulus20.png,TMTstop-control_1_1greenlinestimulus20.png,TMTstop-control_1_1redlinestimulus20.png,TMT_Control,1,23,None,1,0,0,0,0,0,22,22,22,,,,,,,,,,,,,,,,,,,,,,,,,,,,,,,,,,,,,,,,,,,,,,,1,1,5.914734499994665,20.9663203000091,None,['3'],1,[-0.02990180000779219],20.9663203000091,None,,001,2022_May_11_1110,TMT_fmri,2021.2.3,59.94176058854945,
TMTstop-Control_1_1.xlsx,0:26,24,['2'],2,TMTstop-control_1_1linestimulus21.png,TMTstop-control_1_1greenlinestimulus21.png,TMTstop-control_1_1redlinestimulus21.png,TMT_Control,1,24,None,1,0,0,0,0,0,23,23,23,,,,,,,,,,,,,,,,,,,,,,,,,,,,,,,,,,,,,,,,,,,,,,,2,0,6.162875999987591,21.022138000000268,None,"['1', '2']",1,"[0.07948949999990873, 0.1608921000151895]",21.022138000000268,None,,001,2022_May_11_1110,TMT_fmri,2021.2.3,59.94176058854945,
TMTstop-Control_1_1.xlsx,0:26,25,['1'],1,TMTstop-control_1_1linestimulus22.png,TMTstop-control_1_1greenlinestimulus22.png,TMTstop-control_1_1redlinestimulus22.png,TMT_Control,1,25,None,1,0,0,0,0,0,24,24,24,,,,,,,,,,,,,,,,,,,,,,,,,,,,,,,,,,,,,,,,,,,,,,,2,0,6.36389949999284,21.264916999993147,None,"['3', '1']",1,"[0.021974100003717467, 0.14041700001689605]",21.264916999993147,None,,001,2022_May_11_1110,TMT_fmri,2021.2.3,59.94176058854945,
TMTstop-Control_1_1.xlsx,0:26,None,None,None,TMTstop-control_1_1linestimulus23.png,TMTstop-control_1_1greenlinestimulus23.png,TMTstop-control_1_1redlinestimulus23.png,TMT_Control,1,Feedback_last,None,1,0,0,0,0,0,25,25,25,,,,,,,,,,,,,,,,,,,,,,,,,,,,,,,,,,,,,,,,,,,,,,,4,0,,21.465189600014128,None,"['2', '3', '1', '2']",0,"[0.004547299991827458, 0.11409889999777079, 0.22929170000134036, 0.3169255999964662]",21.465189600014128,None,,001,2022_May_11_1110,TMT_fmri,2021.2.3,59.94176058854945,
TMTstop-Control_1_2.xlsx,26:52,1,['2'],2,TMTstop-control_1_2.png,TMTstop-control_1_2.png,TMTstop-control_1_2.png,TMT_Control,2,26,None,1,0,1,1,1,0,0,0,0,,,,,,,,,,,,,,,,,,,,,,,,,,,,,,,,,,,,,,,,,,,,,,,1,1,11.092846699990332,25.61142380000092,None,['2'],1,[0.5201643999898806],25.61142380000092,None,,001,2022_May_11_1110,TMT_fmri,2021.2.3,59.94176058854945,
TMTstop-Control_1_2.xlsx,26:52,2,['3'],3,TMTstop-control_1_2.png,TMTstop-control_1_2firstgreen.png,TMTstop-control_1_2firstred.png,TMT_Control,2,27,None,1,0,1,1,1,0,1,1,1,,,,,,,,,,,,,,,,,,,,,,,,,,,,,,,,,,,,,,,,,,,,,,,1,1,11.151877299998887,26.203197099996032,None,['3'],1,[-0.016223999991780147],26.203197099996032,None,,001,2022_May_11_1110,TMT_fmri,2021.2.3,59.94176058854945,
TMTstop-Control_1_2.xlsx,26:52,3,['2'],2,TMTstop-control_1_2linestimulus0.png,TMTstop-control_1_2greenlinestimulus0.png,TMTstop-control_1_2redlinestimulus0.png,TMT_Control,2,28,None,1,0,1,1,1,0,2,2,2,,,,,,,,,,,,,,,,,,,,,,,,,,,,,,,,,,,,,,,,,,,,,,,2,0,11.401875699986704,26.252788800018607,None,"['1', '2']",1,"[0.09942579999915324, 0.17262139997910708]",26.252788800018607,None,,001,2022_May_11_1110,TMT_fmri,2021.2.3,59.94176058854945,
TMTstop-Control_1_2.xlsx,26:52,4,['3'],3,TMTstop-control_1_2linestimulus1.png,TMTstop-control_1_2greenlinestimulus1.png,TMTstop-control_1_2redlinestimulus1.png,TMT_Control,2,29,None,1,0,1,1,1,0,3,3,3,,,,,,,,,,,,,,,,,,,,,,,,,,,,,,,,,,,,,,,,,,,,,,,1,1,11.493898899992928,26.50896810000995,None,['3'],1,[0.016077999986009672],26.50896810000995,None,,001,2022_May_11_1110,TMT_fmri,2021.2.3,59.94176058854945,
TMTstop-Control_1_2.xlsx,26:52,5,['2'],2,TMTstop-control_1_2linestimulus2.png,TMTstop-control_1_2greenlinestimulus2.png,TMTstop-control_1_2redlinestimulus2.png,TMT_Control,2,30,None,1,0,1,1,1,0,4,4,4,,,,,,,,,,,,,,,,,,,,,,,,,,,,,,,,,,,,,,,,,,,,,,,2,0,11.731744899996556,26.599650699994527,None,"['1', '2']",1,"[0.12056510002003051, 0.15263900000718422]",26.599650699994527,None,,001,2022_May_11_1110,TMT_fmri,2021.2.3,59.94176058854945,
TMTstop-Control_1_2.xlsx,26:52,6,['3'],3,TMTstop-control_1_2linestimulus3.png,TMTstop-control_1_2greenlinestimulus3.png,TMTstop-control_1_2redlinestimulus3.png,TMT_Control,2,31,None,1,0,1,1,1,0,5,5,5,,,,,,,,,,,,,,,,,,,,,,,,,,,,,,,,,,,,,,,,,,,,,,,4,0,12.546793199988315,26.83266700000968,None,"['2', '1', '2', '3']",1,"[-0.009746399999130517, 0.6171567999990657, 0.6460670999949798, 0.7551205999916419]",26.83266700000968,None,,001,2022_May_11_1110,TMT_fmri,2021.2.3,59.94176058854945,
TMTstop-Control_1_2.xlsx,26:52,7,['2'],2,TMTstop-control_1_2linestimulus4.png,TMTstop-control_1_2greenlinestimulus4.png,TMTstop-control_1_2redlinestimulus4.png,TMT_Control,2,32,None,1,0,1,1,1,0,6,6,6,,,,,,,,,,,,,,,,,,,,,,,,,,,,,,,,,,,,,,,,,,,,,,,2,0,12.784895499993581,27.648749100015266,None,"['1', '2']",1,"[0.0928062999737449, 0.17952509998576716]",27.648749100015266,None,,001,2022_May_11_1110,TMT_fmri,2021.2.3,59.94176058854945,
TMTstop-Control_1_2.xlsx,26:52,8,['1'],1,TMTstop-control_1_2linestimulus4.png,TMTstop-control_1_2greenlinestimulus5.png,TMTstop-control_1_2redlinestimulus5.png,TMT_Control,2,33,None,1,0,1,1,1,0,7,7,7,,,,,,,,,,,,,,,,,,,,,,,,,,,,,,,,,,,,,,,,,,,,,,,2,0,13.084877399989637,27.893686600000365,None,"['3', '1']",1,"[0.05657749998499639, 0.2135370000032708]",27.893686600000365,None,,001,2022_May_11_1110,TMT_fmri,2021.2.3,59.94176058854945,
TMTstop-Control_1_2.xlsx,26:52,9,['3'],3,TMTstop-control_1_2linestimulus6.png,TMTstop-control_1_2greenlinestimulus6.png,TMTstop-control_1_2redlinestimulus6.png,TMT_Control,2,34,None,1,0,1,1,1,0,8,8,8,,,,,,,,,,,,,,,,,,,,,,,,,,,,,,,,,,,,,,,,,,,,,,,2,0,13.234900399984326,28.186868699995102,None,"['2', '3']",1,"[-0.03716609999537468, 0.0781122000189498]",28.186868699995102,None,,001,2022_May_11_1110,TMT_fmri,2021.2.3,59.94176058854945,
TMTstop-Control_1_2.xlsx,26:52,10,['2'],2,TMTstop-control_1_2linestimulus7.png,TMTstop-control_1_2greenlinestimulus7.png,TMTstop-control_1_2redlinestimulus7.png,TMT_Control,2,35,None,1,0,1,1,1,0,9,9,9,,,,,,,,,,,,,,,,,,,,,,,,,,,,,,,,,,,,,,,,,,,,,,,2,0,13.43583909998415,28.337065800005803,None,"['1', '2']",1,"[0.08349469999666326, 0.12237709999317303]",28.337065800005803,None,,001,2022_May_11_1110,TMT_fmri,2021.2.3,59.94176058854945,
TMTstop-Control_1_2.xlsx,26:52,11,['3'],3,TMTstop-control_1_2linestimulus8.png,TMTstop-control_1_2greenlinestimulus8.png,TMTstop-control_1_2redlinestimulus8.png,TMT_Control,2,36,None,1,0,1,1,1,0,10,10,10,,,,,,,,,,,,,,,,,,,,,,,,,,,,,,,,,,,,,,,,,,,,,,,1,1,13.542034799989779,28.54354300000705,None,['3'],1,[0.04533960000844672],28.54354300000705,None,,001,2022_May_11_1110,TMT_fmri,2021.2.3,59.94176058854945,
TMTstop-Control_1_2.xlsx,26:52,12,['2'],2,TMTstop-control_1_2linestimulus9.png,TMTstop-control_1_2greenlinestimulus9.png,TMTstop-control_1_2redlinestimulus9.png,TMT_Control,2,37,None,1,0,1,1,1,0,11,11,11,,,,,,,,,,,,,,,,,,,,,,,,,,,,,,,,,,,,,,,,,,,,,,,2,0,14.581910100008827,28.643595500005176,None,"['1', '2']",1,"[0.9250095000024885, 0.9686387999972794]",28.643595500005176,None,,001,2022_May_11_1110,TMT_fmri,2021.2.3,59.94176058854945,
TMTstop-Control_1_2.xlsx,26:52,13,['3'],3,TMTstop-control_1_2linestimulus10.png,TMTstop-control_1_2greenlinestimulus10.png,TMTstop-control_1_2redlinestimulus10.png,TMT_Control,2,38,None,1,0,1,1,1,0,12,12,12,,,,,,,,,,,,,,,,,,,,,,,,,,,,,,,,,,,,,,,,,,,,,,,1,1,14.665902899985667,29.684106200002134,None,['3'],1,[0.006598200008738786],29.684106200002134,None,,001,2022_May_11_1110,TMT_fmri,2021.2.3,59.94176058854945,
TMTstop-Control_1_2.xlsx,26:52,14,['2'],2,TMTstop-control_1_2linestimulus11.png,TMTstop-control_1_2greenlinestimulus11.png,TMTstop-control_1_2redlinestimulus11.png,TMT_Control,2,39,None,1,0,1,1,1,0,13,13,13,,,,,,,,,,,,,,,,,,,,,,,,,,,,,,,,,,,,,,,,,,,,,,,2,0,14.88279249999323,29.767548100004205,None,"['1', '2']",1,"[0.062247499998193234, 0.15252459998009726]",29.767548100004205,None,,001,2022_May_11_1110,TMT_fmri,2021.2.3,59.94176058854945,
TMTstop-Control_1_2.xlsx,26:52,15,['3'],3,TMTstop-control_1_2linestimulus12.png,TMTstop-control_1_2greenlinestimulus12.png,TMTstop-control_1_2redlinestimulus12.png,TMT_Control,2,40,None,1,0,1,1,1,0,14,14,14,,,,,,,,,,,,,,,,,,,,,,,,,,,,,,,,,,,,,,,,,,,,,,,1,1,14.939761999994516,29.99133950000396,None,['3'],1,[0.001351100014289841],29.99133950000396,None,,001,2022_May_11_1110,TMT_fmri,2021.2.3,59.94176058854945,
TMTstop-Control_1_2.xlsx,26:52,16,['1'],1,TMTstop-control_1_2linestimulus13.png,TMTstop-control_1_2greenlinestimulus13.png,TMTstop-control_1_2redlinestimulus13.png,TMT_Control,2,41,None,1,0,1,1,1,0,15,15,15,,,,,,,,,,,,,,,,,,,,,,,,,,,,,,,,,,,,,,,,,,,,,,,1,1,15.12289649999002,30.041411600017454,None,['1'],1,[0.12150589999509975],30.041411600017454,None,,001,2022_May_11_1110,TMT_fmri,2021.2.3,59.94176058854945,
TMTstop-Control_1_2.xlsx,26:52,17,['2'],2,TMTstop-control_1_2linestimulus14.png,TMTstop-control_1_2greenlinestimulus14.png,TMTstop-control_1_2redlinestimulus14.png,TMT_Control,2,42,None,1,0,1,1,1,0,16,16,16,,,,,,,,,,,,,,,,,,,,,,,,,,,,,,,,,,,,,,,,,,,,,,,1,1,15.206895599985728,30.2244989000028,None,['2'],1,[0.02813109999988228],30.2244989000028,None,,001,2022_May_11_1110,TMT_fmri,2021.2.3,59.94176058854945,
TMTstop-Control_1_2.xlsx,26:52,18,['1'],1,TMTstop-control_1_2linestimulus15.png,TMTstop-control_1_2greenlinestimulus15.png,TMTstop-control_1_2redlinestimulus15.png,TMT_Control,2,43,None,1,0,1,1,1,0,17,17,17,,,,,,,,,,,,,,,,,,,,,,,,,,,,,,,,,,,,,,,,,,,,,,,3,0,15.553875599987805,30.308305100013968,None,"['3', '2', '1']",1,"[0.019405700004426762, 0.2649517999961972, 0.26949590002186596]",30.308305100013968,None,,001,2022_May_11_1110,TMT_fmri,2021.2.3,59.94176058854945,
TMTstop-Control_1_2.xlsx,26:52,19,['2'],2,TMTstop-control_1_2linestimulus16.png,TMTstop-control_1_2greenlinestimulus16.png,TMTstop-control_1_2redlinestimulus16.png,TMT_Control,2,44,None,1,0,1,1,1,0,18,18,18,,,,,,,,,,,,,,,,,,,,,,,,,,,,,,,,,,,,,,,,,,,,,,,3,0,15.939878200006206,30.6549098000105,None,"['3', '1', '2']",1,"[0.07852129999082536, 0.22981869999784976, 0.3090309999824967]",30.6549098000105,None,,001,2022_May_11_1110,TMT_fmri,2021.2.3,59.94176058854945,
TMTstop-Control_1_2.xlsx,26:52,20,['3'],3,TMTstop-control_1_2linestimulus17.png,TMTstop-control_1_2greenlinestimulus17.png,TMTstop-control_1_2redlinestimulus17.png,TMT_Control,2,45,None,1,0,1,1,1,0,19,19,19,,,,,,,,,,,,,,,,,,,,,,,,,,,,,,,,,,,,,,,,,,,,,,,1,1,16.006787699996494,31.041737399995327,None,['3'],1,[0.009102300013182685],31.041737399995327,None,,001,2022_May_11_1110,TMT_fmri,2021.2.3,59.94176058854945,
TMTstop-Control_1_2.xlsx,26:52,21,['1'],1,TMTstop-control_1_2linestimulus18.png,TMTstop-control_1_2greenlinestimulus18.png,TMTstop-control_1_2redlinestimulus18.png,TMT_Control,2,46,None,1,0,1,1,1,0,20,20,20,,,,,,,,,,,,,,,,,,,,,,,,,,,,,,,,,,,,,,,,,,,,,,,1,1,16.13077129999874,31.11588960001245,None,['1'],1,[0.05868759998702444],31.11588960001245,None,,001,2022_May_11_1110,TMT_fmri,2021.2.3,59.94176058854945,
TMTstop-Control_1_2.xlsx,26:52,22,['3'],3,TMTstop-control_1_2linestimulus19.png,TMTstop-control_1_2greenlinestimulus19.png,TMTstop-control_1_2redlinestimulus19.png,TMT_Control,2,47,None,1,0,1,1,1,0,21,21,21,,,,,,,,,,,,,,,,,,,,,,,,,,,,,,,,,,,,,,,,,,,,,,,2,0,16.32190619999892,31.232527300016955,None,"['2', '3']",1,"[0.006974199990509078, 0.11674009999842383]",31.232527300016955,None,,001,2022_May_11_1110,TMT_fmri,2021.2.3,59.94176058854945,
TMTstop-Control_1_2.xlsx,26:52,23,['2'],2,TMTstop-control_1_2linestimulus20.png,TMTstop-control_1_2greenlinestimulus20.png,TMTstop-control_1_2redlinestimulus20.png,TMT_Control,2,48,None,1,0,1,1,1,0,22,22,22,,,,,,,,,,,,,,,,,,,,,,,,,,,,,,,,,,,,,,,,,,,,,,,2,0,16.62982169998577,31.423667099996237,None,"['1', '2']",1,"[0.09959510000771843, 0.23484769999049604]",31.423667099996237,None,,001,2022_May_11_1110,TMT_fmri,2021.2.3,59.94176058854945,
TMTstop-Control_1_2.xlsx,26:52,24,['3'],3,TMTstop-control_1_2linestimulus21.png,TMTstop-control_1_2greenlinestimulus21.png,TMTstop-control_1_2redlinestimulus21.png,TMT_Control,2,49,None,1,0,1,1,1,0,23,23,23,,,,,,,,,,,,,,,,,,,,,,,,,,,,,,,,,,,,,,,,,,,,,,,1,1,16.695736800000304,31.73048070000368,None,['3'],1,[0.01831280000624247],31.73048070000368,None,,001,2022_May_11_1110,TMT_fmri,2021.2.3,59.94176058854945,
TMTstop-Control_1_2.xlsx,26:52,25,['1'],1,TMTstop-control_1_2linestimulus22.png,TMTstop-control_1_2greenlinestimulus22.png,TMTstop-control_1_2redlinestimulus22.png,TMT_Control,2,50,None,1,0,1,1,1,0,24,24,24,,,,,,,,,,,,,,,,,,,,,,,,,,,,,,,,,,,,,,,,,,,,,,,2,0,16.900793300010264,31.80273210001178,None,"['2', '1']",1,"[-0.03568030000315048, 0.11495449999347329]",31.80273210001178,None,,001,2022_May_11_1110,TMT_fmri,2021.2.3,59.94176058854945,
TMTstop-Control_1_2.xlsx,26:52,None,None,None,TMTstop-control_1_2linestimulus23.png,TMTstop-control_1_2greenlinestimulus23.png,TMTstop-control_1_2redlinestimulus23.png,TMT_Control,2,Feedback_last,None,1,0,1,1,1,0,25,25,25,,,,,,,,,,,,,,,,,,,,,,,,,,,,,,,,,,,,,,,,,,,,,,,3,0,,32.00285230000736,None,"['2', '3', '1']",0,"[0.002287500014062971, 0.09449310001218691, 0.20518340001581237]",32.00285230000736,None,,001,2022_May_11_1110,TMT_fmri,2021.2.3,59.94176058854945,
TMTstop-Control_1_3.xlsx,52:78,1,['2'],2,TMTstop-control_1_3.png,TMTstop-control_1_3.png,TMTstop-control_1_3.png,TMT_Control,3,51,None,1,0,2,2,2,0,0,0,0,,,,,,,,,,,,,,,,,,,,,,,,,,,,,,,,,,,,,,,,,,,,,,,2,0,21.65843899999163,36.137812300003134,None,"['1', '2']",1,"[0.45396939999773167, 0.5579615000169724]",36.137812300003134,None,,001,2022_May_11_1110,TMT_fmri,2021.2.3,59.94176058854945,
TMTstop-Control_1_3.xlsx,52:78,2,['1'],1,TMTstop-control_1_3.png,TMTstop-control_1_3firstgreen.png,TMTstop-control_1_3firstred.png,TMT_Control,3,52,None,1,0,2,2,2,0,1,1,1,,,,,,,,,,,,,,,,,,,,,,,,,,,,,,,,,,,,,,,,,,,,,,,2,0,21.896326099988073,36.7599840000039,None,"['3', '1']",1,"[0.005429199984064326, 0.15669279999565333]",36.7599840000039,None,,001,2022_May_11_1110,TMT_fmri,2021.2.3,59.94176058854945,
TMTstop-Control_1_3.xlsx,52:78,3,['2'],2,TMTstop-control_1_3linestimulus0.png,TMTstop-control_1_3greenlinestimulus0.png,TMTstop-control_1_3redlinestimulus0.png,TMT_Control,3,53,None,1,0,2,2,2,0,2,2,2,,,,,,,,,,,,,,,,,,,,,,,,,,,,,,,,,,,,,,,,,,,,,,,1,1,21.947448599996278,36.99863230000483,None,['2'],1,[-0.03293570000096224],36.99863230000483,None,,001,2022_May_11_1110,TMT_fmri,2021.2.3,59.94176058854945,
TMTstop-Control_1_3.xlsx,52:78,4,['1'],1,TMTstop-control_1_3linestimulus1.png,TMTstop-control_1_3greenlinestimulus1.png,TMTstop-control_1_3redlinestimulus1.png,TMT_Control,3,54,None,1,0,2,2,2,0,3,3,3,,,,,,,,,,,,,,,,,,,,,,,,,,,,,,,,,,,,,,,,,,,,,,,2,0,22.184473300003447,37.04806960001588,None,"['3', '1']",1,"[0.01717330000246875, 0.1708744000061415]",37.04806960001588,None,,001,2022_May_11_1110,TMT_fmri,2021.2.3,59.94176058854945,
TMTstop-Control_1_3.xlsx,52:78,5,['3'],3,TMTstop-control_1_3linestimulus2.png,TMTstop-control_1_3greenlinestimulus2.png,TMTstop-control_1_3redlinestimulus2.png,TMT_Control,3,55,None,1,0,2,2,2,0,4,4,4,,,,,,,,,,,,,,,,,,,,,,,,,,,,,,,,,,,,,,,,,,,,,,,2,0,22.37247329999809,37.28610359999584,None,"['2', '3']",1,"[0.015376900002593175, 0.09370450000278652]",37.28610359999584,None,,001,2022_May_11_1110,TMT_fmri,2021.2.3,59.94176058854945,
TMTstop-Control_1_3.xlsx,52:78,6,['1'],1,TMTstop-control_1_3linestimulus3.png,TMTstop-control_1_3greenlinestimulus3.png,TMTstop-control_1_3redlinestimulus3.png,TMT_Control,3,56,None,1,0,2,2,2,0,5,5,5,,,,,,,,,,,,,,,,,,,,,,,,,,,,,,,,,,,,,,,,,,,,,,,1,1,22.47247039998183,37.47395909999614,None,['1'],1,[0.038867499999469146],37.47395909999614,None,,001,2022_May_11_1110,TMT_fmri,2021.2.3,59.94176058854945,
TMTstop-Control_1_3.xlsx,52:78,7,['2'],2,TMTstop-control_1_3linestimulus4.png,TMTstop-control_1_3greenlinestimulus4.png,TMTstop-control_1_3redlinestimulus4.png,TMT_Control,3,57,None,1,0,2,2,2,0,6,6,6,,,,,,,,,,,,,,,,,,,,,,,,,,,,,,,,,,,,,,,,,,,,,,,1,1,22.546468799992,37.580985700013116,None,['2'],1,[0.005594199988991022],37.580985700013116,None,,001,2022_May_11_1110,TMT_fmri,2021.2.3,59.94176058854945,
TMTstop-Control_1_3.xlsx,52:78,8,['3'],3,TMTstop-control_1_3linestimulus4.png,TMTstop-control_1_3greenlinestimulus5.png,TMTstop-control_1_3redlinestimulus5.png,TMT_Control,3,58,None,1,0,2,2,2,0,7,7,7,,,,,,,,,,,,,,,,,,,,,,,,,,,,,,,,,,,,,,,,,,,,,,,1,1,22.63847400000668,37.653930300002685,None,['3'],1,[0.01592010000604205],37.653930300002685,None,,001,2022_May_11_1110,TMT_fmri,2021.2.3,59.94176058854945,
TMTstop-Control_1_3.xlsx,52:78,9,['1'],1,TMTstop-control_1_3linestimulus6.png,TMTstop-control_1_3greenlinestimulus6.png,TMTstop-control_1_3redlinestimulus6.png,TMT_Control,3,59,None,1,0,2,2,2,0,8,8,8,,,,,,,,,,,,,,,,,,,,,,,,,,,,,,,,,,,,,,,,,,,,,,,1,1,22.809365099994466,37.74407810001867,None,['1'],1,[0.10474399998201989],37.74407810001867,None,,001,2022_May_11_1110,TMT_fmri,2021.2.3,59.94176058854945,
TMTstop-Control_1_3.xlsx,52:78,10,['2'],2,TMTstop-control_1_3linestimulus7.png,TMTstop-control_1_3greenlinestimulus7.png,TMTstop-control_1_3redlinestimulus7.png,TMT_Control,3,60,None,1,0,2,2,2,0,9,9,9,,,,,,,,,,,,,,,,,,,,,,,,,,,,,,,,,,,,,,,,,,,,,,,1,1,22.90907550000702,37.91049939999357,None,['2'],1,[0.03987909998977557],37.91049939999357,None,,001,2022_May_11_1110,TMT_fmri,2021.2.3,59.94176058854945,
TMTstop-Control_1_3.xlsx,52:78,11,['1'],1,TMTstop-control_1_3linestimulus8.png,TMTstop-control_1_3greenlinestimulus8.png,TMTstop-control_1_3redlinestimulus8.png,TMT_Control,3,61,None,1,0,2,2,2,0,10,10,10,,,,,,,,,,,,,,,,,,,,,,,,,,,,,,,,,,,,,,,,,,,,,,,2,0,23.20625670001027,38.010640599997714,None,"['3', '1']",1,"[0.024980399990454316, 0.23336620000191033]",38.010640599997714,None,,001,2022_May_11_1110,TMT_fmri,2021.2.3,59.94176058854945,
TMTstop-Control_1_3.xlsx,52:78,12,['2'],2,TMTstop-control_1_3linestimulus9.png,TMTstop-control_1_3greenlinestimulus9.png,TMTstop-control_1_3redlinestimulus9.png,TMT_Control,3,62,None,1,0,2,2,2,0,11,11,11,,,,,,,,,,,,,,,,,,,,,,,,,,,,,,,,,,,,,,,,,,,,,,,1,1,23.306364699994447,38.30738630000269,None,['2'],1,[0.04011389997322112],38.30738630000269,None,,001,2022_May_11_1110,TMT_fmri,2021.2.3,59.94176058854945,
TMTstop-Control_1_3.xlsx,52:78,13,['3'],3,TMTstop-control_1_3linestimulus10.png,TMTstop-control_1_3greenlinestimulus10.png,TMTstop-control_1_3redlinestimulus10.png,TMT_Control,3,63,None,1,0,2,2,2,0,12,12,12,,,,,,,,,,,,,,,,,,,,,,,,,,,,,,,,,,,,,,,,,,,,,,,1,1,23.406467499997234,38.4075439000153,None,['3'],1,[0.027509300009114668],38.4075439000153,None,,001,2022_May_11_1110,TMT_fmri,2021.2.3,59.94176058854945,
TMTstop-Control_1_3.xlsx,52:78,14,['2'],2,TMTstop-control_1_3linestimulus11.png,TMTstop-control_1_3greenlinestimulus11.png,TMTstop-control_1_3redlinestimulus11.png,TMT_Control,3,64,None,1,0,2,2,2,0,13,13,13,,,,,,,,,,,,,,,,,,,,,,,,,,,,,,,,,,,,,,,,,,,,,,,2,0,23.59246990000247,38.50829299999168,None,"['1', '2']",1,"[0.058968500001356006, 0.11923470001784153]",38.50829299999168,None,,001,2022_May_11_1110,TMT_fmri,2021.2.3,59.94176058854945,
TMTstop-Control_1_3.xlsx,52:78,15,['1'],1,TMTstop-control_1_3linestimulus12.png,TMTstop-control_1_3greenlinestimulus12.png,TMTstop-control_1_3redlinestimulus12.png,TMT_Control,3,65,None,1,0,2,2,2,0,14,14,14,,,,,,,,,,,,,,,,,,,,,,,,,,,,,,,,,,,,,,,,,,,,,,,2,0,23.863451599987457,38.69842170001357,None,"['3', '1']",1,"[0.10141529998509213, 0.21191209999960847]",38.69842170001357,None,,001,2022_May_11_1110,TMT_fmri,2021.2.3,59.94176058854945,
TMTstop-Control_1_3.xlsx,52:78,16,['3'],3,TMTstop-control_1_3linestimulus13.png,TMTstop-control_1_3greenlinestimulus13.png,TMTstop-control_1_3redlinestimulus13.png,TMT_Control,3,66,None,1,0,2,2,2,0,15,15,15,,,,,,,,,,,,,,,,,,,,,,,,,,,,,,,,,,,,,,,,,,,,,,,2,0,24.059431800007587,38.96978529999615,None,"['2', '3']",1,"[0.028804600005969405, 0.11931639999966137]",38.96978529999615,None,,001,2022_May_11_1110,TMT_fmri,2021.2.3,59.94176058854945,
TMTstop-Control_1_3.xlsx,52:78,17,['1'],1,TMTstop-control_1_3linestimulus14.png,TMTstop-control_1_3greenlinestimulus14.png,TMTstop-control_1_3redlinestimulus14.png,TMT_Control,3,67,None,1,0,2,2,2,0,16,16,16,,,,,,,,,,,,,,,,,,,,,,,,,,,,,,,,,,,,,,,,,,,,,,,1,1,24.16037349999533,39.16153480001958,None,['1'],1,[0.05047129999729805],39.16153480001958,None,,001,2022_May_11_1110,TMT_fmri,2021.2.3,59.94176058854945,
TMTstop-Control_1_3.xlsx,52:78,18,['3'],3,TMTstop-control_1_3linestimulus15.png,TMTstop-control_1_3greenlinestimulus15.png,TMTstop-control_1_3redlinestimulus15.png,TMT_Control,3,68,None,1,0,2,2,2,0,17,17,17,,,,,,,,,,,,,,,,,,,,,,,,,,,,,,,,,,,,,,,,,,,,,,,2,0,24.35756269999547,39.268422699999064,None,"['2', '3']",1,"[0.024806900008115917, 0.10822160000680014]",39.268422699999064,None,,001,2022_May_11_1110,TMT_fmri,2021.2.3,59.94176058854945,
TMTstop-Control_1_3.xlsx,52:78,19,['2'],2,TMTstop-control_1_3linestimulus16.png,TMTstop-control_1_3greenlinestimulus16.png,TMTstop-control_1_3redlinestimulus16.png,TMT_Control,3,69,None,1,0,2,2,2,0,18,18,18,,,,,,,,,,,,,,,,,,,,,,,,,,,,,,,,,,,,,,,,,,,,,,,2,0,24.50845150000532,39.459746000007726,None,"['1', '2']",1,"[0.03552100001252256, 0.08556559999124147]",39.459746000007726,None,,001,2022_May_11_1110,TMT_fmri,2021.2.3,59.94176058854945,
TMTstop-Control_1_3.xlsx,52:78,20,['1'],1,TMTstop-control_1_3linestimulus17.png,TMTstop-control_1_3greenlinestimulus17.png,TMTstop-control_1_3redlinestimulus17.png,TMT_Control,3,70,None,1,0,2,2,2,0,19,19,19,,,,,,,,,,,,,,,,,,,,,,,,,,,,,,,,,,,,,,,,,,,,,,,2,0,24.74844190001022,39.60941730000195,None,"['3', '1']",1,"[0.038679399993270636, 0.16658079999615438]",39.60941730000195,None,,001,2022_May_11_1110,TMT_fmri,2021.2.3,59.94176058854945,
TMTstop-Control_1_3.xlsx,52:78,21,['3'],3,TMTstop-control_1_3linestimulus18.png,TMTstop-control_1_3greenlinestimulus18.png,TMTstop-control_1_3redlinestimulus18.png,TMT_Control,3,71,None,1,0,2,2,2,0,20,20,20,,,,,,,,,,,,,,,,,,,,,,,,,,,,,,,,,,,,,,,,,,,,,,,2,0,24.97732810000889,39.849323600006755,None,"['2', '3']",1,"[0.013326099986443296, 0.13655399999697693]",39.849323600006755,None,,001,2022_May_11_1110,TMT_fmri,2021.2.3,59.94176058854945,
TMTstop-Control_1_3.xlsx,52:78,22,['2'],2,TMTstop-control_1_3linestimulus19.png,TMTstop-control_1_3greenlinestimulus19.png,TMTstop-control_1_3redlinestimulus19.png,TMT_Control,3,72,None,1,0,2,2,2,0,21,21,21,,,,,,,,,,,,,,,,,,,,,,,,,,,,,,,,,,,,,,,,,,,,,,,2,0,25.12743180000689,40.079193400015356,None,"['1', '2']",1,"[0.035085199982859194, 0.07298319999244995]",40.079193400015356,None,,001,2022_May_11_1110,TMT_fmri,2021.2.3,59.94176058854945,
TMTstop-Control_1_3.xlsx,52:78,23,['3'],3,TMTstop-control_1_3linestimulus20.png,TMTstop-control_1_3greenlinestimulus20.png,TMTstop-control_1_3redlinestimulus20.png,TMT_Control,3,73,None,1,0,2,2,2,0,22,22,22,,,,,,,,,,,,,,,,,,,,,,,,,,,,,,,,,,,,,,,,,,,,,,,1,1,25.244454700005008,40.22929360001581,None,['3'],1,[0.06117589998757467],40.22929360001581,None,,001,2022_May_11_1110,TMT_fmri,2021.2.3,59.94176058854945,
TMTstop-Control_1_3.xlsx,52:78,24,['1'],1,TMTstop-control_1_3linestimulus21.png,TMTstop-control_1_3greenlinestimulus21.png,TMTstop-control_1_3redlinestimulus21.png,TMT_Control,3,74,None,1,0,2,2,2,0,23,23,23,,,,,,,,,,,,,,,,,,,,,,,,,,,,,,,,,,,,,,,,,,,,,,,1,1,25.379318099992815,40.34614259999944,None,['1'],1,[0.08024979999754578],40.34614259999944,None,,001,2022_May_11_1110,TMT_fmri,2021.2.3,59.94176058854945,
TMTstop-Control_1_3.xlsx,52:78,25,['2'],2,TMTstop-control_1_3linestimulus22.png,TMTstop-control_1_3greenlinestimulus22.png,TMTstop-control_1_3redlinestimulus22.png,TMT_Control,3,75,None,1,0,2,2,2,0,24,24,24,,,,,,,,,,,,,,,,,,,,,,,,,,,,,,,,,,,,,,,,,,,,,,,1,1,25.494450199999847,40.479051100002835,None,['2'],1,[0.06127820000983775],40.479051100002835,None,,001,2022_May_11_1110,TMT_fmri,2021.2.3,59.94176058854945,
TMTstop-Control_1_3.xlsx,52:78,None,None,None,TMTstop-control_1_3linestimulus23.png,TMTstop-control_1_3greenlinestimulus23.png,TMTstop-control_1_3redlinestimulus23.png,TMT_Control,3,Feedback_last,None,1,0,2,2,2,0,25,25,25,,,,,,,,,,,,,,,,,,,,,,,,,,,,,,,,,,,,,,,,,,,,,,,3,0,,40.59649110000464,None,"['3', '1', '2']",0,"[0.014261100004659966, 0.13090019999071956, 0.19183729999349453]",40.59649110000464,None,,001,2022_May_11_1110,TMT_fmri,2021.2.3,59.94176058854945,
TMTstop-Control_1_4.xlsx,78:104,1,['2'],2,TMTstop-control_1_4.png,TMTstop-control_1_4.png,TMTstop-control_1_4.png,TMT_Control,4,76,None,1,0,3,3,3,0,0,0,0,,,,,,,,,,,,,,,,,,,,,,,,,,,,,,,,,,,,,,,,,,,,,,,2,0,30.23169320001034,44.76127260000794,None,"['1', '2']",1,"[0.41974450001725927, 0.5223141000024043]",44.76127260000794,None,,001,2022_May_11_1110,TMT_fmri,2021.2.3,59.94176058854945,
TMTstop-Control_1_4.xlsx,78:104,2,['1'],1,TMTstop-control_1_4.png,TMTstop-control_1_4firstgreen.png,TMTstop-control_1_4firstred.png,TMT_Control,4,77,None,1,0,3,3,3,0,1,1,1,,,,,,,,,,,,,,,,,,,,,,,,,,,,,,,,,,,,,,,,,,,,,,,2,0,30.471813399984967,45.33255769999232,None,"['3', '1']",1,"[0.03902710002148524, 0.18162640000809915]",45.33255769999232,None,,001,2022_May_11_1110,TMT_fmri,2021.2.3,59.94176058854945,
TMTstop-Control_1_4.xlsx,78:104,3,['3'],3,TMTstop-control_1_4linestimulus0.png,TMTstop-control_1_4greenlinestimulus0.png,TMTstop-control_1_4redlinestimulus0.png,TMT_Control,4,78,None,1,0,3,3,3,0,2,2,2,,,,,,,,,,,,,,,,,,,,,,,,,,,,,,,,,,,,,,,,,,,,,,,2,0,30.63266509998357,45.58037589999731,None,"['2', '3']",1,"[-0.00771470001200214, 0.10022739999112673]",45.58037589999731,None,,001,2022_May_11_1110,TMT_fmri,2021.2.3,59.94176058854945,
TMTstop-Control_1_4.xlsx,78:104,4,['1'],1,TMTstop-control_1_4linestimulus1.png,TMTstop-control_1_4greenlinestimulus1.png,TMTstop-control_1_4redlinestimulus1.png,TMT_Control,4,79,None,1,0,3,3,3,0,3,3,3,,,,,,,,,,,,,,,,,,,,,,,,,,,,,,,,,,,,,,,,,,,,,,,1,1,30.766803000005893,45.73458300001221,None,['1'],1,[0.0794496999878902],45.73458300001221,None,,001,2022_May_11_1110,TMT_fmri,2021.2.3,59.94176058854945,
TMTstop-Control_1_4.xlsx,78:104,5,['3'],3,TMTstop-control_1_4linestimulus2.png,TMTstop-control_1_4greenlinestimulus2.png,TMTstop-control_1_4redlinestimulus2.png,TMT_Control,4,80,None,1,0,3,3,3,0,4,4,4,,,,,,,,,,,,,,,,,,,,,,,,,,,,,,,,,,,,,,,,,,,,,,,2,0,30.916808599984506,45.867897399992216,None,"['2', '3']",1,"[0.0379421999969054, 0.1007370000006631]",45.867897399992216,None,,001,2022_May_11_1110,TMT_fmri,2021.2.3,59.94176058854945,
TMTstop-Control_1_4.xlsx,78:104,6,['1'],1,TMTstop-control_1_4linestimulus3.png,TMTstop-control_1_4greenlinestimulus3.png,TMTstop-control_1_4redlinestimulus3.png,TMT_Control,4,81,None,1,0,3,3,3,0,5,5,5,,,,,,,,,,,,,,,,,,,,,,,,,,,,,,,,,,,,,,,,,,,,,,,1,1,31.089795599982608,46.025024000002304,None,['1'],1,[0.10482939999201335],46.025024000002304,None,,001,2022_May_11_1110,TMT_fmri,2021.2.3,59.94176058854945,
TMTstop-Control_1_4.xlsx,78:104,7,['3'],3,TMTstop-control_1_4linestimulus4.png,TMTstop-control_1_4greenlinestimulus4.png,TMTstop-control_1_4redlinestimulus4.png,TMT_Control,4,82,None,1,0,3,3,3,0,6,6,6,,,,,,,,,,,,,,,,,,,,,,,,,,,,,,,,,,,,,,,,,,,,,,,2,0,31.247800399985863,46.191468100005295,None,"['2', '3']",1,"[-0.017303100001299754, 0.09383299999171868]",46.191468100005295,None,,001,2022_May_11_1110,TMT_fmri,2021.2.3,59.94176058854945,
TMTstop-Control_1_4.xlsx,78:104,8,['1'],1,TMTstop-control_1_4linestimulus4.png,TMTstop-control_1_4greenlinestimulus5.png,TMTstop-control_1_4redlinestimulus5.png,TMT_Control,4,83,None,1,0,3,3,3,0,7,7,7,,,,,,,,,,,,,,,,,,,,,,,,,,,,,,,,,,,,,,,,,,,,,,,1,1,31.402798399998574,46.35418940000818,None,['1'],1,[0.09158110001590103],46.35418940000818,None,,001,2022_May_11_1110,TMT_fmri,2021.2.3,59.94176058854945,
TMTstop-Control_1_4.xlsx,78:104,9,['3'],3,TMTstop-control_1_4linestimulus6.png,TMTstop-control_1_4greenlinestimulus6.png,TMTstop-control_1_4redlinestimulus6.png,TMT_Control,4,84,None,1,0,3,3,3,0,8,8,8,,,,,,,,,,,,,,,,,,,,,,,,,,,,,,,,,,,,,,,,,,,,,,,2,0,31.542798699985724,46.50424110001768,None,"['2', '3']",1,"[-0.03003199998056516, 0.08373919999576174]",46.50424110001768,None,,001,2022_May_11_1110,TMT_fmri,2021.2.3,59.94176058854945,
TMTstop-Control_1_4.xlsx,78:104,10,['2'],2,TMTstop-control_1_4linestimulus7.png,TMTstop-control_1_4greenlinestimulus7.png,TMTstop-control_1_4redlinestimulus7.png,TMT_Control,4,85,None,1,0,3,3,3,0,9,9,9,,,,,,,,,,,,,,,,,,,,,,,,,,,,,,,,,,,,,,,,,,,,,,,2,0,31.73681519998354,46.651005499996245,None,"['1', '2']",1,"[0.0758205000020098, 0.12888679999741726]",46.651005499996245,None,,001,2022_May_11_1110,TMT_fmri,2021.2.3,59.94176058854945,
TMTstop-Control_1_4.xlsx,78:104,11,['1'],1,TMTstop-control_1_4linestimulus8.png,TMTstop-control_1_4greenlinestimulus8.png,TMTstop-control_1_4redlinestimulus8.png,TMT_Control,4,86,None,1,0,3,3,3,0,10,10,10,,,,,,,,,,,,,,,,,,,,,,,,,,,,,,,,,,,,,,,,,,,,,,,2,0,31.993800600001123,46.844859200005885,None,"['3', '1']",1,"[0.041873800015309826, 0.19182940002065152]",46.844859200005885,None,,001,2022_May_11_1110,TMT_fmri,2021.2.3,59.94176058854945,
TMTstop-Control_1_4.xlsx,78:104,12,['3'],3,TMTstop-control_1_4linestimulus9.png,TMTstop-control_1_4greenlinestimulus9.png,TMTstop-control_1_4redlinestimulus9.png,TMT_Control,4,87,None,1,0,3,3,3,0,11,11,11,,,,,,,,,,,,,,,,,,,,,,,,,,,,,,,,,,,,,,,,,,,,,,,2,0,32.14387979998719,47.09515239999746,None,"['2', '3']",1,"[-0.016298700007610023, 0.08932909998111427]",47.09515239999746,None,,001,2022_May_11_1110,TMT_fmri,2021.2.3,59.94176058854945,
TMTstop-Control_1_4.xlsx,78:104,13,['2'],2,TMTstop-control_1_4linestimulus10.png,TMTstop-control_1_4greenlinestimulus10.png,TMTstop-control_1_4redlinestimulus10.png,TMT_Control,4,88,None,1,0,3,3,3,0,12,12,12,,,,,,,,,,,,,,,,,,,,,,,,,,,,,,,,,,,,,,,,,,,,,,,2,0,32.39379380000173,47.245287600002484,None,"['1', '2']",1,"[0.09502809998230077, 0.18757369997911155]",47.245287600002484,None,,001,2022_May_11_1110,TMT_fmri,2021.2.3,59.94176058854945,
TMTstop-Control_1_4.xlsx,78:104,14,['3'],3,TMTstop-control_1_4linestimulus11.png,TMTstop-control_1_4greenlinestimulus11.png,TMTstop-control_1_4redlinestimulus11.png,TMT_Control,4,89,None,1,0,3,3,3,0,13,13,13,,,,,,,,,,,,,,,,,,,,,,,,,,,,,,,,,,,,,,,,,,,,,,,1,1,32.50080209999578,47.50235920000705,None,['3'],1,[0.024610199994640425],47.50235920000705,None,,001,2022_May_11_1110,TMT_fmri,2021.2.3,59.94176058854945,
TMTstop-Control_1_4.xlsx,78:104,15,['2'],2,TMTstop-control_1_4linestimulus12.png,TMTstop-control_1_4greenlinestimulus12.png,TMTstop-control_1_4redlinestimulus12.png,TMT_Control,4,90,None,1,0,3,3,3,0,14,14,14,,,,,,,,,,,,,,,,,,,,,,,,,,,,,,,,,,,,,,,,,,,,,,,2,0,32.686769499996444,47.602447700017365,None,"['1', '2']",1,"[0.0627358999918215, 0.10358419999829493]",47.602447700017365,None,,001,2022_May_11_1110,TMT_fmri,2021.2.3,59.94176058854945,
TMTstop-Control_1_4.xlsx,78:104,16,['1'],1,TMTstop-control_1_4linestimulus13.png,TMTstop-control_1_4greenlinestimulus13.png,TMTstop-control_1_4redlinestimulus13.png,TMT_Control,4,91,None,1,0,3,3,3,0,15,15,15,,,,,,,,,,,,,,,,,,,,,,,,,,,,,,,,,,,,,,,,,,,,,,,2,0,32.93279729998903,47.793363400007365,None,"['3', '1']",1,"[0.03631299998960458, 0.18016749998787418]",47.793363400007365,None,,001,2022_May_11_1110,TMT_fmri,2021.2.3,59.94176058854945,
TMTstop-Control_1_4.xlsx,78:104,17,['3'],3,TMTstop-control_1_4linestimulus14.png,TMTstop-control_1_4greenlinestimulus14.png,TMTstop-control_1_4redlinestimulus14.png,TMT_Control,4,92,None,1,0,3,3,3,0,16,16,16,,,,,,,,,,,,,,,,,,,,,,,,,,,,,,,,,,,,,,,,,,,,,,,2,0,33.13279209999018,48.03414560001693,None,"['2', '3']",1,"[-0.02052300001378171, 0.10448660000110976]",48.03414560001693,None,,001,2022_May_11_1110,TMT_fmri,2021.2.3,59.94176058854945,
TMTstop-Control_1_4.xlsx,78:104,18,['1'],1,TMTstop-control_1_4linestimulus15.png,TMTstop-control_1_4greenlinestimulus15.png,TMTstop-control_1_4redlinestimulus15.png,TMT_Control,4,93,None,1,0,3,3,3,0,17,17,17,,,,,,,,,,,,,,,,,,,,,,,,,,,,,,,,,,,,,,,,,,,,,,,1,1,33.23280150000937,48.23435199999949,None,['1'],1,[0.04579639999428764],48.23435199999949,None,,001,2022_May_11_1110,TMT_fmri,2021.2.3,59.94176058854945,
TMTstop-Control_1_4.xlsx,78:104,19,['2'],2,TMTstop-control_1_4linestimulus16.png,TMTstop-control_1_4greenlinestimulus16.png,TMTstop-control_1_4redlinestimulus16.png,TMT_Control,4,94,None,1,0,3,3,3,0,18,18,18,,,,,,,,,,,,,,,,,,,,,,,,,,,,,,,,,,,,,,,,,,,,,,,1,1,33.29881049998221,48.33445690001827,None,['2'],1,[0.00491589997545816],48.33445690001827,None,,001,2022_May_11_1110,TMT_fmri,2021.2.3,59.94176058854945,
TMTstop-Control_1_4.xlsx,78:104,20,['1'],1,TMTstop-control_1_4linestimulus17.png,TMTstop-control_1_4greenlinestimulus17.png,TMTstop-control_1_4redlinestimulus17.png,TMT_Control,4,95,None,1,0,3,3,3,0,19,19,19,,,,,,,,,,,,,,,,,,,,,,,,,,,,,,,,,,,,,,,,,,,,,,,2,0,33.544802899996284,48.40621509999619,None,"['3', '1']",1,"[0.03559799998765811, 0.18699049999122508]",48.40621509999619,None,,001,2022_May_11_1110,TMT_fmri,2021.2.3,59.94176058854945,
TMTstop-Control_1_4.xlsx,78:104,21,['2'],2,TMTstop-control_1_4linestimulus18.png,TMTstop-control_1_4greenlinestimulus18.png,TMTstop-control_1_4redlinestimulus18.png,TMT_Control,4,96,None,1,0,3,3,3,0,20,20,20,,,,,,,,,,,,,,,,,,,,,,,,,,,,,,,,,,,,,,,,,,,,,,,1,1,33.59488160000183,48.64606190001359,None,['2'],1,[-0.008368399983737618],48.64606190001359,None,,001,2022_May_11_1110,TMT_fmri,2021.2.3,59.94176058854945,
TMTstop-Control_1_4.xlsx,78:104,22,['1'],1,TMTstop-control_1_4linestimulus19.png,TMTstop-control_1_4greenlinestimulus19.png,TMTstop-control_1_4redlinestimulus19.png,TMT_Control,4,97,None,1,0,3,3,3,0,21,21,21,,,,,,,,,,,,,,,,,,,,,,,,,,,,,,,,,,,,,,,,,,,,,,,5,0,34.19976960000349,48.69674460001988,None,"['3', '1', '2', '3', '1']",1,"[0.06121660000644624, 0.20845570001984015, 0.2420113000262063, 0.37757830001646653, 0.5284937000251375]",48.69674460001988,None,,001,2022_May_11_1110,TMT_fmri,2021.2.3,59.94176058854945,
TMTstop-Control_1_4.xlsx,78:104,23,['2'],2,TMTstop-control_1_4linestimulus20.png,TMTstop-control_1_4greenlinestimulus20.png,TMTstop-control_1_4redlinestimulus20.png,TMT_Control,4,98,None,1,0,3,3,3,0,22,22,22,,,,,,,,,,,,,,,,,,,,,,,,,,,,,,,,,,,,,,,,,,,,,,,1,1,34.2497938000015,49.3011352000176,None,['2'],1,[-0.04412939999019727],49.3011352000176,None,,001,2022_May_11_1110,TMT_fmri,2021.2.3,59.94176058854945,
TMTstop-Control_1_4.xlsx,78:104,24,['1'],1,TMTstop-control_1_4linestimulus21.png,TMTstop-control_1_4greenlinestimulus21.png,TMTstop-control_1_4redlinestimulus21.png,TMT_Control,4,99,None,1,0,3,3,3,0,23,23,23,,,,,,,,,,,,,,,,,,,,,,,,,,,,,,,,,,,,,,,,,,,,,,,2,0,34.53589910001028,49.354191000020364,None,"['3', '1']",1,"[0.054614300024695694, 0.1959086999995634]",49.354191000020364,None,,001,2022_May_11_1110,TMT_fmri,2021.2.3,59.94176058854945,
TMTstop-Control_1_4.xlsx,78:104,25,['2'],2,TMTstop-control_1_4linestimulus22.png,TMTstop-control_1_4greenlinestimulus22.png,TMTstop-control_1_4redlinestimulus22.png,TMT_Control,4,100,None,1,0,3,3,3,0,24,24,24,,,,,,,,,,,,,,,,,,,,,,,,,,,,,,,,,,,,,,,,,,,,,,,1,1,34.585770200006664,49.63764070000616,None,['2'],1,[-0.018970100005390123],49.63764070000616,None,,001,2022_May_11_1110,TMT_fmri,2021.2.3,59.94176058854945,
TMTstop-Control_1_4.xlsx,78:104,None,None,None,TMTstop-control_1_4linestimulus23.png,TMTstop-control_1_4greenlinestimulus23.png,TMTstop-control_1_4redlinestimulus23.png,TMT_Control,4,Feedback_last,None,1,0,3,3,3,0,25,25,25,,,,,,,,,,,,,,,,,,,,,,,,,,,,,,,,,,,,,,,,,,,,,,,1,1,,49.68796300000395,None,['3'],0,[0.05987490000552498],49.68796300000395,None,,001,2022_May_11_1110,TMT_fmri,2021.2.3,59.94176058854945,
TMTstop-A_1_1.xlsx,0:26,1,['1'],1,TMTstop-A_1_1.png,TMTstop-A_1_1.png,TMTstop-A_1_1.png,TMT_A,1,1,1,2,,,,,,,,,0,0,0,0,0,0,0,0,,,,,,,,,,,,,,,,,,,,,,,,,,,,,,,,,,,,,,,1,1,50.04546449999907,63.86220370000228,None,['1'],1,[1.2311308999778703],63.86220370000228,None,,001,2022_May_11_1110,TMT_fmri,2021.2.3,59.94176058854945,
TMTstop-A_1_1.xlsx,0:26,2,['3'],3,TMTstop-A_1_1.png,TMTstop-A_1_1firstgreen.png,TMTstop-A_1_1firstred.png,TMT_A,1,2,None,2,,,,,,,,,0,0,0,0,0,1,1,1,,,,,,,,,,,,,,,,,,,,,,,,,,,,,,,,,,,,,,,2,0,50.277341000008164,65.15453600001638,None,"['2', '3']",1,"[0.06699260001187213, 0.16356509999604896]",65.15453600001638,None,,001,2022_May_11_1110,TMT_fmri,2021.2.3,59.94176058854945,
TMTstop-A_1_1.xlsx,0:26,3,['1'],1,TMTstop-A_1_1linestimulus0.png,TMTstop-A_1_1greenlinestimulus0.png,TMTstop-A_1_1redlinestimulus0.png,TMT_A,1,3,None,2,,,,,,,,,0,0,0,0,0,2,2,2,,,,,,,,,,,,,,,,,,,,,,,,,,,,,,,,,,,,,,,1,1,50.43546489998698,65.38635430001887,None,['1'],1,[0.09986899999785237],65.38635430001887,None,,001,2022_May_11_1110,TMT_fmri,2021.2.3,59.94176058854945,
TMTstop-A_1_1.xlsx,0:26,4,['3'],3,TMTstop-A_1_1linestimulus1.png,TMTstop-A_1_1greenlinestimulus1.png,TMTstop-A_1_1redlinestimulus1.png,TMT_A,1,4,None,2,,,,,,,,,0,0,0,0,0,3,3,3,,,,,,,,,,,,,,,,,,,,,,,,,,,,,,,,,,,,,,,2,0,50.64645639999071,65.53660409999429,None,"['2', '3']",1,"[-0.0028331000066827983, 0.11184349999530241]",65.53660409999429,None,,001,2022_May_11_1110,TMT_fmri,2021.2.3,59.94176058854945,
TMTstop-A_1_1.xlsx,0:26,5,['1'],1,TMTstop-A_1_1linestimulus2.png,TMTstop-A_1_1greenlinestimulus2.png,TMTstop-A_1_1redlinestimulus2.png,TMT_A,1,5,None,2,,,,,,,,,0,0,0,0,0,4,4,4,,,,,,,,,,,,,,,,,,,,,,,,,,,,,,,,,,,,,,,1,1,50.74647409998579,65.74841870000819,None,['1'],1,[0.041719799977727234],65.74841870000819,None,,001,2022_May_11_1110,TMT_fmri,2021.2.3,59.94176058854945,
TMTstop-A_1_1.xlsx,0:26,6,['3'],3,TMTstop-A_1_1linestimulus3.png,TMTstop-A_1_1greenlinestimulus3.png,TMTstop-A_1_1redlinestimulus3.png,TMT_A,1,6,None,2,,,,,,,,,0,0,0,0,0,5,5,5,,,,,,,,,,,,,,,,,,,,,,,,,,,,,,,,,,,,,,,2,0,50.94657569998526,65.84861220000312,None,"['2', '3']",1,"[-0.013277199992444366, 0.10652510001091287]",65.84861220000312,None,,001,2022_May_11_1110,TMT_fmri,2021.2.3,59.94176058854945,
TMTstop-A_1_1.xlsx,0:26,7,['1'],1,TMTstop-A_1_1linestimulus4.png,TMTstop-A_1_1greenlinestimulus4.png,TMTstop-A_1_1redlinestimulus4.png,TMT_A,1,7,None,2,,,,,,,,,0,0,0,0,0,6,6,6,,,,,,,,,,,,,,,,,,,,,,,,,,,,,,,,,,,,,,,1,1,51.08046659998945,66.04888610000489,None,['1'],1,[0.07262759999139234],66.04888610000489,None,,001,2022_May_11_1110,TMT_fmri,2021.2.3,59.94176058854945,
TMTstop-A_1_1.xlsx,0:26,8,['2'],2,TMTstop-A_1_1linestimulus5.png,TMTstop-A_1_1greenlinestimulus5.png,TMTstop-A_1_1redlinestimulus5.png,TMT_A,1,8,None,2,,,,,,,,,0,0,0,0,0,7,7,7,,,,,,,,,,,,,,,,,,,,,,,,,,,,,,,,,,,,,,,1,1,51.164481799991336,66.18182500000694,None,['2'],1,[0.017535700026201084],66.18182500000694,None,,001,2022_May_11_1110,TMT_fmri,2021.2.3,59.94176058854945,
TMTstop-A_1_1.xlsx,0:26,9,['3'],3,TMTstop-A_1_1linestimulus6.png,TMTstop-A_1_1greenlinestimulus6.png,TMTstop-A_1_1redlinestimulus6.png,TMT_A,1,9,None,2,,,,,,,,,0,0,0,0,0,8,8,8,,,,,,,,,,,,,,,,,,,,,,,,,,,,,,,,,,,,,,,1,1,51.26457929998287,66.26518990000477,None,['3'],1,[0.04202249998343177],66.26518990000477,None,,001,2022_May_11_1110,TMT_fmri,2021.2.3,59.94176058854945,
TMTstop-A_1_1.xlsx,0:26,10,['1'],1,TMTstop-A_1_1linestimulus7.png,TMTstop-A_1_1greenlinestimulus7.png,TMTstop-A_1_1redlinestimulus7.png,TMT_A,1,10,None,2,,,,,,,,,0,0,0,0,0,9,9,9,,,,,,,,,,,,,,,,,,,,,,,,,,,,,,,,,,,,,,,1,1,51.41446369999903,66.36542030001874,None,['1'],1,[0.09139889999642037],66.36542030001874,None,,001,2022_May_11_1110,TMT_fmri,2021.2.3,59.94176058854945,
TMTstop-A_1_1.xlsx,0:26,11,['3'],3,TMTstop-A_1_1linestimulus8.png,TMTstop-A_1_1greenlinestimulus8.png,TMTstop-A_1_1redlinestimulus8.png,TMT_A,1,11,None,2,,,,,,,,,0,0,0,0,0,10,10,10,,,,,,,,,,,,,,,,,,,,,,,,,,,,,,,,,,,,,,,2,0,51.58045109998784,66.51560330000939,None,"['2', '3']",1,"[0.007718000008026138, 0.09149250001064502]",66.51560330000939,None,,001,2022_May_11_1110,TMT_fmri,2021.2.3,59.94176058854945,
TMTstop-A_1_1.xlsx,0:26,12,['2'],2,TMTstop-A_1_1linestimulus9.png,TMTstop-A_1_1greenlinestimulus9.png,TMTstop-A_1_1redlinestimulus9.png,TMT_A,1,12,None,2,,,,,,,,,0,0,0,0,0,11,11,11,,,,,,,,,,,,,,,,,,,,,,,,,,,,,,,,,,,,,,,2,0,51.7873311000003,66.68918529999792,None,"['1', '2']",1,"[0.09517659997800365, 0.15115769999101758]",66.68918529999792,None,,001,2022_May_11_1110,TMT_fmri,2021.2.3,59.94176058854945,
TMTstop-A_1_1.xlsx,0:26,13,['1'],1,TMTstop-A_1_1linestimulus10.png,TMTstop-A_1_1greenlinestimulus10.png,TMTstop-A_1_1redlinestimulus10.png,TMT_A,1,13,None,2,,,,,,,,,0,0,0,0,0,12,12,12,,,,,,,,,,,,,,,,,,,,,,,,,,,,,,,,,,,,,,,2,0,52.17946879999363,66.88936649999232,None,"['3', '1']",1,"[0.07463120002648793, 0.3302374000195414]",66.88936649999232,None,,001,2022_May_11_1110,TMT_fmri,2021.2.3,59.94176058854945,
TMTstop-A_1_1.xlsx,0:26,14,['2'],2,TMTstop-A_1_1linestimulus11.png,TMTstop-A_1_1greenlinestimulus11.png,TMTstop-A_1_1redlinestimulus11.png,TMT_A,1,14,None,2,,,,,,,,,0,0,0,0,0,13,13,13,,,,,,,,,,,,,,,,,,,,,,,,,,,,,,,,,,,,,,,1,1,52.22946659999434,67.28148720000172,None,['2'],1,[-0.0027818000235129148],67.28148720000172,None,,001,2022_May_11_1110,TMT_fmri,2021.2.3,59.94176058854945,
TMTstop-A_1_1.xlsx,0:26,15,['1'],1,TMTstop-A_1_1linestimulus12.png,TMTstop-A_1_1greenlinestimulus12.png,TMTstop-A_1_1redlinestimulus12.png,TMT_A,1,15,None,2,,,,,,,,,0,0,0,0,0,14,14,14,,,,,,,,,,,,,,,,,,,,,,,,,,,,,,,,,,,,,,,5,0,52.88244570000097,67.33153799999855,None,"['3', '1', '2', '3', '1']",1,"[0.05127680001896806, 0.21730610000668094, 0.2517408000130672, 0.4178307000256609, 0.5552601000235882]",67.33153799999855,None,,001,2022_May_11_1110,TMT_fmri,2021.2.3,59.94176058854945,
TMTstop-A_1_1.xlsx,0:26,16,['2'],2,TMTstop-A_1_1linestimulus13.png,TMTstop-A_1_1greenlinestimulus13.png,TMTstop-A_1_1redlinestimulus13.png,TMT_A,1,16,None,2,,,,,,,,,0,0,0,0,0,15,15,15,,,,,,,,,,,,,,,,,,,,,,,,,,,,,,,,,,,,,,,1,1,52.93343949998962,67.98470390000148,None,['2'],1,[-0.03299039998091757],67.98470390000148,None,,001,2022_May_11_1110,TMT_fmri,2021.2.3,59.94176058854945,
TMTstop-A_1_1.xlsx,0:26,17,['1'],1,TMTstop-A_1_1linestimulus14.png,TMTstop-A_1_1greenlinestimulus14.png,TMTstop-A_1_1redlinestimulus14.png,TMT_A,1,17,None,2,,,,,,,,,0,0,0,0,0,16,16,16,,,,,,,,,,,,,,,,,,,,,,,,,,,,,,,,,,,,,,,2,0,53.17247309998493,68.03571570001077,None,"['3', '1']",1,"[0.004457400005776435, 0.17568270000629127]",68.03571570001077,None,,001,2022_May_11_1110,TMT_fmri,2021.2.3,59.94176058854945,
TMTstop-A_1_1.xlsx,0:26,18,['3'],3,TMTstop-A_1_1linestimulus15.png,TMTstop-A_1_1greenlinestimulus15.png,TMTstop-A_1_1redlinestimulus15.png,TMT_A,1,18,None,2,,,,,,,,,0,0,0,0,0,17,17,17,,,,,,,,,,,,,,,,,,,,,,,,,,,,,,,,,,,,,,,2,0,53.38147039999603,68.27417690001312,None,"['2', '3']",1,"[0.04141079998225905, 0.1505876999872271]",68.27417690001312,None,,001,2022_May_11_1110,TMT_fmri,2021.2.3,59.94176058854945,
TMTstop-A_1_1.xlsx,0:26,19,['2'],2,TMTstop-A_1_1linestimulus16.png,TMTstop-A_1_1greenlinestimulus16.png,TMTstop-A_1_1redlinestimulus16.png,TMT_A,1,19,None,2,,,,,,,,,0,0,0,0,0,18,18,18,,,,,,,,,,,,,,,,,,,,,,,,,,,,,,,,,,,,,,,2,0,53.806441599997925,68.4833551000047,None,"['1', '2']",1,"[0.31448609998915344, 0.3283192999952007]",68.4833551000047,None,,001,2022_May_11_1110,TMT_fmri,2021.2.3,59.94176058854945,
TMTstop-A_1_1.xlsx,0:26,20,['3'],3,TMTstop-A_1_1linestimulus17.png,TMTstop-A_1_1greenlinestimulus17.png,TMTstop-A_1_1redlinestimulus17.png,TMT_A,1,20,None,2,,,,,,,,,0,0,0,0,0,19,19,19,,,,,,,,,,,,,,,,,,,,,,,,,,,,,,,,,,,,,,,1,1,53.90675349999219,68.90837230000761,None,['3'],1,[0.04234089999226853],68.90837230000761,None,,001,2022_May_11_1110,TMT_fmri,2021.2.3,59.94176058854945,
TMTstop-A_1_1.xlsx,0:26,21,['1'],1,TMTstop-A_1_1linestimulus18.png,TMTstop-A_1_1greenlinestimulus18.png,TMTstop-A_1_1redlinestimulus18.png,TMT_A,1,21,None,2,,,,,,,,,0,0,0,0,0,20,20,20,,,,,,,,,,,,,,,,,,,,,,,,,,,,,,,,,,,,,,,1,1,54.090598899987526,69.00838959999965,None,['1'],1,[0.13266410000505857],69.00838959999965,None,,001,2022_May_11_1110,TMT_fmri,2021.2.3,59.94176058854945,
TMTstop-A_1_1.xlsx,0:26,22,['3'],3,TMTstop-A_1_1linestimulus19.png,TMTstop-A_1_1greenlinestimulus19.png,TMTstop-A_1_1redlinestimulus19.png,TMT_A,1,22,None,2,,,,,,,,,0,0,0,0,0,21,21,21,,,,,,,,,,,,,,,,,,,,,,,,,,,,,,,,,,,,,,,2,0,54.387313599989284,69.19978130000527,None,"['2', '3']",1,"[0.007064800010994077, 0.1915832000086084]",69.19978130000527,None,,001,2022_May_11_1110,TMT_fmri,2021.2.3,59.94176058854945,
TMTstop-A_1_1.xlsx,0:26,23,['1'],1,TMTstop-A_1_1linestimulus20.png,TMTstop-A_1_1greenlinestimulus20.png,TMTstop-A_1_1redlinestimulus20.png,TMT_A,1,23,None,2,,,,,,,,,0,0,0,0,0,22,22,22,,,,,,,,,,,,,,,,,,,,,,,,,,,,,,,,,,,,,,,1,1,54.504441099998076,69.48939550001523,None,['1'],1,[0.05268429999705404],69.48939550001523,None,,001,2022_May_11_1110,TMT_fmri,2021.2.3,59.94176058854945,
TMTstop-A_1_1.xlsx,0:26,24,['3'],3,TMTstop-A_1_1linestimulus21.png,TMTstop-A_1_1greenlinestimulus21.png,TMTstop-A_1_1redlinestimulus21.png,TMT_A,1,24,None,2,,,,,,,,,0,0,0,0,0,23,23,23,,,,,,,,,,,,,,,,,,,,,,,,,,,,,,,,,,,,,,,2,0,54.6884441000002,69.60619280001265,None,"['2', '3']",1,"[0.014923100010491908, 0.11529420001897961]",69.60619280001265,None,,001,2022_May_11_1110,TMT_fmri,2021.2.3,59.94176058854945,
TMTstop-A_1_1.xlsx,0:26,25,['1'],1,TMTstop-A_1_1linestimulus22.png,TMTstop-A_1_1greenlinestimulus22.png,TMTstop-A_1_1redlinestimulus22.png,TMT_A,1,25,None,2,,,,,,,,,0,0,0,0,0,24,24,24,,,,,,,,,,,,,,,,,,,,,,,,,,,,,,,,,,,,,,,1,1,54.82148569999845,69.78983190000872,None,['1'],1,[0.07001429999945685],69.78983190000872,None,,001,2022_May_11_1110,TMT_fmri,2021.2.3,59.94176058854945,
TMTstop-A_1_1.xlsx,0:26,None,None,None,TMTstop-A_1_1linestimulus23.png,TMTstop-A_1_1greenlinestimulus23.png,TMTstop-A_1_1redlinestimulus23.png,TMT_A,1,Feedback_last,None,2,,,,,,,,,0,0,0,0,0,25,25,25,,,,,,,,,,,,,,,,,,,,,,,,,,,,,,,,,,,,,,,2,0,,69.92325310001615,None,"['2', '3']",0,"[-0.02466850000200793, 0.0894933000090532]",69.92325310001615,None,,001,2022_May_11_1110,TMT_fmri,2021.2.3,59.94176058854945,
TMTstop-A_1_2.xlsx,26:52,1,['1'],1,TMTstop-A_1_2.png,TMTstop-A_1_2.png,TMTstop-A_1_2.png,TMT_A,2,26,None,2,,,,,,,,,0,1,1,1,0,0,0,0,,,,,,,,,,,,,,,,,,,,,,,,,,,,,,,,,,,,,,,1,1,59.71346870000707,74.07997240000986,None,['1'],1,[0.6742653999826871],74.07997240000986,None,,001,2022_May_11_1110,TMT_fmri,2021.2.3,59.94176058854945,
TMTstop-A_1_2.xlsx,26:52,2,['3'],3,TMTstop-A_1_2.png,TMTstop-A_1_2firstgreen.png,TMTstop-A_1_2firstred.png,TMT_A,2,27,None,2,,,,,,,,,0,1,1,1,0,1,1,1,,,,,,,,,,,,,,,,,,,,,,,,,,,,,,,,,,,,,,,2,0,59.905162999988534,74.82335680001415,None,"['2', '3']",1,"[0.056599399977130815, 0.13427260000025854]",74.82335680001415,None,,001,2022_May_11_1110,TMT_fmri,2021.2.3,59.94176058854945,
TMTstop-A_1_2.xlsx,26:52,3,['1'],1,TMTstop-A_1_2linestimulus0.png,TMTstop-A_1_2greenlinestimulus0.png,TMTstop-A_1_2redlinestimulus0.png,TMT_A,2,28,None,2,,,,,,,,,0,1,1,1,0,2,2,2,,,,,,,,,,,,,,,,,,,,,,,,,,,,,,,,,,,,,,,1,1,60.10621319999336,75.00724800000899,None,['1'],1,[0.15018170000985265],75.00724800000899,None,,001,2022_May_11_1110,TMT_fmri,2021.2.3,59.94176058854945,
TMTstop-A_1_2.xlsx,26:52,4,['2'],2,TMTstop-A_1_2linestimulus1.png,TMTstop-A_1_2greenlinestimulus1.png,TMTstop-A_1_2redlinestimulus1.png,TMT_A,2,29,None,2,,,,,,,,,0,1,1,1,0,3,3,3,,,,,,,,,,,,,,,,,,,,,,,,,,,,,,,,,,,,,,,1,1,60.16420840000501,75.21577090001665,None,['2'],1,[-0.015081900026416406],75.21577090001665,None,,001,2022_May_11_1110,TMT_fmri,2021.2.3,59.94176058854945,
TMTstop-A_1_2.xlsx,26:52,5,['1'],1,TMTstop-A_1_2linestimulus2.png,TMTstop-A_1_2greenlinestimulus2.png,TMTstop-A_1_2redlinestimulus2.png,TMT_A,2,30,None,2,,,,,,,,,0,1,1,1,0,4,4,4,,,,,,,,,,,,,,,,,,,,,,,,,,,,,,,,,,,,,,,2,0,60.442226599989226,75.26545390000683,None,"['3', '1']",1,"[0.05574239999987185, 0.2220501000119839]",75.26545390000683,None,,001,2022_May_11_1110,TMT_fmri,2021.2.3,59.94176058854945,
TMTstop-A_1_2.xlsx,26:52,6,['3'],3,TMTstop-A_1_2linestimulus3.png,TMTstop-A_1_2greenlinestimulus3.png,TMTstop-A_1_2redlinestimulus3.png,TMT_A,2,31,None,2,,,,,,,,,0,1,1,1,0,5,5,5,,,,,,,,,,,,,,,,,,,,,,,,,,,,,,,,,,,,,,,2,0,60.59210599999642,75.54325550000067,None,"['2', '3']",1,"[-0.013433299987809733, 0.10015839998959564]",75.54325550000067,None,,001,2022_May_11_1110,TMT_fmri,2021.2.3,59.94176058854945,
TMTstop-A_1_2.xlsx,26:52,7,['2'],2,TMTstop-A_1_2linestimulus4.png,TMTstop-A_1_2greenlinestimulus4.png,TMTstop-A_1_2redlinestimulus4.png,TMT_A,2,32,None,2,,,,,,,,,0,1,1,1,0,6,6,6,,,,,,,,,,,,,,,,,,,,,,,,,,,,,,,,,,,,,,,2,0,60.84716919998755,75.69348400001763,None,"['1', '2']",1,"[0.0947143999801483, 0.16101629997137934]",75.69348400001763,None,,001,2022_May_11_1110,TMT_fmri,2021.2.3,59.94176058854945,
TMTstop-A_1_2.xlsx,26:52,8,['1'],1,TMTstop-A_1_2linestimulus5.png,TMTstop-A_1_2greenlinestimulus5.png,TMTstop-A_1_2redlinestimulus5.png,TMT_A,2,33,None,2,,,,,,,,,0,1,1,1,0,7,7,7,,,,,,,,,,,,,,,,,,,,,,,,,,,,,,,,,,,,,,,2,0,61.08221309998771,75.95333780001965,None,"['3', '1']",1,"[0.005277699994621798, 0.14847280000685714]",75.95333780001965,None,,001,2022_May_11_1110,TMT_fmri,2021.2.3,59.94176058854945,
TMTstop-A_1_2.xlsx,26:52,9,['3'],3,TMTstop-A_1_2linestimulus6.png,TMTstop-A_1_2greenlinestimulus6.png,TMTstop-A_1_2redlinestimulus6.png,TMT_A,2,34,None,2,,,,,,,,,0,1,1,1,0,8,8,8,,,,,,,,,,,,,,,,,,,,,,,,,,,,,,,,,,,,,,,1,1,61.21621340001002,76.18368129999726,None,['3'],1,[0.054987700015772134],76.18368129999726,None,,001,2022_May_11_1110,TMT_fmri,2021.2.3,59.94176058854945,
TMTstop-A_1_2.xlsx,26:52,10,['2'],2,TMTstop-A_1_2linestimulus7.png,TMTstop-A_1_2greenlinestimulus7.png,TMTstop-A_1_2redlinestimulus7.png,TMT_A,2,35,None,2,,,,,,,,,0,1,1,1,0,9,9,9,,,,,,,,,,,,,,,,,,,,,,,,,,,,,,,,,,,,,,,2,0,61.45020520000253,76.31781530001899,None,"['1', '2']",1,"[0.07852510001976043, 0.1737450000073295]",76.31781530001899,None,,001,2022_May_11_1110,TMT_fmri,2021.2.3,59.94176058854945,
TMTstop-A_1_2.xlsx,26:52,11,['1'],1,TMTstop-A_1_2linestimulus8.png,TMTstop-A_1_2greenlinestimulus8.png,TMTstop-A_1_2redlinestimulus8.png,TMT_A,2,36,None,2,,,,,,,,,0,1,1,1,0,10,10,10,,,,,,,,,,,,,,,,,,,,,,,,,,,,,,,,,,,,,,,2,0,61.66320809998433,76.55827870001667,None,"['3', '1']",1,"[0.020343100011814386, 0.14330860000336543]",76.55827870001667,None,,001,2022_May_11_1110,TMT_fmri,2021.2.3,59.94176058854945,
TMTstop-A_1_2.xlsx,26:52,12,['2'],2,TMTstop-A_1_2linestimulus9.png,TMTstop-A_1_2greenlinestimulus9.png,TMTstop-A_1_2redlinestimulus9.png,TMT_A,2,37,None,2,,,,,,,,,0,1,1,1,0,11,11,11,,,,,,,,,,,,,,,,,,,,,,,,,,,,,,,,,,,,,,,1,1,61.83031469999696,76.76452870000503,None,['2'],1,[0.10267550000571646],76.76452870000503,None,,001,2022_May_11_1110,TMT_fmri,2021.2.3,59.94176058854945,
TMTstop-A_1_2.xlsx,26:52,13,['1'],1,TMTstop-A_1_2linestimulus10.png,TMTstop-A_1_2greenlinestimulus10.png,TMTstop-A_1_2redlinestimulus10.png,TMT_A,2,38,None,2,,,,,,,,,0,1,1,1,0,12,12,12,,,,,,,,,,,,,,,,,,,,,,,,,,,,,,,,,,,,,,,2,0,62.05318210000405,76.93171699999948,None,"['3', '1']",1,"[0.005268999986583367, 0.1460957000090275]",76.93171699999948,None,,001,2022_May_11_1110,TMT_fmri,2021.2.3,59.94176058854945,
TMTstop-A_1_2.xlsx,26:52,14,['3'],3,TMTstop-A_1_2linestimulus11.png,TMTstop-A_1_2greenlinestimulus11.png,TMTstop-A_1_2redlinestimulus11.png,TMT_A,2,39,None,2,,,,,,,,,0,1,1,1,0,13,13,13,,,,,,,,,,,,,,,,,,,,,,,,,,,,,,,,,,,,,,,2,0,62.204071899992414,77.15538390001166,None,"['2', '3']",1,"[-0.019587600021623075, 0.10173809999832883]",77.15538390001166,None,,001,2022_May_11_1110,TMT_fmri,2021.2.3,59.94176058854945,
TMTstop-A_1_2.xlsx,26:52,15,['1'],1,TMTstop-A_1_2linestimulus12.png,TMTstop-A_1_2greenlinestimulus12.png,TMTstop-A_1_2redlinestimulus12.png,TMT_A,2,40,None,2,,,,,,,,,0,1,1,1,0,14,14,14,,,,,,,,,,,,,,,,,,,,,,,,,,,,,,,,,,,,,,,1,1,62.35426500000176,77.30546249999315,None,['1'],1,[0.09824680001474917],77.30546249999315,None,,001,2022_May_11_1110,TMT_fmri,2021.2.3,59.94176058854945,
TMTstop-A_1_2.xlsx,26:52,16,['3'],3,TMTstop-A_1_2linestimulus13.png,TMTstop-A_1_2greenlinestimulus13.png,TMTstop-A_1_2redlinestimulus13.png,TMT_A,2,41,None,2,,,,,,,,,0,1,1,1,0,15,15,15,,,,,,,,,,,,,,,,,,,,,,,,,,,,,,,,,,,,,,,2,0,62.5382055999944,77.45577890001005,None,"['2', '3']",1,"[0.03226169999106787, 0.12705819998518564]",77.45577890001005,None,,001,2022_May_11_1110,TMT_fmri,2021.2.3,59.94176058854945,
TMTstop-A_1_2.xlsx,26:52,17,['1'],1,TMTstop-A_1_2linestimulus14.png,TMTstop-A_1_2greenlinestimulus14.png,TMTstop-A_1_2redlinestimulus14.png,TMT_A,2,42,None,2,,,,,,,,,0,1,1,1,0,16,16,16,,,,,,,,,,,,,,,,,,,,,,,,,,,,,,,,,,,,,,,1,1,62.66120599998976,77.64558690000558,None,['1'],1,[0.06037240001023747],77.64558690000558,None,,001,2022_May_11_1110,TMT_fmri,2021.2.3,59.94176058854945,
TMTstop-A_1_2.xlsx,26:52,18,['2'],2,TMTstop-A_1_2linestimulus15.png,TMTstop-A_1_2greenlinestimulus15.png,TMTstop-A_1_2redlinestimulus15.png,TMT_A,2,43,None,2,,,,,,,,,0,1,1,1,0,17,17,17,,,,,,,,,,,,,,,,,,,,,,,,,,,,,,,,,,,,,,,1,1,62.71108939999249,77.76292559999274,None,['2'],1,[0.0007053999870549887],77.76292559999274,None,,001,2022_May_11_1110,TMT_fmri,2021.2.3,59.94176058854945,
TMTstop-A_1_2.xlsx,26:52,19,['1'],1,TMTstop-A_1_2linestimulus16.png,TMTstop-A_1_2greenlinestimulus16.png,TMTstop-A_1_2redlinestimulus16.png,TMT_A,2,44,None,2,,,,,,,,,0,1,1,1,0,18,18,18,,,,,,,,,,,,,,,,,,,,,,,,,,,,,,,,,,,,,,,2,0,63.0100523000001,77.81984380001086,None,"['3', '1']",1,"[0.06512610000208952, 0.20966950000729412]",77.81984380001086,None,,001,2022_May_11_1110,TMT_fmri,2021.2.3,59.94176058854945,
TMTstop-A_1_2.xlsx,26:52,20,['2'],2,TMTstop-A_1_2linestimulus17.png,TMTstop-A_1_2greenlinestimulus17.png,TMTstop-A_1_2redlinestimulus17.png,TMT_A,2,45,None,2,,,,,,,,,0,1,1,1,0,19,19,19,,,,,,,,,,,,,,,,,,,,,,,,,,,,,,,,,,,,,,,1,1,63.060184800007846,78.11185640000622,None,['2'],1,[-0.04628070001490414],78.11185640000622,None,,001,2022_May_11_1110,TMT_fmri,2021.2.3,59.94176058854945,
TMTstop-A_1_2.xlsx,26:52,21,['3'],3,TMTstop-A_1_2linestimulus18.png,TMTstop-A_1_2greenlinestimulus18.png,TMTstop-A_1_2redlinestimulus18.png,TMT_A,2,46,None,2,,,,,,,,,0,1,1,1,0,20,20,20,,,,,,,,,,,,,,,,,,,,,,,,,,,,,,,,,,,,,,,1,1,63.16033799998695,78.16178590001073,None,['3'],1,[0.03231200002483092],78.16178590001073,None,,001,2022_May_11_1110,TMT_fmri,2021.2.3,59.94176058854945,
TMTstop-A_1_2.xlsx,26:52,22,['2'],2,TMTstop-A_1_2linestimulus19.png,TMTstop-A_1_2greenlinestimulus19.png,TMTstop-A_1_2redlinestimulus19.png,TMT_A,2,47,None,2,,,,,,,,,0,1,1,1,0,21,21,21,,,,,,,,,,,,,,,,,,,,,,,,,,,,,,,,,,,,,,,2,0,63.35989239998162,78.26149890001398,None,"['1', '2']",1,"[0.09326379999401979, 0.14738429998396896]",78.26149890001398,None,,001,2022_May_11_1110,TMT_fmri,2021.2.3,59.94176058854945,
TMTstop-A_1_2.xlsx,26:52,23,['3'],3,TMTstop-A_1_2linestimulus20.png,TMTstop-A_1_2greenlinestimulus20.png,TMTstop-A_1_2redlinestimulus20.png,TMT_A,2,48,None,2,,,,,,,,,0,1,1,1,0,22,22,22,,,,,,,,,,,,,,,,,,,,,,,,,,,,,,,,,,,,,,,1,1,63.493963199987775,78.46174560001236,None,['3'],1,[0.0797422000032384],78.46174560001236,None,,001,2022_May_11_1110,TMT_fmri,2021.2.3,59.94176058854945,
TMTstop-A_1_2.xlsx,26:52,24,['2'],2,TMTstop-A_1_2linestimulus21.png,TMTstop-A_1_2greenlinestimulus21.png,TMTstop-A_1_2redlinestimulus21.png,TMT_A,2,49,None,2,,,,,,,,,0,1,1,1,0,23,23,23,,,,,,,,,,,,,,,,,,,,,,,,,,,,,,,,,,,,,,,2,0,63.69293910000124,78.60297350000474,None,"['1', '2']",1,"[0.07663660001708195, 0.11398039999767207]",78.60297350000474,None,,001,2022_May_11_1110,TMT_fmri,2021.2.3,59.94176058854945,
TMTstop-A_1_2.xlsx,26:52,25,['3'],3,TMTstop-A_1_2linestimulus22.png,TMTstop-A_1_2greenlinestimulus22.png,TMTstop-A_1_2redlinestimulus22.png,TMT_A,2,50,None,2,,,,,,,,,0,1,1,1,0,24,24,24,,,,,,,,,,,,,,,,,,,,,,,,,,,,,,,,,,,,,,,1,1,63.84309710000525,78.7947175000154,None,['3'],1,[0.087986099999398],78.7947175000154,None,,001,2022_May_11_1110,TMT_fmri,2021.2.3,59.94176058854945,
TMTstop-A_1_2.xlsx,26:52,None,None,None,TMTstop-A_1_2linestimulus23.png,TMTstop-A_1_2greenlinestimulus23.png,TMTstop-A_1_2redlinestimulus23.png,TMT_A,2,Feedback_last,None,2,,,,,,,,,0,1,1,1,0,25,25,25,,,,,,,,,,,,,,,,,,,,,,,,,,,,,,,,,,,,,,,3,0,,78.94440690000192,None,"['1', '2', '3']",0,"[0.07432230000267737, 0.11268649998237379, 0.2490457999811042]",78.94440690000192,None,,001,2022_May_11_1110,TMT_fmri,2021.2.3,59.94176058854945,
TMTstop-A_1_3.xlsx,52:78,1,['1'],1,TMTstop-A_1_3.png,TMTstop-A_1_3.png,TMTstop-A_1_3.png,TMT_A,3,51,None,2,,,,,,,,,0,2,2,2,0,0,0,0,,,,,,,,,,,,,,,,,,,,,,,,,,,,,,,,,,,,,,,2,0,68.69007389998296,83.10001960000955,None,"['2', '1']",1,"[0.5844114999927115, 0.6148638000013307]",83.10001960000955,None,,001,2022_May_11_1110,TMT_fmri,2021.2.3,59.94176058854945,
TMTstop-A_1_3.xlsx,52:78,2,['3'],3,TMTstop-A_1_3.png,TMTstop-A_1_3firstgreen.png,TMTstop-A_1_3firstred.png,TMT_A,3,52,None,2,,,,,,,,,0,2,2,2,0,1,1,1,,,,,,,,,,,,,,,,,,,,,,,,,,,,,,,,,,,,,,,1,1,68.85726610000711,83.79235999999219,None,['3'],1,[0.10560599999735132],83.79235999999219,None,,001,2022_May_11_1110,TMT_fmri,2021.2.3,59.94176058854945,
TMTstop-A_1_3.xlsx,52:78,3,['2'],2,TMTstop-A_1_3linestimulus0.png,TMTstop-A_1_3greenlinestimulus0.png,TMTstop-A_1_3redlinestimulus0.png,TMT_A,3,53,None,2,,,,,,,,,0,2,2,2,0,2,2,2,,,,,,,,,,,,,,,,,,,,,,,,,,,,,,,,,,,,,,,2,0,69.0989064000023,83.95907820001594,None,"['1', '2']",1,"[0.0835961000120733, 0.15148810000391677]",83.95907820001594,None,,001,2022_May_11_1110,TMT_fmri,2021.2.3,59.94176058854945,
TMTstop-A_1_3.xlsx,52:78,4,['3'],3,TMTstop-A_1_3linestimulus1.png,TMTstop-A_1_3greenlinestimulus1.png,TMTstop-A_1_3redlinestimulus1.png,TMT_A,3,54,None,2,,,,,,,,,0,2,2,2,0,3,3,3,,,,,,,,,,,,,,,,,,,,,,,,,,,,,,,,,,,,,,,1,1,69.20790400000988,84.20615280000493,None,['3'],1,[0.028231100004632026],84.20615280000493,None,,001,2022_May_11_1110,TMT_fmri,2021.2.3,59.94176058854945,
TMTstop-A_1_3.xlsx,52:78,5,['2'],2,TMTstop-A_1_3linestimulus2.png,TMTstop-A_1_3greenlinestimulus2.png,TMTstop-A_1_3redlinestimulus2.png,TMT_A,3,55,None,2,,,,,,,,,0,2,2,2,0,4,4,4,,,,,,,,,,,,,,,,,,,,,,,,,,,,,,,,,,,,,,,2,0,69.4268339999835,84.32380070001818,None,"['1', '2']",1,"[0.036896999983582646, 0.13884309999411926]",84.32380070001818,None,,001,2022_May_11_1110,TMT_fmri,2021.2.3,59.94176058854945,
TMTstop-A_1_3.xlsx,52:78,6,['1'],1,TMTstop-A_1_3linestimulus3.png,TMTstop-A_1_3greenlinestimulus3.png,TMTstop-A_1_3redlinestimulus3.png,TMT_A,3,56,None,2,,,,,,,,,0,2,2,2,0,5,5,5,,,,,,,,,,,,,,,,,,,,,,,,,,,,,,,,,,,,,,,2,0,69.65082350000739,84.54493360000197,None,"['3', '1']",1,"[0.0017477000073995441, 0.1494644999911543]",84.54493360000197,None,,001,2022_May_11_1110,TMT_fmri,2021.2.3,59.94176058854945,
TMTstop-A_1_3.xlsx,52:78,7,['3'],3,TMTstop-A_1_3linestimulus4.png,TMTstop-A_1_3greenlinestimulus4.png,TMTstop-A_1_3redlinestimulus4.png,TMT_A,3,57,None,2,,,,,,,,,0,2,2,2,0,6,6,6,,,,,,,,,,,,,,,,,,,,,,,,,,,,,,,,,,,,,,,2,0,69.83783089998178,84.75556580000557,None,"['2', '3']",1,"[0.02786450000712648, 0.10510340001201257]",84.75556580000557,None,,001,2022_May_11_1110,TMT_fmri,2021.2.3,59.94176058854945,
TMTstop-A_1_3.xlsx,52:78,8,['1'],1,TMTstop-A_1_3linestimulus5.png,TMTstop-A_1_3greenlinestimulus5.png,TMTstop-A_1_3redlinestimulus5.png,TMT_A,3,58,None,2,,,,,,,,,0,2,2,2,0,7,7,7,,,,,,,,,,,,,,,,,,,,,,,,,,,,,,,,,,,,,,,1,1,69.93793590000132,84.93867460000911,None,['1'],1,[0.03556010001921095],84.93867460000911,None,,001,2022_May_11_1110,TMT_fmri,2021.2.3,59.94176058854945,
TMTstop-A_1_3.xlsx,52:78,9,['3'],3,TMTstop-A_1_3linestimulus6.png,TMTstop-A_1_3greenlinestimulus6.png,TMTstop-A_1_3redlinestimulus6.png,TMT_A,3,59,None,2,,,,,,,,,0,2,2,2,0,8,8,8,,,,,,,,,,,,,,,,,,,,,,,,,,,,,,,,,,,,,,,2,0,70.11590720000095,85.0386519000167,None,"['2', '3']",1,"[0.004170100000919774, 0.1014689999865368]",85.0386519000167,None,,001,2022_May_11_1110,TMT_fmri,2021.2.3,59.94176058854945,
TMTstop-A_1_3.xlsx,52:78,10,['2'],2,TMTstop-A_1_3linestimulus7.png,TMTstop-A_1_3greenlinestimulus7.png,TMTstop-A_1_3redlinestimulus7.png,TMT_A,3,60,None,2,,,,,,,,,0,2,2,2,0,9,9,9,,,,,,,,,,,,,,,,,,,,,,,,,,,,,,,,,,,,,,,2,0,70.33911289999378,85.21725079999305,None,"['1', '2']",1,"[0.06400360001134686, 0.1512434000032954]",85.21725079999305,None,,001,2022_May_11_1110,TMT_fmri,2021.2.3,59.94176058854945,
TMTstop-A_1_3.xlsx,52:78,11,['3'],3,TMTstop-A_1_3linestimulus8.png,TMTstop-A_1_3greenlinestimulus8.png,TMTstop-A_1_3redlinestimulus8.png,TMT_A,3,61,None,2,,,,,,,,,0,2,2,2,0,10,10,10,,,,,,,,,,,,,,,,,,,,,,,,,,,,,,,,,,,,,,,1,1,70.41293520000181,85.44743709999602,None,['3'],1,[0.004521399998338893],85.44743709999602,None,,001,2022_May_11_1110,TMT_fmri,2021.2.3,59.94176058854945,
TMTstop-A_1_3.xlsx,52:78,12,['2'],2,TMTstop-A_1_3linestimulus9.png,TMTstop-A_1_3greenlinestimulus9.png,TMTstop-A_1_3redlinestimulus9.png,TMT_A,3,62,None,2,,,,,,,,,0,2,2,2,0,11,11,11,,,,,,,,,,,,,,,,,,,,,,,,,,,,,,,,,,,,,,,2,0,70.65790759999072,85.52176150001469,None,"['1', '2']",1,"[0.07745489999069832, 0.16921799999545328]",85.52176150001469,None,,001,2022_May_11_1110,TMT_fmri,2021.2.3,59.94176058854945,
TMTstop-A_1_3.xlsx,52:78,13,['1'],1,TMTstop-A_1_3linestimulus10.png,TMTstop-A_1_3greenlinestimulus10.png,TMTstop-A_1_3redlinestimulus10.png,TMT_A,3,63,None,2,,,,,,,,,0,2,2,2,0,12,12,12,,,,,,,,,,,,,,,,,,,,,,,,,,,,,,,,,,,,,,,2,0,70.91561930000898,85.76665209999192,None,"['3', '1']",1,"[0.020771000010427088, 0.1571103000023868]",85.76665209999192,None,,001,2022_May_11_1110,TMT_fmri,2021.2.3,59.94176058854945,
TMTstop-A_1_3.xlsx,52:78,14,['2'],2,TMTstop-A_1_3linestimulus11.png,TMTstop-A_1_3greenlinestimulus11.png,TMTstop-A_1_3redlinestimulus11.png,TMT_A,3,64,None,2,,,,,,,,,0,2,2,2,0,13,13,13,,,,,,,,,,,,,,,,,,,,,,,,,,,,,,,,,,,,,,,1,1,70.96553769998718,86.0168096999987,None,['2'],1,[-0.032625499996356666],86.0168096999987,None,,001,2022_May_11_1110,TMT_fmri,2021.2.3,59.94176058854945,
TMTstop-A_1_3.xlsx,52:78,15,['3'],3,TMTstop-A_1_3linestimulus12.png,TMTstop-A_1_3greenlinestimulus12.png,TMTstop-A_1_3redlinestimulus12.png,TMT_A,3,65,None,2,,,,,,,,,0,2,2,2,0,14,14,14,,,,,,,,,,,,,,,,,,,,,,,,,,,,,,,,,,,,,,,1,1,71.06554630000028,86.06685120001202,None,['3'],1,[0.03776340000331402],86.06685120001202,None,,001,2022_May_11_1110,TMT_fmri,2021.2.3,59.94176058854945,
TMTstop-A_1_3.xlsx,52:78,16,['2'],2,TMTstop-A_1_3linestimulus13.png,TMTstop-A_1_3greenlinestimulus13.png,TMTstop-A_1_3redlinestimulus13.png,TMT_A,3,66,None,2,,,,,,,,,0,2,2,2,0,15,15,15,,,,,,,,,,,,,,,,,,,,,,,,,,,,,,,,,,,,,,,2,0,71.3155099999858,86.16694039999857,None,"['1', '2']",1,"[0.08844620001036674, 0.15328699999372475]",86.16694039999857,None,,001,2022_May_11_1110,TMT_fmri,2021.2.3,59.94176058854945,
TMTstop-A_1_3.xlsx,52:78,17,['3'],3,TMTstop-A_1_3linestimulus14.png,TMTstop-A_1_3greenlinestimulus14.png,TMTstop-A_1_3redlinestimulus14.png,TMT_A,3,67,None,2,,,,,,,,,0,2,2,2,0,16,16,16,,,,,,,,,,,,,,,,,,,,,,,,,,,,,,,,,,,,,,,1,1,71.40855339998961,86.42421369999647,None,['3'],1,[0.008100500010186806],86.42421369999647,None,,001,2022_May_11_1110,TMT_fmri,2021.2.3,59.94176058854945,
TMTstop-A_1_3.xlsx,52:78,18,['2'],2,TMTstop-A_1_3linestimulus15.png,TMTstop-A_1_3greenlinestimulus15.png,TMTstop-A_1_3redlinestimulus15.png,TMT_A,3,68,None,2,,,,,,,,,0,2,2,2,0,17,17,17,,,,,,,,,,,,,,,,,,,,,,,,,,,,,,,,,,,,,,,2,0,71.61354349998874,86.51434490000247,None,"['1', '2']",1,"[0.042798399983439595, 0.14008949999697506]",86.51434490000247,None,,001,2022_May_11_1110,TMT_fmri,2021.2.3,59.94176058854945,
TMTstop-A_1_3.xlsx,52:78,19,['3'],3,TMTstop-A_1_3linestimulus16.png,TMTstop-A_1_3greenlinestimulus16.png,TMTstop-A_1_3redlinestimulus16.png,TMT_A,3,69,None,2,,,,,,,,,0,2,2,2,0,18,18,18,,,,,,,,,,,,,,,,,,,,,,,,,,,,,,,,,,,,,,,1,1,71.71267179999268,86.71450980001828,None,['3'],1,[0.03492989999358542],86.71450980001828,None,,001,2022_May_11_1110,TMT_fmri,2021.2.3,59.94176058854945,
TMTstop-A_1_3.xlsx,52:78,20,['1'],1,TMTstop-A_1_3linestimulus17.png,TMTstop-A_1_3greenlinestimulus17.png,TMTstop-A_1_3redlinestimulus17.png,TMT_A,3,70,None,2,,,,,,,,,0,2,2,2,0,19,19,19,,,,,,,,,,,,,,,,,,,,,,,,,,,,,,,,,,,,,,,1,1,71.87948340000003,86.81463030001032,None,['1'],1,[0.110987699998077],86.81463030001032,None,,001,2022_May_11_1110,TMT_fmri,2021.2.3,59.94176058854945,
TMTstop-A_1_3.xlsx,52:78,21,['2'],2,TMTstop-A_1_3linestimulus18.png,TMTstop-A_1_3greenlinestimulus18.png,TMTstop-A_1_3redlinestimulus18.png,TMT_A,3,71,None,2,,,,,,,,,0,2,2,2,0,20,20,20,,,,,,,,,,,,,,,,,,,,,,,,,,,,,,,,,,,,,,,1,1,71.94649810000556,86.98098340001889,None,['2'],1,[0.01104380001197569],86.98098340001889,None,,001,2022_May_11_1110,TMT_fmri,2021.2.3,59.94176058854945,
TMTstop-A_1_3.xlsx,52:78,22,['3'],3,TMTstop-A_1_3linestimulus19.png,TMTstop-A_1_3greenlinestimulus19.png,TMTstop-A_1_3redlinestimulus19.png,TMT_A,3,72,None,2,,,,,,,,,0,2,2,2,0,21,21,21,,,,,,,,,,,,,,,,,,,,,,,,,,,,,,,,,,,,,,,1,1,72.06349669999327,87.04823320001015,None,['3'],1,[0.058887299994239584],87.04823320001015,None,,001,2022_May_11_1110,TMT_fmri,2021.2.3,59.94176058854945,
TMTstop-A_1_3.xlsx,52:78,23,['2'],2,TMTstop-A_1_3linestimulus20.png,TMTstop-A_1_3greenlinestimulus20.png,TMTstop-A_1_3redlinestimulus20.png,TMT_A,3,73,None,2,,,,,,,,,0,2,2,2,0,22,22,22,,,,,,,,,,,,,,,,,,,,,,,,,,,,,,,,,,,,,,,2,0,72.25449409999419,87.16508560001967,None,"['1', '2']",1,"[0.080960999999661, 0.1395265000173822]",87.16508560001967,None,,001,2022_May_11_1110,TMT_fmri,2021.2.3,59.94176058854945,
TMTstop-A_1_3.xlsx,52:78,24,['1'],1,TMTstop-A_1_3linestimulus21.png,TMTstop-A_1_3greenlinestimulus21.png,TMTstop-A_1_3redlinestimulus21.png,TMT_A,3,74,None,2,,,,,,,,,0,2,2,2,0,23,23,23,,,,,,,,,,,,,,,,,,,,,,,,,,,,,,,,,,,,,,,2,0,72.53248219998204,87.35634100000607,None,"['3', '1']",1,"[0.053405100014060736, 0.2113666000077501]",87.35634100000607,None,,001,2022_May_11_1110,TMT_fmri,2021.2.3,59.94176058854945,
TMTstop-A_1_3.xlsx,52:78,25,['2'],2,TMTstop-A_1_3linestimulus22.png,TMTstop-A_1_3greenlinestimulus22.png,TMTstop-A_1_3redlinestimulus22.png,TMT_A,3,75,None,2,,,,,,,,,0,2,2,2,0,24,24,24,,,,,,,,,,,,,,,,,,,,,,,,,,,,,,,,,,,,,,,1,1,72.6326676000026,87.6337152000051,None,['2'],1,[0.024966099997982383],87.6337152000051,None,,001,2022_May_11_1110,TMT_fmri,2021.2.3,59.94176058854945,
TMTstop-A_1_3.xlsx,52:78,None,None,None,TMTstop-A_1_3linestimulus23.png,TMTstop-A_1_3greenlinestimulus23.png,TMTstop-A_1_3redlinestimulus23.png,TMT_A,3,Feedback_last,None,2,,,,,,,,,0,2,2,2,0,25,25,25,,,,,,,,,,,,,,,,,,,,,,,,,,,,,,,,,,,,,,,3,0,,87.73377479999908,None,"['3', '1', '2']",0,"[0.024509199982276186, 0.15976529999170452, 0.3736260999867227]",87.73377479999908,None,,001,2022_May_11_1110,TMT_fmri,2021.2.3,59.94176058854945,
TMTstop-B_1_1.xlsx,0:26,1,['3'],3,TMTstop-B_1_1.png,TMTstop-B_1_1.png,TMTstop-B_1_1.png,TMT_B,1,1,1,3,,,,,,,,,,,,,,,,,0,0,0,0,0,0,0,0,,,,,,,,,,,,,,,,,,,,,,,,,,,,,,,2,0,87.49554179998813,101.92207780000172,None,"['2', '3']",1,"[0.5557435000082478, 0.6106386000174098]",101.92207780000172,None,,001,2022_May_11_1110,TMT_fmri,2021.2.3,59.94176058854945,
TMTstop-B_1_1.xlsx,0:26,A,['1'],1,TMTstop-B_1_1.png,TMTstop-B_1_1firstgreen.png,TMTstop-B_1_1firstred.png,TMT_B,1,2,None,3,,,,,,,,,,,,,,,,,0,0,0,0,0,1,1,1,,,,,,,,,,,,,,,,,,,,,,,,,,,,,,,1,1,87.66263959999196,102.59666060001473,None,['1'],1,[0.11305749998427927],102.59666060001473,None,,001,2022_May_11_1110,TMT_fmri,2021.2.3,59.94176058854945,
TMTstop-B_1_1.xlsx,0:26,2,['3'],3,TMTstop-B_1_1linestimulus0.png,TMTstop-B_1_1greenlinestimulus0.png,TMTstop-B_1_1redlinestimulus0.png,TMT_B,1,3,None,3,,,,,,,,,,,,,,,,,0,0,0,0,0,2,2,2,,,,,,,,,,,,,,,,,,,,,,,,,,,,,,,2,0,87.82438159998856,102.77185499999905,None,"['2', '3']",1,"[-0.013770300021860749, 0.07978719999664463]",102.77185499999905,None,,001,2022_May_11_1110,TMT_fmri,2021.2.3,59.94176058854945,
TMTstop-B_1_1.xlsx,0:26,B,['2'],2,TMTstop-B_1_1linestimulus1.png,TMTstop-B_1_1greenlinestimulus1.png,TMTstop-B_1_1redlinestimulus1.png,TMT_B,1,4,None,3,,,,,,,,,,,,,,,,,0,0,0,0,0,3,3,3,,,,,,,,,,,,,,,,,,,,,,,,,,,,,,,2,0,88.03638720000163,102.93009070001426,None,"['1', '2']",1,"[0.051381400000536814, 0.10446309999679215]",102.93009070001426,None,,001,2022_May_11_1110,TMT_fmri,2021.2.3,59.94176058854945,
TMTstop-B_1_1.xlsx,0:26,3,['1'],1,TMTstop-B_1_1linestimulus2.png,TMTstop-B_1_1greenlinestimulus2.png,TMTstop-B_1_1redlinestimulus2.png,TMT_B,1,5,None,3,,,,,,,,,,,,,,,,,0,0,0,0,0,4,4,4,,,,,,,,,,,,,,,,,,,,,,,,,,,,,,,2,0,88.2364227999933,103.1372137000144,None,"['3', '1']",1,"[-0.005105500022182241, 0.14245549999759533]",103.1372137000144,None,,001,2022_May_11_1110,TMT_fmri,2021.2.3,59.94176058854945,
TMTstop-B_1_1.xlsx,0:26,C,['3'],3,TMTstop-B_1_1linestimulus3.png,TMTstop-B_1_1greenlinestimulus3.png,TMTstop-B_1_1redlinestimulus3.png,TMT_B,1,6,None,3,,,,,,,,,,,,,,,,,0,0,0,0,0,5,5,5,,,,,,,,,,,,,,,,,,,,,,,,,,,,,,,2,0,88.42340679999324,103.33741659999941,None,"['2', '3']",1,"[0.025019500026246533, 0.0945073000038974]",103.33741659999941,None,,001,2022_May_11_1110,TMT_fmri,2021.2.3,59.94176058854945,
TMTstop-B_1_1.xlsx,0:26,4,['2'],2,TMTstop-B_1_1linestimulus4.png,TMTstop-B_1_1greenlinestimulus4.png,TMTstop-B_1_1redlinestimulus4.png,TMT_B,1,7,None,3,,,,,,,,,,,,,,,,,0,0,0,0,0,6,6,6,,,,,,,,,,,,,,,,,,,,,,,,,,,,,,,2,0,88.61141599999974,103.5254208999977,None,"['1', '2']",1,"[0.03372390000731684, 0.13591710000764579]",103.5254208999977,None,,001,2022_May_11_1110,TMT_fmri,2021.2.3,59.94176058854945,
TMTstop-B_1_1.xlsx,0:26,D,['1'],1,TMTstop-B_1_1linestimulus5.png,TMTstop-B_1_1greenlinestimulus5.png,TMTstop-B_1_1redlinestimulus5.png,TMT_B,1,8,None,3,,,,,,,,,,,,,,,,,0,0,0,0,0,7,7,7,,,,,,,,,,,,,,,,,,,,,,,,,,,,,,,1,1,88.8454034999886,103.71260960001382,None,['1'],1,[0.1720123999984935],103.71260960001382,None,,001,2022_May_11_1110,TMT_fmri,2021.2.3,59.94176058854945,
TMTstop-B_1_1.xlsx,0:26,5,['3'],3,TMTstop-B_1_1linestimulus6.png,TMTstop-B_1_1greenlinestimulus6.png,TMTstop-B_1_1redlinestimulus6.png,TMT_B,1,9,None,3,,,,,,,,,,,,,,,,,0,0,0,0,0,8,8,8,,,,,,,,,,,,,,,,,,,,,,,,,,,,,,,2,0,89.02347119999467,103.95468830000027,None,"['2', '3']",1,"[0.012560500006657094, 0.09354659999371506]",103.95468830000027,None,,001,2022_May_11_1110,TMT_fmri,2021.2.3,59.94176058854945,
TMTstop-B_1_1.xlsx,0:26,E,['1'],1,TMTstop-B_1_1linestimulus7.png,TMTstop-B_1_1greenlinestimulus7.png,TMTstop-B_1_1redlinestimulus7.png,TMT_B,1,10,None,3,,,,,,,,,,,,,,,,,0,0,0,0,0,9,9,9,,,,,,,,,,,,,,,,,,,,,,,,,,,,,,,1,1,89.16354599999613,104.13226670000586,None,['1'],1,[0.07757090000086464],104.13226670000586,None,,001,2022_May_11_1110,TMT_fmri,2021.2.3,59.94176058854945,
TMTstop-B_1_1.xlsx,0:26,6,['3'],3,TMTstop-B_1_1linestimulus8.png,TMTstop-B_1_1greenlinestimulus8.png,TMTstop-B_1_1redlinestimulus8.png,TMT_B,1,11,None,3,,,,,,,,,,,,,,,,,0,0,0,0,0,10,10,10,,,,,,,,,,,,,,,,,,,,,,,,,,,,,,,2,0,89.32542049998301,104.26571320000221,None,"['2', '3']",1,"[-0.0058242000231985, 0.09521189998486079]",104.26571320000221,None,,001,2022_May_11_1110,TMT_fmri,2021.2.3,59.94176058854945,
TMTstop-B_1_1.xlsx,0:26,F,['1'],1,TMTstop-B_1_1linestimulus9.png,TMTstop-B_1_1greenlinestimulus9.png,TMTstop-B_1_1redlinestimulus9.png,TMT_B,1,12,None,3,,,,,,,,,,,,,,,,,0,0,0,0,0,11,11,11,,,,,,,,,,,,,,,,,,,,,,,,,,,,,,,1,1,89.47555569998804,104.42734389999532,None,['1'],1,[0.08990489999996498],104.42734389999532,None,,001,2022_May_11_1110,TMT_fmri,2021.2.3,59.94176058854945,
TMTstop-B_1_1.xlsx,0:26,7,['3'],3,TMTstop-B_1_1linestimulus10.png,TMTstop-B_1_1greenlinestimulus10.png,TMTstop-B_1_1redlinestimulus10.png,TMT_B,1,13,None,3,,,,,,,,,,,,,,,,,0,0,0,0,0,12,12,12,,,,,,,,,,,,,,,,,,,,,,,,,,,,,,,2,0,89.689409899991,104.5773928000126,None,"['2', '3']",1,"[-8.550001075491309e-05, 0.11760119997779839]",104.5773928000126,None,,001,2022_May_11_1110,TMT_fmri,2021.2.3,59.94176058854945,
TMTstop-B_1_1.xlsx,0:26,G,['2'],2,TMTstop-B_1_1linestimulus11.png,TMTstop-B_1_1greenlinestimulus11.png,TMTstop-B_1_1redlinestimulus11.png,TMT_B,1,14,None,3,,,,,,,,,,,,,,,,,0,0,0,0,0,13,13,13,,,,,,,,,,,,,,,,,,,,,,,,,,,,,,,2,0,89.92229819999193,104.79056290001608,None,"['1', '2']",1,"[0.07497149999835528, 0.14470959999016486]",104.79056290001608,None,,001,2022_May_11_1110,TMT_fmri,2021.2.3,59.94176058854945,
TMTstop-B_1_1.xlsx,0:26,8,['3'],3,TMTstop-B_1_1linestimulus12.png,TMTstop-B_1_1greenlinestimulus12.png,TMTstop-B_1_1redlinestimulus12.png,TMT_B,1,15,None,3,,,,,,,,,,,,,,,,,0,0,0,0,0,14,14,14,,,,,,,,,,,,,,,,,,,,,,,,,,,,,,,1,1,89.9964248999895,105.03109160001623,None,['3'],1,[0.005618800001684576],105.03109160001623,None,,001,2022_May_11_1110,TMT_fmri,2021.2.3,59.94176058854945,
TMTstop-B_1_1.xlsx,0:26,H,['1'],1,TMTstop-B_1_1linestimulus13.png,TMTstop-B_1_1greenlinestimulus13.png,TMTstop-B_1_1redlinestimulus13.png,TMT_B,1,16,None,3,,,,,,,,,,,,,,,,,0,0,0,0,0,15,15,15,,,,,,,,,,,,,,,,,,,,,,,,,,,,,,,1,1,90.13651680000476,105.10481710001477,None,['1'],1,[0.07770119997439906],105.10481710001477,None,,001,2022_May_11_1110,TMT_fmri,2021.2.3,59.94176058854945,
TMTstop-B_1_1.xlsx,0:26,9,['3'],3,TMTstop-B_1_1linestimulus14.png,TMTstop-B_1_1greenlinestimulus14.png,TMTstop-B_1_1redlinestimulus14.png,TMT_B,1,17,None,3,,,,,,,,,,,,,,,,,0,0,0,0,0,16,16,16,,,,,,,,,,,,,,,,,,,,,,,,,,,,,,,2,0,90.32930049998686,105.23827560001519,None,"['2', '3']",1,"[-0.00647019999451004, 0.12287190000643022]",105.23827560001519,None,,001,2022_May_11_1110,TMT_fmri,2021.2.3,59.94176058854945,
TMTstop-B_1_1.xlsx,0:26,I,['2'],2,TMTstop-B_1_1linestimulus15.png,TMTstop-B_1_1greenlinestimulus15.png,TMTstop-B_1_1redlinestimulus15.png,TMT_B,1,18,None,3,,,,,,,,,,,,,,,,,0,0,0,0,0,17,17,17,,,,,,,,,,,,,,,,,,,,,,,,,,,,,,,2,0,90.52834309998434,105.42860050001764,None,"['1', '2']",1,"[0.10057889999006875, 0.13780450000194833]",105.42860050001764,None,,001,2022_May_11_1110,TMT_fmri,2021.2.3,59.94176058854945,
TMTstop-B_1_1.xlsx,0:26,10,['3'],3,TMTstop-B_1_1linestimulus16.png,TMTstop-B_1_1greenlinestimulus16.png,TMTstop-B_1_1redlinestimulus16.png,TMT_B,1,19,None,3,,,,,,,,,,,,,,,,,0,0,0,0,0,18,18,18,,,,,,,,,,,,,,,,,,,,,,,,,,,,,,,1,1,90.65142650000053,105.63591290000477,None,['3'],1,[0.06746620000922121],105.63591290000477,None,,001,2022_May_11_1110,TMT_fmri,2021.2.3,59.94176058854945,
TMTstop-B_1_1.xlsx,0:26,J,['2'],2,TMTstop-B_1_1linestimulus17.png,TMTstop-B_1_1greenlinestimulus17.png,TMTstop-B_1_1redlinestimulus17.png,TMT_B,1,20,None,3,,,,,,,,,,,,,,,,,0,0,0,0,0,19,19,19,,,,,,,,,,,,,,,,,,,,,,,,,,,,,,,2,0,90.91841250000289,105.75243860000046,None,"['1', '2']",1,"[0.10911930000293069, 0.20461820001946762]",105.75243860000046,None,,001,2022_May_11_1110,TMT_fmri,2021.2.3,59.94176058854945,
TMTstop-B_1_1.xlsx,0:26,11,['1'],1,TMTstop-B_1_1linestimulus18.png,TMTstop-B_1_1greenlinestimulus18.png,TMTstop-B_1_1redlinestimulus18.png,TMT_B,1,21,None,3,,,,,,,,,,,,,,,,,0,0,0,0,0,20,20,20,,,,,,,,,,,,,,,,,,,,,,,,,,,,,,,2,0,91.1793830000097,106.02564639999764,None,"['3', '1']",1,"[0.027619300002697855, 0.1798541999887675]",106.02564639999764,None,,001,2022_May_11_1110,TMT_fmri,2021.2.3,59.94176058854945,
TMTstop-B_1_1.xlsx,0:26,K,['2'],2,TMTstop-B_1_1linestimulus19.png,TMTstop-B_1_1greenlinestimulus19.png,TMTstop-B_1_1redlinestimulus19.png,TMT_B,1,22,None,3,,,,,,,,,,,,,,,,,0,0,0,0,0,21,21,21,,,,,,,,,,,,,,,,,,,,,,,,,,,,,,,1,1,91.22938279999653,106.28058910000254,None,['2'],1,[-0.016640900023048744],106.28058910000254,None,,001,2022_May_11_1110,TMT_fmri,2021.2.3,59.94176058854945,
TMTstop-B_1_1.xlsx,0:26,12,['1'],1,TMTstop-B_1_1linestimulus20.png,TMTstop-B_1_1greenlinestimulus20.png,TMTstop-B_1_1redlinestimulus20.png,TMT_B,1,23,None,3,,,,,,,,,,,,,,,,,0,0,0,0,0,22,22,22,,,,,,,,,,,,,,,,,,,,,,,,,,,,,,,2,0,91.47940839998773,106.33105390000856,None,"['3', '1']",1,"[0.03899110000929795, 0.1846750999975484]",106.33105390000856,None,,001,2022_May_11_1110,TMT_fmri,2021.2.3,59.94176058854945,
TMTstop-B_1_1.xlsx,0:26,L,['2'],2,TMTstop-B_1_1linestimulus21.png,TMTstop-B_1_1greenlinestimulus21.png,TMTstop-B_1_1redlinestimulus21.png,TMT_B,1,24,None,3,,,,,,,,,,,,,,,,,0,0,0,0,0,23,23,23,,,,,,,,,,,,,,,,,,,,,,,,,,,,,,,1,1,91.52941240000655,106.58105350000551,None,['2'],1,[-0.013850599993020296],106.58105350000551,None,,001,2022_May_11_1110,TMT_fmri,2021.2.3,59.94176058854945,
TMTstop-B_1_1.xlsx,0:26,13,['1'],1,TMTstop-B_1_1linestimulus22.png,TMTstop-B_1_1greenlinestimulus22.png,TMTstop-B_1_1redlinestimulus22.png,TMT_B,1,25,None,3,,,,,,,,,,,,,,,,,0,0,0,0,0,24,24,24,,,,,,,,,,,,,,,,,,,,,,,,,,,,,,,2,0,91.83541420000256,106.6314071000088,None,"['3', '1']",1,"[0.09493389999261126, 0.2515720999799669]",106.6314071000088,None,,001,2022_May_11_1110,TMT_fmri,2021.2.3,59.94176058854945,
TMTstop-B_1_1.xlsx,0:26,None,None,None,TMTstop-B_1_1linestimulus23.png,TMTstop-B_1_1greenlinestimulus23.png,TMTstop-B_1_1redlinestimulus23.png,TMT_B,1,Feedback_last,None,3,,,,,,,,,,,,,,,,,0,0,0,0,0,25,25,25,,,,,,,,,,,,,,,,,,,,,,,,,,,,,,,0,0,,106.94060870000976,None,None,1,,106.94060870000976,None,,001,2022_May_11_1110,TMT_fmri,2021.2.3,59.94176058854945,
TMTstop-B_1_2.xlsx,26:52,1,['1'],1,TMTstop-B_1_2.png,TMTstop-B_1_2.png,TMTstop-B_1_2.png,TMT_B,2,26,None,3,,,,,,,,,,,,,,,,,0,1,1,1,0,0,0,0,,,,,,,,,,,,,,,,,,,,,,,,,,,,,,,1,1,96.53368970000884,111.01779990000068,None,['1'],1,[0.5683634000015445],111.01779990000068,None,,001,2022_May_11_1110,TMT_fmri,2021.2.3,59.94176058854945,
TMTstop-B_1_2.xlsx,26:52,A,['2'],2,TMTstop-B_1_2.png,TMTstop-B_1_2firstgreen.png,TMTstop-B_1_2firstred.png,TMT_B,2,27,None,3,,,,,,,,,,,,,,,,,0,1,1,1,0,1,1,1,,,,,,,,,,,,,,,,,,,,,,,,,,,,,,,1,1,96.64168329999666,111.64320640001097,None,['2'],1,[0.049889099987922236],111.64320640001097,None,,001,2022_May_11_1110,TMT_fmri,2021.2.3,59.94176058854945,
TMTstop-B_1_2.xlsx,26:52,2,['1'],1,TMTstop-B_1_2linestimulus0.png,TMTstop-B_1_2greenlinestimulus0.png,TMTstop-B_1_2redlinestimulus0.png,TMT_B,2,28,None,3,,,,,,,,,,,,,,,,,0,1,1,1,0,2,2,2,,,,,,,,,,,,,,,,,,,,,,,,,,,,,,,2,0,96.88178920000792,111.74321089999285,None,"['3', '1']",1,"[0.017874400014989078, 0.15727150000748225]",111.74321089999285,None,,001,2022_May_11_1110,TMT_fmri,2021.2.3,59.94176058854945,
TMTstop-B_1_2.xlsx,26:52,B,['2'],2,TMTstop-B_1_2linestimulus1.png,TMTstop-B_1_2greenlinestimulus1.png,TMTstop-B_1_2redlinestimulus1.png,TMT_B,2,29,None,3,,,,,,,,,,,,,,,,,0,1,1,1,0,3,3,3,,,,,,,,,,,,,,,,,,,,,,,,,,,,,,,1,1,96.93169440000202,111.98343029999523,None,['2'],1,[-0.009297999989939854],111.98343029999523,None,,001,2022_May_11_1110,TMT_fmri,2021.2.3,59.94176058854945,
TMTstop-B_1_2.xlsx,26:52,3,['1'],1,TMTstop-B_1_2linestimulus2.png,TMTstop-B_1_2greenlinestimulus2.png,TMTstop-B_1_2redlinestimulus2.png,TMT_B,2,30,None,3,,,,,,,,,,,,,,,,,0,1,1,1,0,4,4,4,,,,,,,,,,,,,,,,,,,,,,,,,,,,,,,2,0,97.18866939999862,112.03313990001334,None,"['3', '1']",1,"[0.03074619997642003, 0.18248469999525696]",112.03313990001334,None,,001,2022_May_11_1110,TMT_fmri,2021.2.3,59.94176058854945,
TMTstop-B_1_2.xlsx,26:52,C,['3'],3,TMTstop-B_1_2linestimulus3.png,TMTstop-B_1_2greenlinestimulus3.png,TMTstop-B_1_2redlinestimulus3.png,TMT_B,2,31,None,3,,,,,,,,,,,,,,,,,0,1,1,1,0,5,5,5,,,,,,,,,,,,,,,,,,,,,,,,,,,,,,,2,0,97.36266939999769,112.29005470001721,None,"['2', '3']",1,"[0.00280620000557974, 0.10088910002377816]",112.29005470001721,None,,001,2022_May_11_1110,TMT_fmri,2021.2.3,59.94176058854945,
TMTstop-B_1_2.xlsx,26:52,4,['2'],2,TMTstop-B_1_2linestimulus4.png,TMTstop-B_1_2greenlinestimulus4.png,TMTstop-B_1_2redlinestimulus4.png,TMT_B,2,32,None,3,,,,,,,,,,,,,,,,,0,1,1,1,0,6,6,6,,,,,,,,,,,,,,,,,,,,,,,,,,,,,,,1,1,97.56268539998564,112.46446879999712,None,['2'],1,[0.14433260000078008],112.46446879999712,None,,001,2022_May_11_1110,TMT_fmri,2021.2.3,59.94176058854945,
TMTstop-B_1_2.xlsx,26:52,D,['1'],1,TMTstop-B_1_2linestimulus5.png,TMTstop-B_1_2greenlinestimulus5.png,TMTstop-B_1_2redlinestimulus5.png,TMT_B,2,33,None,3,,,,,,,,,,,,,,,,,0,1,1,1,0,7,7,7,,,,,,,,,,,,,,,,,,,,,,,,,,,,,,,2,0,97.81065050000325,112.6722675000201,None,"['3', '1']",1,"[0.019914700009394437, 0.18261429999256507]",112.6722675000201,None,,001,2022_May_11_1110,TMT_fmri,2021.2.3,59.94176058854945,
TMTstop-B_1_2.xlsx,26:52,5,['2'],2,TMTstop-B_1_2linestimulus6.png,TMTstop-B_1_2greenlinestimulus6.png,TMTstop-B_1_2redlinestimulus6.png,TMT_B,2,34,None,3,,,,,,,,,,,,,,,,,0,1,1,1,0,8,8,8,,,,,,,,,,,,,,,,,,,,,,,,,,,,,,,1,1,97.9175627999939,112.9189430999977,None,['2'],1,[0.021067299996502697],112.9189430999977,None,,001,2022_May_11_1110,TMT_fmri,2021.2.3,59.94176058854945,
TMTstop-B_1_2.xlsx,26:52,E,['3'],3,TMTstop-B_1_2linestimulus7.png,TMTstop-B_1_2greenlinestimulus7.png,TMTstop-B_1_2redlinestimulus7.png,TMT_B,2,35,None,3,,,,,,,,,,,,,,,,,0,1,1,1,0,9,9,9,,,,,,,,,,,,,,,,,,,,,,,,,,,,,,,1,1,97.98469889999251,113.01922250000644,None,['3'],1,[0.013803500012727454],113.01922250000644,None,,001,2022_May_11_1110,TMT_fmri,2021.2.3,59.94176058854945,
TMTstop-B_1_2.xlsx,26:52,6,['1'],1,TMTstop-B_1_2linestimulus8.png,TMTstop-B_1_2greenlinestimulus8.png,TMTstop-B_1_2redlinestimulus8.png,TMT_B,2,36,None,3,,,,,,,,,,,,,,,,,0,1,1,1,0,10,10,10,,,,,,,,,,,,,,,,,,,,,,,,,,,,,,,1,1,98.1596819999977,113.09053030001814,None,['1'],1,[0.11542420001933351],113.09053030001814,None,,001,2022_May_11_1110,TMT_fmri,2021.2.3,59.94176058854945,
TMTstop-B_1_2.xlsx,26:52,F,['3'],3,TMTstop-B_1_2linestimulus9.png,TMTstop-B_1_2greenlinestimulus9.png,TMTstop-B_1_2redlinestimulus9.png,TMT_B,2,37,None,3,,,,,,,,,,,,,,,,,0,1,1,1,0,11,11,11,,,,,,,,,,,,,,,,,,,,,,,,,,,,,,,2,0,98.319696999999,113.26134630001616,None,"['2', '3']",1,"[-5.7600002037361264e-05, 0.10430730000371113]",113.26134630001616,None,,001,2022_May_11_1110,TMT_fmri,2021.2.3,59.94176058854945,
TMTstop-B_1_2.xlsx,26:52,7,['1'],1,TMTstop-B_1_2linestimulus10.png,TMTstop-B_1_2greenlinestimulus10.png,TMTstop-B_1_2redlinestimulus10.png,TMT_B,2,38,None,3,,,,,,,,,,,,,,,,,0,1,1,1,0,12,12,12,,,,,,,,,,,,,,,,,,,,,,,,,,,,,,,1,1,98.47067979999701,113.4219071000116,None,['1'],1,[0.09515609999652952],113.4219071000116,None,,001,2022_May_11_1110,TMT_fmri,2021.2.3,59.94176058854945,
TMTstop-B_1_2.xlsx,26:52,G,['2'],2,TMTstop-B_1_2linestimulus11.png,TMTstop-B_1_2greenlinestimulus11.png,TMTstop-B_1_2redlinestimulus11.png,TMT_B,2,39,None,3,,,,,,,,,,,,,,,,,0,1,1,1,0,13,13,13,,,,,,,,,,,,,,,,,,,,,,,,,,,,,,,1,1,98.5366967000009,113.57146700000158,None,['2'],1,[0.010572300001513213],113.57146700000158,None,,001,2022_May_11_1110,TMT_fmri,2021.2.3,59.94176058854945,
TMTstop-B_1_2.xlsx,26:52,8,['1'],1,TMTstop-B_1_2linestimulus12.png,TMTstop-B_1_2greenlinestimulus12.png,TMTstop-B_1_2redlinestimulus12.png,TMT_B,2,40,None,3,,,,,,,,,,,,,,,,,0,1,1,1,0,14,14,14,,,,,,,,,,,,,,,,,,,,,,,,,,,,,,,2,0,98.83366139998543,113.63813500001561,None,"['3', '1']",1,"[0.04995059999055229, 0.19888819998595864]",113.63813500001561,None,,001,2022_May_11_1110,TMT_fmri,2021.2.3,59.94176058854945,
TMTstop-B_1_2.xlsx,26:52,H,['2'],2,TMTstop-B_1_2linestimulus13.png,TMTstop-B_1_2greenlinestimulus13.png,TMTstop-B_1_2redlinestimulus13.png,TMT_B,2,41,None,3,,,,,,,,,,,,,,,,,0,1,1,1,0,15,15,15,,,,,,,,,,,,,,,,,,,,,,,,,,,,,,,1,1,98.8836852000095,113.9350345999992,None,['2'],1,[-0.009490600001299754],113.9350345999992,None,,001,2022_May_11_1110,TMT_fmri,2021.2.3,59.94176058854945,
TMTstop-B_1_2.xlsx,26:52,9,['3'],3,TMTstop-B_1_2linestimulus14.png,TMTstop-B_1_2greenlinestimulus14.png,TMTstop-B_1_2redlinestimulus14.png,TMT_B,2,42,None,3,,,,,,,,,,,,,,,,,0,1,1,1,0,16,16,16,,,,,,,,,,,,,,,,,,,,,,,,,,,,,,,1,1,98.98369580000872,113.9849993000098,None,['3'],1,[0.037838000018382445],113.9849993000098,None,,001,2022_May_11_1110,TMT_fmri,2021.2.3,59.94176058854945,
TMTstop-B_1_2.xlsx,26:52,I,['1'],1,TMTstop-B_1_2linestimulus15.png,TMTstop-B_1_2greenlinestimulus15.png,TMTstop-B_1_2redlinestimulus15.png,TMT_B,2,43,None,3,,,,,,,,,,,,,,,,,0,1,1,1,0,17,17,17,,,,,,,,,,,,,,,,,,,,,,,,,,,,,,,1,1,99.13369799999055,114.08509179999237,None,['1'],1,[0.09372830000938848],114.08509179999237,None,,001,2022_May_11_1110,TMT_fmri,2021.2.3,59.94176058854945,
TMTstop-B_1_2.xlsx,26:52,10,['2'],2,TMTstop-B_1_2linestimulus16.png,TMTstop-B_1_2greenlinestimulus16.png,TMTstop-B_1_2redlinestimulus16.png,TMT_B,2,44,None,3,,,,,,,,,,,,,,,,,0,1,1,1,0,18,18,18,,,,,,,,,,,,,,,,,,,,,,,,,,,,,,,1,1,99.18368230000488,114.23531610000646,None,['2'],1,[-0.010383599990746006],114.23531610000646,None,,001,2022_May_11_1110,TMT_fmri,2021.2.3,59.94176058854945,
TMTstop-B_1_2.xlsx,26:52,J,['1'],1,TMTstop-B_1_2linestimulus17.png,TMTstop-B_1_2greenlinestimulus17.png,TMTstop-B_1_2redlinestimulus17.png,TMT_B,2,45,None,3,,,,,,,,,,,,,,,,,0,1,1,1,0,19,19,19,,,,,,,,,,,,,,,,,,,,,,,,,,,,,,,2,0,99.46055789999082,114.28529850000632,None,"['3', '1']",1,"[0.052969599986681715, 0.2282137000001967]",114.28529850000632,None,,001,2022_May_11_1110,TMT_fmri,2021.2.3,59.94176058854945,
TMTstop-B_1_2.xlsx,26:52,11,['3'],3,TMTstop-B_1_2linestimulus18.png,TMTstop-B_1_2greenlinestimulus18.png,TMTstop-B_1_2redlinestimulus18.png,TMT_B,2,46,None,3,,,,,,,,,,,,,,,,,0,1,1,1,0,20,20,20,,,,,,,,,,,,,,,,,,,,,,,,,,,,,,,2,0,99.7115863999934,114.5627758000046,None,"['2', '3']",1,"[0.03590259997872636, 0.15656509998370893]",114.5627758000046,None,,001,2022_May_11_1110,TMT_fmri,2021.2.3,59.94176058854945,
TMTstop-B_1_2.xlsx,26:52,K,['2'],2,TMTstop-B_1_2linestimulus19.png,TMTstop-B_1_2greenlinestimulus19.png,TMTstop-B_1_2redlinestimulus19.png,TMT_B,2,47,None,3,,,,,,,,,,,,,,,,,0,1,1,1,0,21,21,21,,,,,,,,,,,,,,,,,,,,,,,,,,,,,,,2,0,99.9336609999882,114.81250210001599,None,"['1', '2']",1,"[0.05533639999339357, 0.1268199000041932]",114.81250210001599,None,,001,2022_May_11_1110,TMT_fmri,2021.2.3,59.94176058854945,
TMTstop-B_1_2.xlsx,26:52,12,['1'],1,TMTstop-B_1_2linestimulus20.png,TMTstop-B_1_2greenlinestimulus20.png,TMTstop-B_1_2redlinestimulus20.png,TMT_B,2,48,None,3,,,,,,,,,,,,,,,,,0,1,1,1,0,22,22,22,,,,,,,,,,,,,,,,,,,,,,,,,,,,,,,2,0,100.19167639999068,115.03964679999626,None,"['3', '1']",1,"[0.024714300001505762, 0.16848920000484213]",115.03964679999626,None,,001,2022_May_11_1110,TMT_fmri,2021.2.3,59.94176058854945,
TMTstop-B_1_2.xlsx,26:52,L,['2'],2,TMTstop-B_1_2linestimulus21.png,TMTstop-B_1_2greenlinestimulus21.png,TMTstop-B_1_2redlinestimulus21.png,TMT_B,2,49,None,3,,,,,,,,,,,,,,,,,0,1,1,1,0,23,23,23,,,,,,,,,,,,,,,,,,,,,,,,,,,,,,,1,1,100.24166060000425,115.29314890000387,None,['2'],1,[-0.031166500004474074],115.29314890000387,None,,001,2022_May_11_1110,TMT_fmri,2021.2.3,59.94176058854945,
TMTstop-B_1_2.xlsx,26:52,13,['1'],1,TMTstop-B_1_2linestimulus22.png,TMTstop-B_1_2greenlinestimulus22.png,TMTstop-B_1_2redlinestimulus22.png,TMT_B,2,50,None,3,,,,,,,,,,,,,,,,,0,1,1,1,0,24,24,24,,,,,,,,,,,,,,,,,,,,,,,,,,,,,,,2,0,100.54865869999048,115.34377940002014,None,"['3', '1']",1,"[0.09514520000084303, 0.2155442000075709]",115.34377940002014,None,,001,2022_May_11_1110,TMT_fmri,2021.2.3,59.94176058854945,
TMTstop-B_1_2.xlsx,26:52,None,None,None,TMTstop-B_1_2linestimulus23.png,TMTstop-B_1_2greenlinestimulus23.png,TMTstop-B_1_2redlinestimulus23.png,TMT_B,2,Feedback_last,None,3,,,,,,,,,,,,,,,,,0,1,1,1,0,25,25,25,,,,,,,,,,,,,,,,,,,,,,,,,,,,,,,1,1,,115.65033229999244,None,['2'],0,[0.08213830000022426],115.65033229999244,None,,001,2022_May_11_1110,TMT_fmri,2021.2.3,59.94176058854945,
TMTstop-Control_1_5.xlsx,104:130,1,['3'],3,TMTstop-control_1_5.png,TMTstop-control_1_5.png,TMTstop-control_1_5.png,TMT_Control,5,101,2,4,,,,,,,,,,,,,,,,,,,,,,,,,0,0,0,0,0,0,0,0,,,,,,,,,,,,,,,,,,,,,,,3,0,115.72653499999433,129.80182799999602,None,"['1', '2', '3']",1,"[0.7636707999918144, 0.8969839999917895, 0.975920099997893]",129.80182799999602,None,,001,2022_May_11_1110,TMT_fmri,2021.2.3,59.94176058854945,
TMTstop-Control_1_5.xlsx,104:130,2,['2'],2,TMTstop-control_1_5.png,TMTstop-control_1_5firstgreen.png,TMTstop-control_1_5firstred.png,TMT_Control,5,102,None,4,,,,,,,,,,,,,,,,,,,,,,,,,0,0,0,0,0,1,1,1,,,,,,,,,,,,,,,,,,,,,,,2,0,116.03951539998525,130.83240929999738,None,"['1', '2']",1,"[0.18927379997330718, 0.22121189997415058]",130.83240929999738,None,,001,2022_May_11_1110,TMT_fmri,2021.2.3,59.94176058854945,
TMTstop-Control_1_5.xlsx,104:130,3,['1'],1,TMTstop-control_1_5linestimulus0.png,TMTstop-control_1_5greenlinestimulus0.png,TMTstop-control_1_5redlinestimulus0.png,TMT_Control,5,103,None,4,,,,,,,,,,,,,,,,,,,,,,,,,0,0,0,0,0,2,2,2,,,,,,,,,,,,,,,,,,,,,,,2,0,116.40138739999384,131.14075120000052,None,"['3', '1']",1,"[0.09432950001792051, 0.28544140001758933]",131.14075120000052,None,,001,2022_May_11_1110,TMT_fmri,2021.2.3,59.94176058854945,
TMTstop-Control_1_5.xlsx,104:130,4,['3'],3,TMTstop-control_1_5linestimulus1.png,TMTstop-control_1_5greenlinestimulus1.png,TMTstop-control_1_5redlinestimulus1.png,TMT_Control,5,104,None,4,,,,,,,,,,,,,,,,,,,,,,,,,0,0,0,0,0,3,3,3,,,,,,,,,,,,,,,,,,,,,,,2,0,116.55155239999294,131.50338919999194,None,"['2', '3']",1,"[-0.03252259999862872, 0.095599599997513]",131.50338919999194,None,,001,2022_May_11_1110,TMT_fmri,2021.2.3,59.94176058854945,
TMTstop-Control_1_5.xlsx,104:130,5,['1'],1,TMTstop-control_1_5linestimulus2.png,TMTstop-control_1_5greenlinestimulus2.png,TMTstop-control_1_5redlinestimulus2.png,TMT_Control,5,105,None,4,,,,,,,,,,,,,,,,,,,,,,,,,0,0,0,0,0,4,4,4,,,,,,,,,,,,,,,,,,,,,,,1,1,116.72240619998774,131.65366630000062,None,['1'],1,[0.10711489999084733],131.65366630000062,None,,001,2022_May_11_1110,TMT_fmri,2021.2.3,59.94176058854945,
TMTstop-Control_1_5.xlsx,104:130,6,['2'],2,TMTstop-control_1_5linestimulus3.png,TMTstop-control_1_5greenlinestimulus3.png,TMTstop-control_1_5redlinestimulus3.png,TMT_Control,5,106,None,4,,,,,,,,,,,,,,,,,,,,,,,,,0,0,0,0,0,5,5,5,,,,,,,,,,,,,,,,,,,,,,,1,1,116.77256949999719,131.82408960000612,None,['2'],1,[-0.014398500003153458],131.82408960000612,None,,001,2022_May_11_1110,TMT_fmri,2021.2.3,59.94176058854945,
TMTstop-Control_1_5.xlsx,104:130,7,['3'],3,TMTstop-control_1_5linestimulus4.png,TMTstop-control_1_5greenlinestimulus4.png,TMTstop-control_1_5redlinestimulus4.png,TMT_Control,5,107,None,4,,,,,,,,,,,,,,,,,,,,,,,,,0,0,0,0,0,6,6,6,,,,,,,,,,,,,,,,,,,,,,,1,1,116.91486709998571,131.88109420001274,None,['3'],1,[0.08232690001023002],131.88109420001274,None,,001,2022_May_11_1110,TMT_fmri,2021.2.3,59.94176058854945,
