NumberLetter,corrAns,StimFile,Correct_StimFile,False_StimFile,DurationTrial,Block_file,Condition_rows,Correct,restartpractice.thisRepN,restartpractice.thisTrialN,restartpractice.thisN,restartpractice.thisIndex,trials_practice.thisRepN,trials_practice.thisTrialN,trials_practice.thisN,trials_practice.thisIndex,Blocks_loop.thisRepN,Blocks_loop.thisTrialN,Blocks_loop.thisN,Blocks_loop.thisIndex,trials.thisRepN,trials.thisTrialN,trials.thisN,trials.thisIndex,key_resp_6.keys,key_resp_6.rt,key_resp_6.started,key_resp_6.stopped,Stim_practice.started,Stim_practice.stopped,key_resp_practice.keys,key_resp_practice.rt,key_resp_practice.started,key_resp_practice.stopped,key_resp_5.keys,key_resp_5.rt,key_resp_5.started,key_resp_5.stopped,Attempts,First_attempt,Stim.started,Stim.stopped,key_resp_2.keys,key_resp_2.corr,key_resp_2.rt,key_resp_2.started,key_resp_2.stopped,participant,session,date,expName,psychopyVersion,frameRate,
,,,,,,,,,,,,,,,,,,,,,,,,,1,0.47926309995818883,8.606230000033975,None,,,,,,,,,,,,,,,,,,,,,001,2022_Jan_24_1505,TMTAstop-A,2021.2.3,59.931737761157514,
1,['1'],TMTstop-A_1_practice.png,TMTstop-A_1_practice.png,TMTstop-A_1_practice.png,10,,,,0,0,0,0,0,0,0,0,,,,,,,,,,,,,12.207758800010197,None,1,0.7150171999819577,12.207758800010197,None,,,,,,,,,,,,,,,001,2022_Jan_24_1505,TMTAstop-A,2021.2.3,59.931737761157514,
2,['2'],TMTstop-A_1_practice.png,TMTstop-A_1_practicefirstgreen.png,TMTstop-A_1_practicefirstred.png,10,,,,0,0,0,0,0,1,1,1,,,,,,,,,,,,,12.994689099956304,None,2,0.2752416000002995,12.994689099956304,None,,,,,,,,,,,,,,,001,2022_Jan_24_1505,TMTAstop-A,2021.2.3,59.931737761157514,
3,['3'],TMTstop-A_1_practicelinestimulus0.png,TMTstop-A_1_practicegreenlinestimulus0.png,TMTstop-A_1_practiceredlinestimulus0.png,10,,,,0,0,0,0,0,2,2,2,,,,,,,,,,,,,13.392232100013644,None,3,0.2587321000173688,13.392232100013644,None,,,,,,,,,,,,,,,001,2022_Jan_24_1505,TMTAstop-A,2021.2.3,59.931737761157514,
4,['1'],TMTstop-A_1_practicelinestimulus1.png,TMTstop-A_1_practicegreenlinestimulus1.png,TMTstop-A_1_practiceredlinestimulus1.png,10,,,,0,0,0,0,0,3,3,3,,,,,,,,,,,,,13.775747900013812,None,1,0.003575499984435737,13.775747900013812,None,,,,,,,,,,,,,,,001,2022_Jan_24_1505,TMTAstop-A,2021.2.3,59.931737761157514,
5,['2'],TMTstop-A_1_practicelinestimulus2.png,TMTstop-A_1_practicegreenlinestimulus2.png,TMTstop-A_1_practiceredlinestimulus2.png,10,,,,0,0,0,0,0,4,4,4,,,,,,,,,,,,,13.87590620003175,None,2,0.00760939996689558,13.87590620003175,None,,,,,,,,,,,,,,,001,2022_Jan_24_1505,TMTAstop-A,2021.2.3,59.931737761157514,
6,['3'],TMTstop-A_1_practicelinestimulus3.png,TMTstop-A_1_practicegreenlinestimulus3.png,TMTstop-A_1_practiceredlinestimulus3.png,10,,,,0,0,0,0,0,5,5,5,,,,,,,,,,,,,13.975955500034615,None,3,0.32652230001986027,13.975955500034615,None,,,,,,,,,,,,,,,001,2022_Jan_24_1505,TMTAstop-A,2021.2.3,59.931737761157514,
7,['1'],TMTstop-A_1_practicelinestimulus4.png,TMTstop-A_1_practicegreenlinestimulus4.png,TMTstop-A_1_practiceredlinestimulus4.png,10,,,,0,0,0,0,0,6,6,6,,,,,,,,,,,,,14.426366199972108,None,1,0.02156459994148463,14.426366199972108,None,,,,,,,,,,,,,,,001,2022_Jan_24_1505,TMTAstop-A,2021.2.3,59.931737761157514,
8,['3'],TMTstop-A_1_practicelinestimulus5.png,TMTstop-A_1_practicegreenlinestimulus5.png,TMTstop-A_1_practiceredlinestimulus5.png,10,,,,0,0,0,0,0,7,7,7,,,,,,,,,,,,,14.542851299978793,None,3,0.08138039999175817,14.542851299978793,None,,,,,,,,,,,,,,,001,2022_Jan_24_1505,TMTAstop-A,2021.2.3,59.931737761157514,
9,['2'],TMTstop-A_1_practicelinestimulus6.png,TMTstop-A_1_practicegreenlinestimulus6.png,TMTstop-A_1_practiceredlinestimulus6.png,10,,,,0,0,0,0,0,8,8,8,,,,,,,,,,,,,14.70963189995382,None,2,0.09235459996853024,14.70963189995382,None,,,,,,,,,,,,,,,001,2022_Jan_24_1505,TMTAstop-A,2021.2.3,59.931737761157514,
10,['3'],TMTstop-A_1_practicelinestimulus7.png,TMTstop-A_1_practicegreenlinestimulus7.png,TMTstop-A_1_practiceredlinestimulus7.png,10,,,,0,0,0,0,0,9,9,9,,,,,,,,,,,,,14.926308599999174,None,3,0.2766872000647709,14.926308599999174,None,,,,,,,,,,,,,,,001,2022_Jan_24_1505,TMTAstop-A,2021.2.3,59.931737761157514,
11,['1'],TMTstop-A_1_practicelinestimulus8.png,TMTstop-A_1_practicegreenlinestimulus8.png,TMTstop-A_1_practiceredlinestimulus8.png,10,,,,0,0,0,0,0,10,10,10,,,,,,,,,,,,,15.326555899926461,None,1,0.2724319000262767,15.326555899926461,None,,,,,,,,,,,,,,,001,2022_Jan_24_1505,TMTAstop-A,2021.2.3,59.931737761157514,
12,['2'],TMTstop-A_1_practicelinestimulus9.png,TMTstop-A_1_practicegreenlinestimulus9.png,TMTstop-A_1_practiceredlinestimulus9.png,10,,,,0,0,0,0,0,11,11,11,,,,,,,,,,,,,15.710072299931198,None,2,0.26279309997335076,15.710072299931198,None,,,,,,,,,,,,,,,001,2022_Jan_24_1505,TMTAstop-A,2021.2.3,59.931737761157514,
None,None,TMTstop-A_1_practicelinestimulus10.png,TMTstop-A_1_practicegreenlinestimulus10.png,TMTstop-A_1_practiceredlinestimulus10.png,None,,,,0,0,0,0,0,12,12,12,,,,,,,,,,,,,16.07905049994588,None,3,0.2970439000055194,16.07905049994588,None,,,,,,,,,,,,,,,001,2022_Jan_24_1505,TMTAstop-A,2021.2.3,59.931737761157514,
,,,,,,,,,0,0,0,0,,,,,,,,,,,,,,,,,,,,,,,2,0.8885707000736147,17.191013899981044,None,,,,,,,,,,,001,2022_Jan_24_1505,TMTAstop-A,2021.2.3,59.931737761157514,
1,['2'],TMTstop-A_1_1.png,TMTstop-A_1_1.png,TMTstop-A_1_1.png,10,TMTstop-A_1_1.xlsx,0:26,,,,,,,,,,0,0,0,0,0,0,0,0,,,,,,,,,,,,,,,2,1,21.245504799997434,None,"['1', '2']",1,"[0.4131791000254452, 0.515732100000605]",21.245504799997434,None,,001,2022_Jan_24_1505,TMTAstop-A,2021.2.3,59.931737761157514,
2,['1'],TMTstop-A_1_1.png,TMTstop-A_1_1firstgreen.png,TMTstop-A_1_1firstred.png,10,TMTstop-A_1_1.xlsx,0:26,,,,,,,,,,0,0,0,0,0,1,1,1,,,,,,,,,,,,,,,2,1,21.846156999934465,None,"['3', '1']",1,"[-0.007543300045654178, 0.1389754000119865]",21.846156999934465,None,,001,2022_Jan_24_1505,TMTAstop-A,2021.2.3,59.931737761157514,
3,['2'],TMTstop-A_1_1linestimulus0.png,TMTstop-A_1_1greenlinestimulus0.png,TMTstop-A_1_1redlinestimulus0.png,10,TMTstop-A_1_1.xlsx,0:26,,,,,,,,,,0,0,0,0,0,2,2,2,,,,,,,,,,,,,,,1,1,22.07957089995034,None,['2'],1,[-0.019444799982011318],22.07957089995034,None,,001,2022_Jan_24_1505,TMTAstop-A,2021.2.3,59.931737761157514,
4,['3'],TMTstop-A_1_1linestimulus1.png,TMTstop-A_1_1greenlinestimulus1.png,TMTstop-A_1_1redlinestimulus1.png,10,TMTstop-A_1_1.xlsx,0:26,,,,,,,,,,0,0,0,0,0,3,3,3,,,,,,,,,,,,,,,1,1,22.16316639992874,None,['3'],1,[-0.0019668000750243664],22.16316639992874,None,,001,2022_Jan_24_1505,TMTAstop-A,2021.2.3,59.931737761157514,
5,['2'],TMTstop-A_1_1linestimulus2.png,TMTstop-A_1_1greenlinestimulus2.png,TMTstop-A_1_1redlinestimulus2.png,10,TMTstop-A_1_1.xlsx,0:26,,,,,,,,,,0,0,0,0,0,4,4,4,,,,,,,,,,,,,,,2,1,22.246387099963613,None,"['1', '2']",1,"[0.02900839992798865, 0.0994026999687776]",22.246387099963613,None,,001,2022_Jan_24_1505,TMTAstop-A,2021.2.3,59.931737761157514,
6,['3'],TMTstop-A_1_1linestimulus3.png,TMTstop-A_1_1greenlinestimulus3.png,TMTstop-A_1_1redlinestimulus3.png,10,TMTstop-A_1_1.xlsx,0:26,,,,,,,,,,0,0,0,0,0,5,5,5,,,,,,,,,,,,,,,1,1,22.46325579995755,None,['3'],1,[-0.015280400053597987],22.46325579995755,None,,001,2022_Jan_24_1505,TMTAstop-A,2021.2.3,59.931737761157514,
7,['2'],TMTstop-A_1_1linestimulus4.png,TMTstop-A_1_1greenlinestimulus4.png,TMTstop-A_1_1redlinestimulus4.png,10,TMTstop-A_1_1.xlsx,0:26,,,,,,,,,,0,0,0,0,0,6,6,6,,,,,,,,,,,,,,,2,1,22.546620000037365,None,"['1', '2']",1,"[0.016142799984663725, 0.07611210003960878]",22.546620000037365,None,,001,2022_Jan_24_1505,TMTAstop-A,2021.2.3,59.931737761157514,
8,['1'],TMTstop-A_1_1linestimulus5.png,TMTstop-A_1_1greenlinestimulus5.png,TMTstop-A_1_1redlinestimulus5.png,10,TMTstop-A_1_1.xlsx,0:26,,,,,,,,,,0,0,0,0,0,7,7,7,,,,,,,,,,,,,,,2,1,22.746803499991074,None,"['3', '1']",1,"[-0.0217169999377802, 0.10659049998503178]",22.746803499991074,None,,001,2022_Jan_24_1505,TMTAstop-A,2021.2.3,59.931737761157514,
9,['2'],TMTstop-A_1_1linestimulus6.png,TMTstop-A_1_1greenlinestimulus6.png,TMTstop-A_1_1redlinestimulus6.png,10,TMTstop-A_1_1.xlsx,0:26,,,,,,,,,,0,0,0,0,0,8,8,8,,,,,,,,,,,,,,,1,1,22.980090599972755,None,['2'],1,[-0.04431960009969771],22.980090599972755,None,,001,2022_Jan_24_1505,TMTAstop-A,2021.2.3,59.931737761157514,
10,['1'],TMTstop-A_1_1linestimulus7.png,TMTstop-A_1_1greenlinestimulus7.png,TMTstop-A_1_1redlinestimulus7.png,10,TMTstop-A_1_1.xlsx,0:26,,,,,,,,,,0,0,0,0,0,9,9,9,,,,,,,,,,,,,,,2,1,23.063458299962804,None,"['3', '1']",1,"[-0.041843100101687014, 0.07287949998863041]",23.063458299962804,None,,001,2022_Jan_24_1505,TMTAstop-A,2021.2.3,59.931737761157514,
11,['2'],TMTstop-A_1_1linestimulus8.png,TMTstop-A_1_1greenlinestimulus8.png,TMTstop-A_1_1redlinestimulus8.png,10,TMTstop-A_1_1.xlsx,0:26,,,,,,,,,,0,0,0,0,0,10,10,10,,,,,,,,,,,,,,,1,1,23.24682679993566,None,['2'],1,[-0.009801400010474026],23.24682679993566,None,,001,2022_Jan_24_1505,TMTAstop-A,2021.2.3,59.931737761157514,
12,['3'],TMTstop-A_1_1linestimulus9.png,TMTstop-A_1_1greenlinestimulus9.png,TMTstop-A_1_1redlinestimulus9.png,10,TMTstop-A_1_1.xlsx,0:26,,,,,,,,,,0,0,0,0,0,11,11,11,,,,,,,,,,,,,,,1,1,23.330789600033313,None,['3'],1,[-0.041387700010091066],23.330789600033313,None,,001,2022_Jan_24_1505,TMTAstop-A,2021.2.3,59.931737761157514,
13,['2'],TMTstop-A_1_1linestimulus10.png,TMTstop-A_1_1greenlinestimulus10.png,TMTstop-A_1_1redlinestimulus10.png,1,TMTstop-A_1_1.xlsx,0:26,,,,,,,,,,0,0,0,0,0,12,12,12,,,,,,,,,,,,,,,2,1,23.413513400009833,None,"['1', '2']",1,"[0.1709743000101298, 0.25299820001237094]",23.413513400009833,None,,001,2022_Jan_24_1505,TMTAstop-A,2021.2.3,59.931737761157514,
14,['3'],TMTstop-A_1_1linestimulus11.png,TMTstop-A_1_1greenlinestimulus11.png,TMTstop-A_1_1redlinestimulus11.png,None,TMTstop-A_1_1.xlsx,0:26,,,,,,,,,,0,0,0,0,0,13,13,13,,,,,,,,,,,,,,,1,1,23.780421299976297,None,['3'],1,[-0.014176399912685156],23.780421299976297,None,,001,2022_Jan_24_1505,TMTAstop-A,2021.2.3,59.931737761157514,
15,['1'],TMTstop-A_1_1linestimulus12.png,TMTstop-A_1_1greenlinestimulus12.png,TMTstop-A_1_1redlinestimulus12.png,None,TMTstop-A_1_1.xlsx,0:26,,,,,,,,,,0,0,0,0,0,14,14,14,,,,,,,,,,,,,,,1,1,23.863822999992408,None,['1'],1,[0.06173850002232939],23.863822999992408,None,,001,2022_Jan_24_1505,TMTAstop-A,2021.2.3,59.931737761157514,
16,['3'],TMTstop-A_1_1linestimulus13.png,TMTstop-A_1_1greenlinestimulus13.png,TMTstop-A_1_1redlinestimulus13.png,None,TMTstop-A_1_1.xlsx,0:26,,,,,,,,,,0,0,0,0,0,15,15,15,,,,,,,,,,,,,,,2,1,24.01396020001266,None,"['2', '3']",1,"[-0.018664199975319207, 0.0737488999729976]",24.01396020001266,None,,001,2022_Jan_24_1505,TMTAstop-A,2021.2.3,59.931737761157514,
17,['2'],TMTstop-A_1_1linestimulus14.png,TMTstop-A_1_1greenlinestimulus14.png,TMTstop-A_1_1redlinestimulus14.png,None,TMTstop-A_1_1.xlsx,0:26,,,,,,,,,,0,0,0,0,0,16,16,16,,,,,,,,,,,,,,,2,1,24.19731379998848,None,"['1', '2']",1,"[0.028824000037275255, 0.1141359000466764]",24.19731379998848,None,,001,2022_Jan_24_1505,TMTAstop-A,2021.2.3,59.931737761157514,
18,['3'],TMTstop-A_1_1linestimulus15.png,TMTstop-A_1_1greenlinestimulus15.png,TMTstop-A_1_1redlinestimulus15.png,None,TMTstop-A_1_1.xlsx,0:26,,,,,,,,,,0,0,0,0,0,17,17,17,,,,,,,,,,,,,,,1,1,24.414097400032915,None,['3'],1,[-0.06133089994546026],24.414097400032915,None,,001,2022_Jan_24_1505,TMTAstop-A,2021.2.3,59.931737761157514,
19,['1'],TMTstop-A_1_1linestimulus16.png,TMTstop-A_1_1greenlinestimulus16.png,TMTstop-A_1_1redlinestimulus16.png,None,TMTstop-A_1_1.xlsx,0:26,,,,,,,,,,0,0,0,0,0,18,18,18,,,,,,,,,,,,,,,1,1,24.497434700024314,None,['1'],1,[0.015591299976222217],24.497434700024314,None,,001,2022_Jan_24_1505,TMTAstop-A,2021.2.3,59.931737761157514,
20,['3'],TMTstop-A_1_1linestimulus17.png,TMTstop-A_1_1greenlinestimulus17.png,TMTstop-A_1_1redlinestimulus17.png,None,TMTstop-A_1_1.xlsx,0:26,,,,,,,,,,0,0,0,0,0,19,19,19,,,,,,,,,,,,,,,4,1,24.597447099979036,None,"['2', '1', '2', '3']",1,"[0.09469569998327643, 0.2258144998922944, 0.3058631999883801, 0.4247348998906091]",24.597447099979036,None,,001,2022_Jan_24_1505,TMTAstop-A,2021.2.3,59.931737761157514,
21,['1'],TMTstop-A_1_1linestimulus18.png,TMTstop-A_1_1greenlinestimulus18.png,TMTstop-A_1_1redlinestimulus18.png,None,TMTstop-A_1_1.xlsx,0:26,,,,,,,,,,0,0,0,0,0,20,20,20,,,,,,,,,,,,,,,1,1,25.131053799996153,None,['1'],1,[0.0706867000553757],25.131053799996153,None,,001,2022_Jan_24_1505,TMTAstop-A,2021.2.3,59.931737761157514,
22,['3'],TMTstop-A_1_1linestimulus19.png,TMTstop-A_1_1greenlinestimulus19.png,TMTstop-A_1_1redlinestimulus19.png,None,TMTstop-A_1_1.xlsx,0:26,,,,,,,,,,0,0,0,0,0,21,21,21,,,,,,,,,,,,,,,2,1,25.2981072999537,None,"['2', '3']",1,"[-0.01987900002859533, 0.11780859995633364]",25.2981072999537,None,,001,2022_Jan_24_1505,TMTAstop-A,2021.2.3,59.931737761157514,
23,['1'],TMTstop-A_1_1linestimulus20.png,TMTstop-A_1_1greenlinestimulus20.png,TMTstop-A_1_1redlinestimulus20.png,None,TMTstop-A_1_1.xlsx,0:26,,,,,,,,,,0,0,0,0,0,22,22,22,,,,,,,,,,,,,,,1,1,25.531523099984042,None,['1'],1,[0.029742700047791004],25.531523099984042,None,,001,2022_Jan_24_1505,TMTAstop-A,2021.2.3,59.931737761157514,
24,['2'],TMTstop-A_1_1linestimulus21.png,TMTstop-A_1_1greenlinestimulus21.png,TMTstop-A_1_1redlinestimulus21.png,None,TMTstop-A_1_1.xlsx,0:26,,,,,,,,,,0,0,0,0,0,23,23,23,,,,,,,,,,,,,,,1,1,25.647958699963056,None,['2'],1,[-0.007609300082549453],25.647958699963056,None,,001,2022_Jan_24_1505,TMTAstop-A,2021.2.3,59.931737761157514,
25,['3'],TMTstop-A_1_1linestimulus22.png,TMTstop-A_1_1greenlinestimulus22.png,TMTstop-A_1_1redlinestimulus22.png,None,TMTstop-A_1_1.xlsx,0:26,,,,,,,,,,0,0,0,0,0,24,24,24,,,,,,,,,,,,,,,1,1,25.731537899933755,None,['3'],1,[-0.007297700038179755],25.731537899933755,None,,001,2022_Jan_24_1505,TMTAstop-A,2021.2.3,59.931737761157514,
None,None,TMTstop-A_1_1linestimulus23.png,TMTstop-A_1_1greenlinestimulus23.png,TMTstop-A_1_1redlinestimulus23.png,None,TMTstop-A_1_1.xlsx,0:26,,,,,,,,,,0,0,0,0,0,25,25,25,,,,,,,,,,,,,,,4,1,25.814751800033264,None,"['1', '2', '3', '1']",0,"[0.02282249997369945, 0.1036477000452578, 0.20238010003231466, 0.30175310000777245]",25.814751800033264,None,,001,2022_Jan_24_1505,TMTAstop-A,2021.2.3,59.931737761157514,
,,,,,,TMTstop-A_1_1.xlsx,0:26,,,,,,,,,,0,0,0,0,,,,,,,,,,,,,,,,,,,,,,,,,,,,,001,2022_Jan_24_1505,TMTAstop-A,2021.2.3,59.931737761157514,
1,['3'],TMTstop-A_1_2.png,TMTstop-A_1_2.png,TMTstop-A_1_2.png,10,TMTstop-A_1_2.xlsx,26:52,3,,,,,,,,,0,1,1,1,0,0,0,0,,,,,,,,,,,,,,,3,1,29.899916199967265,None,"['1', '2', '3']",1,"[0.4344644999364391, 0.4485500999726355, 0.6187109999591485]",29.899916199967265,None,,001,2022_Jan_24_1505,TMTAstop-A,2021.2.3,59.931737761157514,
2,['2'],TMTstop-A_1_2.png,TMTstop-A_1_2firstgreen.png,TMTstop-A_1_2firstred.png,10,TMTstop-A_1_2.xlsx,26:52,2,,,,,,,,,0,1,1,1,0,1,1,1,,,,,,,,,,,,,,,2,1,30.61723139998503,None,"['1', '2']",1,"[0.06537670001853257, 0.12518010009080172]",30.61723139998503,None,,001,2022_Jan_24_1505,TMTAstop-A,2021.2.3,59.931737761157514,
3,['3'],TMTstop-A_1_2linestimulus0.png,TMTstop-A_1_2greenlinestimulus0.png,TMTstop-A_1_2redlinestimulus0.png,10,TMTstop-A_1_2.xlsx,26:52,3,,,,,,,,,0,1,1,1,0,2,2,2,,,,,,,,,,,,,,,1,1,30.86706580000464,None,['3'],1,[-0.0008424000116065145],30.86706580000464,None,,001,2022_Jan_24_1505,TMTAstop-A,2021.2.3,59.931737761157514,
4,['1'],TMTstop-A_1_2linestimulus1.png,TMTstop-A_1_2greenlinestimulus1.png,TMTstop-A_1_2redlinestimulus1.png,10,TMTstop-A_1_2.xlsx,26:52,1,,,,,,,,,0,1,1,1,0,3,3,3,,,,,,,,,,,,,,,1,1,30.95045999996364,None,['1'],1,[0.04469519993290305],30.95045999996364,None,,001,2022_Jan_24_1505,TMTAstop-A,2021.2.3,59.931737761157514,
5,['2'],TMTstop-A_1_2linestimulus2.png,TMTstop-A_1_2greenlinestimulus2.png,TMTstop-A_1_2redlinestimulus2.png,10,TMTstop-A_1_2.xlsx,26:52,2,,,,,,,,,0,1,1,1,0,4,4,4,,,,,,,,,,,,,,,1,1,31.08401039999444,None,['2'],1,[-0.03917110001202673],31.08401039999444,None,,001,2022_Jan_24_1505,TMTAstop-A,2021.2.3,59.931737761157514,
6,['3'],TMTstop-A_1_2linestimulus3.png,TMTstop-A_1_2greenlinestimulus3.png,TMTstop-A_1_2redlinestimulus3.png,10,TMTstop-A_1_2.xlsx,26:52,3,,,,,,,,,0,1,1,1,0,5,5,5,,,,,,,,,,,,,,,1,1,31.167189099942334,None,['3'],1,[-0.004351400071755052],31.167189099942334,None,,001,2022_Jan_24_1505,TMTAstop-A,2021.2.3,59.931737761157514,
7,['2'],TMTstop-A_1_2linestimulus4.png,TMTstop-A_1_2greenlinestimulus4.png,TMTstop-A_1_2redlinestimulus4.png,10,TMTstop-A_1_2.xlsx,26:52,2,,,,,,,,,0,1,1,1,0,6,6,6,,,,,,,,,,,,,,,2,1,31.250568800023757,None,"['1', '2']",1,"[0.020529399975202978, 0.09343929996248335]",31.250568800023757,None,,001,2022_Jan_24_1505,TMTAstop-A,2021.2.3,59.931737761157514,
8,['1'],TMTstop-A_1_2linestimulus5.png,TMTstop-A_1_2greenlinestimulus5.png,TMTstop-A_1_2redlinestimulus5.png,10,TMTstop-A_1_2.xlsx,26:52,1,,,,,,,,,0,1,1,1,0,7,7,7,,,,,,,,,,,,,,,2,1,31.46730989997741,None,"['3', '1']",1,"[-0.03273419989272952, 0.07816960010677576]",31.46730989997741,None,,001,2022_Jan_24_1505,TMTAstop-A,2021.2.3,59.931737761157514,
9,['2'],TMTstop-A_1_2linestimulus6.png,TMTstop-A_1_2greenlinestimulus6.png,TMTstop-A_1_2redlinestimulus6.png,10,TMTstop-A_1_2.xlsx,26:52,2,,,,,,,,,0,1,1,1,0,8,8,8,,,,,,,,,,,,,,,1,1,31.650762100005522,None,['2'],1,[-0.02835349994711578],31.650762100005522,None,,001,2022_Jan_24_1505,TMTAstop-A,2021.2.3,59.931737761157514,
10,['3'],TMTstop-A_1_2linestimulus7.png,TMTstop-A_1_2greenlinestimulus7.png,TMTstop-A_1_2redlinestimulus7.png,10,TMTstop-A_1_2.xlsx,26:52,3,,,,,,,,,0,1,1,1,0,9,9,9,,,,,,,,,,,,,,,1,1,31.73436490003951,None,['3'],1,[-0.027874200022779405],31.73436490003951,None,,001,2022_Jan_24_1505,TMTAstop-A,2021.2.3,59.931737761157514,
11,['1'],TMTstop-A_1_2linestimulus8.png,TMTstop-A_1_2greenlinestimulus8.png,TMTstop-A_1_2redlinestimulus8.png,10,TMTstop-A_1_2.xlsx,26:52,1,,,,,,,,,0,1,1,1,0,10,10,10,,,,,,,,,,,,,,,1,1,31.81744589994196,None,['1'],1,[-0.006667500012554228],31.81744589994196,None,,001,2022_Jan_24_1505,TMTAstop-A,2021.2.3,59.931737761157514,
12,['2'],TMTstop-A_1_2linestimulus9.png,TMTstop-A_1_2greenlinestimulus9.png,TMTstop-A_1_2redlinestimulus9.png,10,TMTstop-A_1_2.xlsx,26:52,2,,,,,,,,,0,1,1,1,0,11,11,11,,,,,,,,,,,,,,,1,1,31.900900600012392,None,['2'],1,[-0.012711299932561815],31.900900600012392,None,,001,2022_Jan_24_1505,TMTAstop-A,2021.2.3,59.931737761157514,
13,['3'],TMTstop-A_1_2linestimulus10.png,TMTstop-A_1_2greenlinestimulus10.png,TMTstop-A_1_2redlinestimulus10.png,1,TMTstop-A_1_2.xlsx,26:52,3,,,,,,,,,0,1,1,1,0,12,12,12,,,,,,,,,,,,,,,1,1,31.98426559998188,None,['3'],1,[0.00387150002643466],31.98426559998188,None,,001,2022_Jan_24_1505,TMTAstop-A,2021.2.3,59.931737761157514,
14,['1'],TMTstop-A_1_2linestimulus11.png,TMTstop-A_1_2greenlinestimulus11.png,TMTstop-A_1_2redlinestimulus11.png,None,TMTstop-A_1_2.xlsx,26:52,1,,,,,,,,,0,1,1,1,0,13,13,13,,,,,,,,,,,,,,,1,1,32.08440269995481,None,['1'],1,[0.011517199920490384],32.08440269995481,None,,001,2022_Jan_24_1505,TMTAstop-A,2021.2.3,59.931737761157514,
15,['3'],TMTstop-A_1_2linestimulus12.png,TMTstop-A_1_2greenlinestimulus12.png,TMTstop-A_1_2redlinestimulus12.png,None,TMTstop-A_1_2.xlsx,26:52,3,,,,,,,,,0,1,1,1,0,14,14,14,,,,,,,,,,,,,,,2,1,32.184340200037695,None,"['2', '3']",1,"[-0.0035665000323206186, 0.09867229999508709]",32.184340200037695,None,,001,2022_Jan_24_1505,TMTAstop-A,2021.2.3,59.931737761157514,
16,['1'],TMTstop-A_1_2linestimulus13.png,TMTstop-A_1_2greenlinestimulus13.png,TMTstop-A_1_2redlinestimulus13.png,None,TMTstop-A_1_2.xlsx,26:52,1,,,,,,,,,0,1,1,1,0,15,15,15,,,,,,,,,,,,,,,1,1,32.36778999993112,None,['1'],1,[0.025635099969804287],32.36778999993112,None,,001,2022_Jan_24_1505,TMTAstop-A,2021.2.3,59.931737761157514,
17,['2'],TMTstop-A_1_2linestimulus14.png,TMTstop-A_1_2greenlinestimulus14.png,TMTstop-A_1_2redlinestimulus14.png,None,TMTstop-A_1_2.xlsx,26:52,2,,,,,,,,,0,1,1,1,0,16,16,16,,,,,,,,,,,,,,,1,1,32.48459939996246,None,['2'],1,[-0.03280000004451722],32.48459939996246,None,,001,2022_Jan_24_1505,TMTAstop-A,2021.2.3,59.931737761157514,
18,['1'],TMTstop-A_1_2linestimulus15.png,TMTstop-A_1_2greenlinestimulus15.png,TMTstop-A_1_2redlinestimulus15.png,None,TMTstop-A_1_2.xlsx,26:52,1,,,,,,,,,0,1,1,1,0,17,17,17,,,,,,,,,,,,,,,2,1,32.56786249997094,None,"['3', '1']",1,"[-0.004119599936529994, 0.11294770007953048]",32.56786249997094,None,,001,2022_Jan_24_1505,TMTAstop-A,2021.2.3,59.931737761157514,
19,['3'],TMTstop-A_1_2linestimulus16.png,TMTstop-A_1_2greenlinestimulus16.png,TMTstop-A_1_2redlinestimulus16.png,None,TMTstop-A_1_2.xlsx,26:52,3,,,,,,,,,0,1,1,1,0,18,18,18,,,,,,,,,,,,,,,2,1,32.80122869997285,None,"['2', '3']",1,"[-0.04094000009354204, 0.06459219998214394]",32.80122869997285,None,,001,2022_Jan_24_1505,TMTAstop-A,2021.2.3,59.931737761157514,
20,['1'],TMTstop-A_1_2linestimulus17.png,TMTstop-A_1_2greenlinestimulus17.png,TMTstop-A_1_2redlinestimulus17.png,None,TMTstop-A_1_2.xlsx,26:52,1,,,,,,,,,0,1,1,1,0,19,19,19,,,,,,,,,,,,,,,1,1,32.984669300029054,None,['1'],1,[-0.0007835000287741423],32.984669300029054,None,,001,2022_Jan_24_1505,TMTAstop-A,2021.2.3,59.931737761157514,
21,['2'],TMTstop-A_1_2linestimulus18.png,TMTstop-A_1_2greenlinestimulus18.png,TMTstop-A_1_2redlinestimulus18.png,None,TMTstop-A_1_2.xlsx,26:52,2,,,,,,,,,0,1,1,1,0,20,20,20,,,,,,,,,,,,,,,1,1,33.068125499994494,None,['2'],1,[0.011982600088231266],33.068125499994494,None,,001,2022_Jan_24_1505,TMTAstop-A,2021.2.3,59.931737761157514,
22,['1'],TMTstop-A_1_2linestimulus19.png,TMTstop-A_1_2greenlinestimulus19.png,TMTstop-A_1_2redlinestimulus19.png,None,TMTstop-A_1_2.xlsx,26:52,1,,,,,,,,,0,1,1,1,0,21,21,21,,,,,,,,,,,,,,,2,1,33.16812589997426,None,"['3', '1']",1,"[0.00807630002964288, 0.12121850007679313]",33.16812589997426,None,,001,2022_Jan_24_1505,TMTAstop-A,2021.2.3,59.931737761157514,
23,['2'],TMTstop-A_1_2linestimulus20.png,TMTstop-A_1_2greenlinestimulus20.png,TMTstop-A_1_2redlinestimulus20.png,None,TMTstop-A_1_2.xlsx,26:52,2,,,,,,,,,0,1,1,1,0,22,22,22,,,,,,,,,,,,,,,1,1,33.41830180003308,None,['2'],1,[-0.03564150002785027],33.41830180003308,None,,001,2022_Jan_24_1505,TMTAstop-A,2021.2.3,59.931737761157514,
24,['1'],TMTstop-A_1_2linestimulus21.png,TMTstop-A_1_2greenlinestimulus21.png,TMTstop-A_1_2redlinestimulus21.png,None,TMTstop-A_1_2.xlsx,26:52,1,,,,,,,,,0,1,1,1,0,23,23,23,,,,,,,,,,,,,,,2,1,33.5017327000387,None,"['3', '1']",1,"[-0.007975799962878227, 0.10493969998788089]",33.5017327000387,None,,001,2022_Jan_24_1505,TMTAstop-A,2021.2.3,59.931737761157514,
25,['2'],TMTstop-A_1_2linestimulus22.png,TMTstop-A_1_2greenlinestimulus22.png,TMTstop-A_1_2redlinestimulus22.png,None,TMTstop-A_1_2.xlsx,26:52,2,,,,,,,,,0,1,1,1,0,24,24,24,,,,,,,,,,,,,,,1,1,33.735061099985614,None,['2'],1,[-0.06570699997246265],33.735061099985614,None,,001,2022_Jan_24_1505,TMTAstop-A,2021.2.3,59.931737761157514,
None,None,TMTstop-A_1_2linestimulus23.png,TMTstop-A_1_2greenlinestimulus23.png,TMTstop-A_1_2redlinestimulus23.png,None,TMTstop-A_1_2.xlsx,26:52,None,,,,,,,,,0,1,1,1,0,25,25,25,,,,,,,,,,,,,,,4,1,33.81850229995325,None,"['3', '1', '2', '3']",0,"[-0.0551973000401631, 0.11594199994578958, 0.17732029990293086, 0.2988789000082761]",33.81850229995325,None,,001,2022_Jan_24_1505,TMTAstop-A,2021.2.3,59.931737761157514,
