NumberLetter,corrAns,Correct,StimFile,Correct_StimFile,False_StimFile,Version,Block,TrialNumber_session,n,Stim.started_mean,Stim.started_raw,Stim.started_std,Stim.stopped_raw,key_resp_2.corr_mean,key_resp_2.corr_raw,key_resp_2.corr_std,key_resp_2.keys_raw,key_resp_2.rt_raw,key_resp_2.started_mean,key_resp_2.started_raw,key_resp_2.started_std,key_resp_2.stopped_raw,order
1,['2'],2,TMTstop-A_1_1.png,TMTstop-A_1_1.png,TMTstop-A_1_1.png,TMT_A,1,1,1.0,76.80667877197266,76.80667877197266,0.0,,1.0,1.0,0.0,2,0.6917823001276702,76.80667877197266,76.80667877197266,0.0,,0.0
2,['1'],1,TMTstop-A_1_1.png,TMTstop-A_1_1firstgreen.png,TMTstop-A_1_1firstred.png,TMT_A,1,2,1.0,77.6337890625,77.6337890625,0.0,,1.0,1.0,0.0,1,-0.07626580004580319,77.6337890625,77.6337890625,0.0,,1.0
3,['2'],2,TMTstop-A_1_1linestimulus0.png,TMTstop-A_1_1greenlinestimulus0.png,TMTstop-A_1_1redlinestimulus0.png,TMT_A,1,3,1.0,77.7939224243164,77.7939224243164,0.0,,1.0,1.0,0.0,3,1,2,-0.103132399963215,0.03429800015874207,0.12659190013073385,77.7939224243164,77.7939224243164,0.0,,2.0
4,['3'],3,TMTstop-A_1_1linestimulus1.png,TMTstop-A_1_1greenlinestimulus1.png,TMTstop-A_1_1redlinestimulus1.png,TMT_A,1,4,1.0,78.06392669677734,78.06392669677734,0.0,,1.0,1.0,0.0,3,-0.039503199979662895,78.06392669677734,78.06392669677734,0.0,,3.0
5,['2'],2,TMTstop-A_1_1linestimulus2.png,TMTstop-A_1_1greenlinestimulus2.png,TMTstop-A_1_1redlinestimulus2.png,TMT_A,1,5,1.0,78.1866455078125,78.1866455078125,0.0,,1.0,1.0,0.0,1,2,-0.01812630007043481,0.03094449988566339,78.1866455078125,78.1866455078125,0.0,,4.0
6,['3'],3,TMTstop-A_1_1linestimulus3.png,TMTstop-A_1_1greenlinestimulus3.png,TMTstop-A_1_1redlinestimulus3.png,TMT_A,1,6,1.0,78.36123657226562,78.36123657226562,0.0,,1.0,1.0,0.0,3,0.006624199915677309,78.36123657226562,78.36123657226562,0.0,,5.0
7,['2'],2,TMTstop-A_1_1linestimulus4.png,TMTstop-A_1_1greenlinestimulus4.png,TMTstop-A_1_1redlinestimulus4.png,TMT_A,1,7,1.0,78.49031066894531,78.49031066894531,0.0,,1.0,1.0,0.0,1,2,0.0847749998793006,0.14325239998288453,78.49031066894531,78.49031066894531,0.0,,6.0
8,['1'],1,TMTstop-A_1_1linestimulus5.png,TMTstop-A_1_1greenlinestimulus5.png,TMTstop-A_1_1redlinestimulus5.png,TMT_A,1,8,1.0,78.76517486572266,78.76517486572266,0.0,,1.0,1.0,0.0,3,1,0.0035464998800307512,0.1609463000204414,78.76517486572266,78.76517486572266,0.0,,7.0
9,['2'],2,TMTstop-A_1_1linestimulus6.png,TMTstop-A_1_1greenlinestimulus6.png,TMTstop-A_1_1redlinestimulus6.png,TMT_A,1,9,1.0,79.04948425292969,79.04948425292969,0.0,,1.0,1.0,0.0,2,-0.06350630009546876,79.04948425292969,79.04948425292969,0.0,,8.0
10,['1'],1,TMTstop-A_1_1linestimulus7.png,TMTstop-A_1_1greenlinestimulus7.png,TMTstop-A_1_1redlinestimulus7.png,TMT_A,1,10,1.0,79.1626968383789,79.1626968383789,0.0,,1.0,1.0,0.0,3,1,-0.06823610002174973,0.07311829994432628,79.1626968383789,79.1626968383789,0.0,,9.0
11,['2'],2,TMTstop-A_1_1linestimulus8.png,TMTstop-A_1_1greenlinestimulus8.png,TMTstop-A_1_1redlinestimulus8.png,TMT_A,1,11,1.0,79.39812469482422,79.39812469482422,0.0,,1.0,1.0,0.0,2,-0.0975532999727875,79.39812469482422,79.39812469482422,0.0,,10.0
12,['3'],3,TMTstop-A_1_1linestimulus9.png,TMTstop-A_1_1greenlinestimulus9.png,TMTstop-A_1_1redlinestimulus9.png,TMT_A,1,12,1.0,79.51030731201172,79.51030731201172,0.0,,1.0,1.0,0.0,3,-0.10117339994758368,79.51030731201172,79.51030731201172,0.0,,11.0
13,['2'],2,TMTstop-A_1_1linestimulus10.png,TMTstop-A_1_1greenlinestimulus10.png,TMTstop-A_1_1redlinestimulus10.png,TMT_A,1,13,1.0,79.6271743774414,79.6271743774414,0.0,,1.0,1.0,0.0,1,2,-0.09538620011880994,-0.06801620009355247,79.6271743774414,79.6271743774414,0.0,,12.0
14,['3'],3,TMTstop-A_1_1linestimulus11.png,TMTstop-A_1_1greenlinestimulus11.png,TMTstop-A_1_1redlinestimulus11.png,TMT_A,1,14,1.0,79.74559783935547,79.74559783935547,0.0,,1.0,1.0,0.0,3,-0.08030859986320138,79.74559783935547,79.74559783935547,0.0,,13.0
15,['1'],1,TMTstop-A_1_1linestimulus12.png,TMTstop-A_1_1greenlinestimulus12.png,TMTstop-A_1_1redlinestimulus12.png,TMT_A,1,15,1.0,79.87837219238281,79.87837219238281,0.0,,1.0,1.0,0.0,1,2,3,1,-0.07597050000913441,-0.039825200103223324,0.08547629998065531,0.2130889999680221,79.87837219238281,79.87837219238281,0.0,,14.0
16,['3'],3,TMTstop-A_1_1linestimulus13.png,TMTstop-A_1_1greenlinestimulus13.png,TMTstop-A_1_1redlinestimulus13.png,TMT_A,1,16,1.0,80.21189880371094,80.21189880371094,0.0,,1.0,1.0,0.0,2,3,-0.07854830008000135,0.012435599928721786,80.21189880371094,80.21189880371094,0.0,,15.0
17,['2'],2,TMTstop-A_1_1linestimulus14.png,TMTstop-A_1_1greenlinestimulus14.png,TMTstop-A_1_1redlinestimulus14.png,TMT_A,1,17,1.0,80.39859771728516,80.39859771728516,0.0,,1.0,1.0,0.0,1,2,-0.02692690002731979,0.04488339996896684,80.39859771728516,80.39859771728516,0.0,,16.0
18,['3'],3,TMTstop-A_1_1linestimulus15.png,TMTstop-A_1_1greenlinestimulus15.png,TMTstop-A_1_1redlinestimulus15.png,TMT_A,1,18,1.0,80.6004867553711,80.6004867553711,0.0,,1.0,1.0,0.0,3,-0.06468549999408424,80.6004867553711,80.6004867553711,0.0,,17.0
19,['1'],1,TMTstop-A_1_1linestimulus16.png,TMTstop-A_1_1greenlinestimulus16.png,TMTstop-A_1_1redlinestimulus16.png,TMT_A,1,19,1.0,80.74080657958984,80.74080657958984,0.0,,1.0,1.0,0.0,1,2,3,1,-0.09143549995496869,-0.023710299981758,0.07926899986341596,0.217121799942106,80.74080657958984,80.74080657958984,0.0,,18.0
20,['3'],3,TMTstop-A_1_1linestimulus17.png,TMTstop-A_1_1greenlinestimulus17.png,TMTstop-A_1_1redlinestimulus17.png,TMT_A,1,20,1.0,81.0836181640625,81.0836181640625,0.0,,1.0,1.0,0.0,2,3,-0.0878796000033617,0.04043239983730018,81.0836181640625,81.0836181640625,0.0,,19.0
21,['1'],1,TMTstop-A_1_1linestimulus18.png,TMTstop-A_1_1greenlinestimulus18.png,TMTstop-A_1_1redlinestimulus18.png,TMT_A,1,21,1.0,81.2644271850586,81.2644271850586,0.0,,1.0,1.0,0.0,1,-0.019193900050595403,81.2644271850586,81.2644271850586,0.0,,20.0
22,['3'],3,TMTstop-A_1_1linestimulus19.png,TMTstop-A_1_1greenlinestimulus19.png,TMTstop-A_1_1redlinestimulus19.png,TMT_A,1,22,1.0,81.38524627685547,81.38524627685547,0.0,,1.0,1.0,0.0,2,3,-0.10564179997891188,0.008443100145086646,81.38524627685547,81.38524627685547,0.0,,21.0
23,['1'],1,TMTstop-A_1_1linestimulus20.png,TMTstop-A_1_1greenlinestimulus20.png,TMTstop-A_1_1redlinestimulus20.png,TMT_A,1,23,1.0,81.5640869140625,81.5640869140625,0.0,,1.0,1.0,0.0,1,2,3,1,-0.036755000008270144,-0.014838500181213021,0.09381099999882281,0.23686119983904064,81.5640869140625,81.5640869140625,0.0,,22.0
24,['2'],2,TMTstop-A_1_1linestimulus21.png,TMTstop-A_1_1greenlinestimulus21.png,TMTstop-A_1_1redlinestimulus21.png,TMT_A,1,24,1.0,81.98824310302734,81.98824310302734,0.0,,1.0,1.0,0.0,2,3,1,2,-0.11778520001098514,0.0005588000640273094,0.12627510004676878,0.16527720005251467,81.98824310302734,81.98824310302734,0.0,,23.0
25,['3'],3,TMTstop-A_1_1linestimulus22.png,TMTstop-A_1_1greenlinestimulus22.png,TMTstop-A_1_1redlinestimulus22.png,TMT_A,1,25,1.0,82.3363265991211,82.3363265991211,0.0,,1.0,1.0,0.0,3,-0.065750100184232,82.3363265991211,82.3363265991211,0.0,,24.0
None,None,None,TMTstop-A_1_1linestimulus23.png,TMTstop-A_1_1greenlinestimulus23.png,TMTstop-A_1_1redlinestimulus23.png,TMT_A,1,Feedback_last,1.0,82.45698547363281,82.45698547363281,0.0,,0.0,0.0,0.0,1,2,3,1,-0.054479300044476986,-0.022678300039842725,0.11381070013158023,0.22921820008195937,82.45698547363281,82.45698547363281,0.0,,25.0

extraInfo
participant,
session,001
date,2022_Feb_02_1835
expName,TMT_fmri
psychopyVersion,2021.2.3
frameRate,None
﻿NumberLetter,corrAns,Correct,StimFile,Correct_StimFile,False_StimFile,Version,Block,TrialNumber_session,n,Stim.started_mean,Stim.started_raw,Stim.started_std,Stim.stopped_raw,key_resp_2.corr_mean,key_resp_2.corr_raw,key_resp_2.corr_std,key_resp_2.keys_raw,key_resp_2.rt_raw,key_resp_2.started_mean,key_resp_2.started_raw,key_resp_2.started_std,key_resp_2.stopped_raw,order
1,['3'],3,TMTstop-A_1_2.png,TMTstop-A_1_2.png,TMTstop-A_1_2.png,TMT_A,2,26,1.0,86.64567565917969,86.64567565917969,0.0,,1.0,1.0,0.0,1,2,3,0.5225632998626679,0.6128338000271469,0.7037643999792635,86.64567565917969,86.64567565917969,0.0,,0.0
2,['2'],2,TMTstop-A_1_2.png,TMTstop-A_1_2firstgreen.png,TMTstop-A_1_2firstred.png,TMT_A,2,27,1.0,87.51603698730469,87.51603698730469,0.0,,1.0,1.0,0.0,1,2,-0.03750110021792352,0.025631999829784036,87.51603698730469,87.51603698730469,0.0,,1.0
3,['3'],3,TMTstop-A_1_2linestimulus0.png,TMTstop-A_1_2greenlinestimulus0.png,TMTstop-A_1_2redlinestimulus0.png,TMT_A,2,28,1.0,87.71370697021484,87.71370697021484,0.0,,1.0,1.0,0.0,3,-0.08753020013682544,87.71370697021484,87.71370697021484,0.0,,2.0
4,['1'],1,TMTstop-A_1_2linestimulus1.png,TMTstop-A_1_2greenlinestimulus1.png,TMTstop-A_1_2redlinestimulus1.png,TMT_A,2,29,1.0,87.83672332763672,87.83672332763672,0.0,,1.0,1.0,0.0,1,2,3,1,-0.09731590002775192,-0.03179690008983016,0.06864029983989894,0.1635457999072969,87.83672332763672,87.83672332763672,0.0,,3.0
5,['2'],2,TMTstop-A_1_2linestimulus2.png,TMTstop-A_1_2greenlinestimulus2.png,TMTstop-A_1_2redlinestimulus2.png,TMT_A,2,30,1.0,88.15122985839844,88.15122985839844,0.0,,0.0,0.0,0.0,,'--',88.15122985839844,88.15122985839844,0.0,,4.0
6,['3'],3,TMTstop-A_1_2linestimulus3.png,TMTstop-A_1_2greenlinestimulus3.png,TMTstop-A_1_2redlinestimulus3.png,TMT_A,2,31,0.0,,,,'--',,,,'--','--',,,,'--',
7,['2'],2,TMTstop-A_1_2linestimulus4.png,TMTstop-A_1_2greenlinestimulus4.png,TMTstop-A_1_2redlinestimulus4.png,TMT_A,2,32,0.0,,,,'--',,,,'--','--',,,,'--',
8,['1'],1,TMTstop-A_1_2linestimulus5.png,TMTstop-A_1_2greenlinestimulus5.png,TMTstop-A_1_2redlinestimulus5.png,TMT_A,2,33,0.0,,,,'--',,,,'--','--',,,,'--',
9,['2'],2,TMTstop-A_1_2linestimulus6.png,TMTstop-A_1_2greenlinestimulus6.png,TMTstop-A_1_2redlinestimulus6.png,TMT_A,2,34,0.0,,,,'--',,,,'--','--',,,,'--',
10,['3'],3,TMTstop-A_1_2linestimulus7.png,TMTstop-A_1_2greenlinestimulus7.png,TMTstop-A_1_2redlinestimulus7.png,TMT_A,2,35,0.0,,,,'--',,,,'--','--',,,,'--',
11,['1'],1,TMTstop-A_1_2linestimulus8.png,TMTstop-A_1_2greenlinestimulus8.png,TMTstop-A_1_2redlinestimulus8.png,TMT_A,2,36,0.0,,,,'--',,,,'--','--',,,,'--',
12,['2'],2,TMTstop-A_1_2linestimulus9.png,TMTstop-A_1_2greenlinestimulus9.png,TMTstop-A_1_2redlinestimulus9.png,TMT_A,2,37,0.0,,,,'--',,,,'--','--',,,,'--',
13,['3'],3,TMTstop-A_1_2linestimulus10.png,TMTstop-A_1_2greenlinestimulus10.png,TMTstop-A_1_2redlinestimulus10.png,TMT_A,2,38,0.0,,,,'--',,,,'--','--',,,,'--',
14,['1'],1,TMTstop-A_1_2linestimulus11.png,TMTstop-A_1_2greenlinestimulus11.png,TMTstop-A_1_2redlinestimulus11.png,TMT_A,2,39,0.0,,,,'--',,,,'--','--',,,,'--',
15,['3'],3,TMTstop-A_1_2linestimulus12.png,TMTstop-A_1_2greenlinestimulus12.png,TMTstop-A_1_2redlinestimulus12.png,TMT_A,2,40,0.0,,,,'--',,,,'--','--',,,,'--',
16,['1'],1,TMTstop-A_1_2linestimulus13.png,TMTstop-A_1_2greenlinestimulus13.png,TMTstop-A_1_2redlinestimulus13.png,TMT_A,2,41,0.0,,,,'--',,,,'--','--',,,,'--',
17,['2'],2,TMTstop-A_1_2linestimulus14.png,TMTstop-A_1_2greenlinestimulus14.png,TMTstop-A_1_2redlinestimulus14.png,TMT_A,2,42,0.0,,,,'--',,,,'--','--',,,,'--',
18,['1'],1,TMTstop-A_1_2linestimulus15.png,TMTstop-A_1_2greenlinestimulus15.png,TMTstop-A_1_2redlinestimulus15.png,TMT_A,2,43,0.0,,,,'--',,,,'--','--',,,,'--',
19,['3'],3,TMTstop-A_1_2linestimulus16.png,TMTstop-A_1_2greenlinestimulus16.png,TMTstop-A_1_2redlinestimulus16.png,TMT_A,2,44,0.0,,,,'--',,,,'--','--',,,,'--',
20,['1'],1,TMTstop-A_1_2linestimulus17.png,TMTstop-A_1_2greenlinestimulus17.png,TMTstop-A_1_2redlinestimulus17.png,TMT_A,2,45,0.0,,,,'--',,,,'--','--',,,,'--',
21,['2'],2,TMTstop-A_1_2linestimulus18.png,TMTstop-A_1_2greenlinestimulus18.png,TMTstop-A_1_2redlinestimulus18.png,TMT_A,2,46,0.0,,,,'--',,,,'--','--',,,,'--',
22,['1'],1,TMTstop-A_1_2linestimulus19.png,TMTstop-A_1_2greenlinestimulus19.png,TMTstop-A_1_2redlinestimulus19.png,TMT_A,2,47,0.0,,,,'--',,,,'--','--',,,,'--',
23,['2'],2,TMTstop-A_1_2linestimulus20.png,TMTstop-A_1_2greenlinestimulus20.png,TMTstop-A_1_2redlinestimulus20.png,TMT_A,2,48,0.0,,,,'--',,,,'--','--',,,,'--',
24,['1'],1,TMTstop-A_1_2linestimulus21.png,TMTstop-A_1_2greenlinestimulus21.png,TMTstop-A_1_2redlinestimulus21.png,TMT_A,2,49,0.0,,,,'--',,,,'--','--',,,,'--',
25,['2'],2,TMTstop-A_1_2linestimulus22.png,TMTstop-A_1_2greenlinestimulus22.png,TMTstop-A_1_2redlinestimulus22.png,TMT_A,2,50,0.0,,,,'--',,,,'--','--',,,,'--',
None,None,None,TMTstop-A_1_2linestimulus23.png,TMTstop-A_1_2greenlinestimulus23.png,TMTstop-A_1_2redlinestimulus23.png,TMT_A,2,Feedback_last,0.0,,,,'--',,,,'--','--',,,,'--',

extraInfo
participant,
session,001
date,2022_Feb_02_1835
expName,TMT_fmri
psychopyVersion,2021.2.3
frameRate,None
