NumberLetter,corrAns,Correct,StimFile,Correct_StimFile,False_StimFile,Version,Block,TrialNumber_session,n,Stim.started_mean,Stim.started_raw,Stim.started_std,Stim.stopped_raw,key_resp_2.corr_mean,key_resp_2.corr_raw,key_resp_2.corr_std,key_resp_2.keys_raw,key_resp_2.rt_raw,key_resp_2.started_mean,key_resp_2.started_raw,key_resp_2.started_std,key_resp_2.stopped_raw,order
1,['2'],2,TMTstop-B_1_1.png,TMTstop-B_1_1.png,TMTstop-B_1_1.png,TMT_B,1,1,1.0,75.01084899902344,75.01084899902344,0.0,,1.0,1.0,0.0,1,2,1.1409432999935234,1.20108959999925,75.01084899902344,75.01084899902344,0.0,,0.0
A,['1'],1,TMTstop-B_1_1.png,TMTstop-B_1_1firstgreen.png,TMTstop-B_1_1firstred.png,TMT_B,1,2,1.0,76.30284881591797,76.30284881591797,0.0,,1.0,1.0,0.0,3,1,0.07724959999904968,0.28197070000169333,76.30284881591797,76.30284881591797,0.0,,1.0
2,['2'],2,TMTstop-B_1_1linestimulus0.png,TMTstop-B_1_1greenlinestimulus0.png,TMTstop-B_1_1redlinestimulus0.png,TMT_B,1,3,1.0,76.6639175415039,76.6639175415039,0.0,,1.0,1.0,0.0,2,0.0003463000030023977,76.6639175415039,76.6639175415039,0.0,,2.0
B,['1'],1,TMTstop-B_1_1linestimulus1.png,TMTstop-B_1_1greenlinestimulus1.png,TMTstop-B_1_1redlinestimulus1.png,TMT_B,1,4,1.0,76.73329162597656,76.73329162597656,0.0,,1.0,1.0,0.0,3,1,0.04800359999353532,0.22630009999556933,76.73329162597656,76.73329162597656,0.0,,3.0
3,['3'],3,TMTstop-B_1_1linestimulus2.png,TMTstop-B_1_1greenlinestimulus2.png,TMTstop-B_1_1redlinestimulus2.png,TMT_B,1,5,1.0,77.06669616699219,77.06669616699219,0.0,,1.0,1.0,0.0,2,3,-0.04813239999930374,0.07586359999550041,77.06669616699219,77.06669616699219,0.0,,4.0
C,['2'],2,TMTstop-B_1_1linestimulus3.png,TMTstop-B_1_1greenlinestimulus3.png,TMTstop-B_1_1redlinestimulus3.png,TMT_B,1,6,1.0,77.22644805908203,77.22644805908203,0.0,,1.0,1.0,0.0,1,2,0.06214519999048207,0.14316120000148658,77.22644805908203,77.22644805908203,0.0,,5.0
4,['3'],3,TMTstop-B_1_1linestimulus4.png,TMTstop-B_1_1greenlinestimulus4.png,TMTstop-B_1_1redlinestimulus4.png,TMT_B,1,7,1.0,77.44894409179688,77.44894409179688,0.0,,1.0,1.0,0.0,3,0.05130339998868294,77.44894409179688,77.44894409179688,0.0,,6.0
D,['1'],1,TMTstop-B_1_1linestimulus5.png,TMTstop-B_1_1greenlinestimulus5.png,TMTstop-B_1_1redlinestimulus5.png,TMT_B,1,8,1.0,77.57369232177734,77.57369232177734,0.0,,1.0,1.0,0.0,1,0.05588640000496525,77.57369232177734,77.57369232177734,0.0,,7.0
5,['2'],2,TMTstop-B_1_1linestimulus6.png,TMTstop-B_1_1greenlinestimulus6.png,TMTstop-B_1_1redlinestimulus6.png,TMT_B,1,9,1.0,77.69847106933594,77.69847106933594,0.0,,1.0,1.0,0.0,2,0.059958099998766556,77.69847106933594,77.69847106933594,0.0,,8.0
E,['3'],3,TMTstop-B_1_1linestimulus7.png,TMTstop-B_1_1greenlinestimulus7.png,TMTstop-B_1_1redlinestimulus7.png,TMT_B,1,10,1.0,77.84449005126953,77.84449005126953,0.0,,1.0,1.0,0.0,3,0.0016627000004518777,77.84449005126953,77.84449005126953,0.0,,9.0
6,['1'],1,TMTstop-B_1_1linestimulus8.png,TMTstop-B_1_1greenlinestimulus8.png,TMTstop-B_1_1redlinestimulus8.png,TMT_B,1,11,1.0,77.92798614501953,77.92798614501953,0.0,,1.0,1.0,0.0,1,0.06728669999574777,77.92798614501953,77.92798614501953,0.0,,10.0
F,['2'],2,TMTstop-B_1_1linestimulus9.png,TMTstop-B_1_1greenlinestimulus9.png,TMTstop-B_1_1redlinestimulus9.png,TMT_B,1,12,1.0,78.06674194335938,78.06674194335938,0.0,,1.0,1.0,0.0,2,0.04440959999919869,78.06674194335938,78.06674194335938,0.0,,11.0
7,['1'],1,TMTstop-B_1_1linestimulus10.png,TMTstop-B_1_1greenlinestimulus10.png,TMTstop-B_1_1redlinestimulus10.png,TMT_B,1,13,1.0,78.1994400024414,78.1994400024414,0.0,,1.0,1.0,0.0,3,1,0.024914100009482354,0.23459020000882447,78.1994400024414,78.1994400024414,0.0,,12.0
G,['2'],2,TMTstop-B_1_1linestimulus11.png,TMTstop-B_1_1greenlinestimulus11.png,TMTstop-B_1_1redlinestimulus11.png,TMT_B,1,14,1.0,78.50421905517578,78.50421905517578,0.0,,1.0,1.0,0.0,2,0.03860260000510607,78.50421905517578,78.50421905517578,0.0,,13.0
8,['1'],1,TMTstop-B_1_1linestimulus12.png,TMTstop-B_1_1greenlinestimulus12.png,TMTstop-B_1_1redlinestimulus12.png,TMT_B,1,15,1.0,78.62217712402344,78.62217712402344,0.0,,1.0,1.0,0.0,3,1,0.012612599995918572,0.21708830000716262,78.62217712402344,78.62217712402344,0.0,,14.0
H,['2'],2,TMTstop-B_1_1linestimulus13.png,TMTstop-B_1_1greenlinestimulus13.png,TMTstop-B_1_1redlinestimulus13.png,TMT_B,1,16,1.0,78.91400146484375,78.91400146484375,0.0,,1.0,1.0,0.0,2,0.0791464000067208,78.91400146484375,78.91400146484375,0.0,,15.0
9,['3'],3,TMTstop-B_1_1linestimulus14.png,TMTstop-B_1_1greenlinestimulus14.png,TMTstop-B_1_1redlinestimulus14.png,TMT_B,1,17,1.0,79.07365417480469,79.07365417480469,0.0,,1.0,1.0,0.0,3,-0.019039999999222346,79.07365417480469,79.07365417480469,0.0,,16.0
I,['1'],1,TMTstop-B_1_1linestimulus15.png,TMTstop-B_1_1greenlinestimulus15.png,TMTstop-B_1_1redlinestimulus15.png,TMT_B,1,18,1.0,79.15020751953125,79.15020751953125,0.0,,1.0,1.0,0.0,1,0.05616870000085328,79.15020751953125,79.15020751953125,0.0,,17.0
10,['2'],2,TMTstop-B_1_1linestimulus16.png,TMTstop-B_1_1greenlinestimulus16.png,TMTstop-B_1_1redlinestimulus16.png,TMT_B,1,19,1.0,79.28915405273438,79.28915405273438,0.0,,1.0,1.0,0.0,2,0.030609499997808598,79.28915405273438,79.28915405273438,0.0,,18.0
J,['1'],1,TMTstop-B_1_1linestimulus17.png,TMTstop-B_1_1greenlinestimulus17.png,TMTstop-B_1_1redlinestimulus17.png,TMT_B,1,20,1.0,79.40020751953125,79.40020751953125,0.0,,1.0,1.0,0.0,3,1,0.006525199991301633,0.14373979999800213,79.40020751953125,79.40020751953125,0.0,,19.0
11,['2'],2,TMTstop-B_1_1linestimulus18.png,TMTstop-B_1_1greenlinestimulus18.png,TMTstop-B_1_1redlinestimulus18.png,TMT_B,1,21,1.0,79.65657806396484,79.65657806396484,0.0,,1.0,1.0,0.0,2,-0.040742500001215376,79.65657806396484,79.65657806396484,0.0,,20.0
K,['3'],3,TMTstop-B_1_1linestimulus19.png,TMTstop-B_1_1greenlinestimulus19.png,TMTstop-B_1_1redlinestimulus19.png,TMT_B,1,22,1.0,79.72640228271484,79.72640228271484,0.0,,1.0,1.0,0.0,3,-0.01254779999726452,79.72640228271484,79.72640228271484,0.0,,21.0
12,['1'],1,TMTstop-B_1_1linestimulus20.png,TMTstop-B_1_1greenlinestimulus20.png,TMTstop-B_1_1redlinestimulus20.png,TMT_B,1,23,1.0,79.8025894165039,79.8025894165039,0.0,,1.0,1.0,0.0,1,0.04751329999999143,79.8025894165039,79.8025894165039,0.0,,22.0
L,['3'],3,TMTstop-B_1_1linestimulus21.png,TMTstop-B_1_1greenlinestimulus21.png,TMTstop-B_1_1redlinestimulus21.png,TMT_B,1,24,1.0,79.93474578857422,79.93474578857422,0.0,,1.0,1.0,0.0,2,3,0.0740215999976499,0.11499170000024606,79.93474578857422,79.93474578857422,0.0,,23.0
13,['2'],2,TMTstop-B_1_1linestimulus22.png,TMTstop-B_1_1greenlinestimulus22.png,TMTstop-B_1_1redlinestimulus22.png,TMT_B,1,25,1.0,80.12918853759766,80.12918853759766,0.0,,1.0,1.0,0.0,1,2,0.029992100011440925,0.1461664000089513,80.12918853759766,80.12918853759766,0.0,,24.0
None,None,None,TMTstop-B_1_1linestimulus23.png,TMTstop-B_1_1greenlinestimulus23.png,TMTstop-B_1_1redlinestimulus23.png,TMT_B,1,Feedback_last,1.0,80.37238311767578,80.37238311767578,0.0,,0.0,0.0,0.0,3,1,2,3,1,2,3,1,2,0.025968400004785508,0.1286141000018688,0.2212638000055449,0.32348009999259375,0.4681111999962013,0.5359553000016604,0.6831482999987202,0.8190087999973912,0.8781114000012167,80.37238311767578,80.37238311767578,0.0,,25.0

extraInfo
participant,
session,001
date,2022_Mar_30_1015
expName,TMT_fmri
psychopyVersion,2021.2.3
frameRate,143.5661545785615
﻿NumberLetter,corrAns,Correct,StimFile,Correct_StimFile,False_StimFile,Version,Block,TrialNumber_session,n,Stim.started_mean,Stim.started_raw,Stim.started_std,Stim.stopped_raw,key_resp_2.corr_mean,key_resp_2.corr_raw,key_resp_2.corr_std,key_resp_2.keys_raw,key_resp_2.rt_raw,key_resp_2.started_mean,key_resp_2.started_raw,key_resp_2.started_std,key_resp_2.stopped_raw,order
1,['2'],2,TMTstop-B_1_2.png,TMTstop-B_1_2.png,TMTstop-B_1_2.png,TMT_B,2,26,1.0,84.46188354492188,84.46188354492188,0.0,,1.0,1.0,0.0,3,1,2,-3.0463144999957876,0.9062369000021135,0.9854556000063894,84.46188354492188,84.46188354492188,0.0,,0.0
A,['3'],3,TMTstop-B_1_2.png,TMTstop-B_1_2firstgreen.png,TMTstop-B_1_2firstred.png,TMT_B,2,27,1.0,85.51793670654297,85.51793670654297,0.0,,1.0,1.0,0.0,3,0.05669689999194816,85.51793670654297,85.51793670654297,0.0,,1.0
2,['1'],1,TMTstop-B_1_2linestimulus0.png,TMTstop-B_1_2greenlinestimulus0.png,TMTstop-B_1_2redlinestimulus0.png,TMT_B,2,28,1.0,85.656982421875,85.656982421875,0.0,,1.0,1.0,0.0,1,0.08528470000601374,85.656982421875,85.656982421875,0.0,,2.0
B,['2'],2,TMTstop-B_1_2linestimulus1.png,TMTstop-B_1_2greenlinestimulus1.png,TMTstop-B_1_2redlinestimulus1.png,TMT_B,2,29,1.0,85.81654357910156,85.81654357910156,0.0,,1.0,1.0,0.0,2,-0.027941299995291047,85.81654357910156,85.81654357910156,0.0,,3.0
3,['3'],3,TMTstop-B_1_2linestimulus2.png,TMTstop-B_1_2greenlinestimulus2.png,TMTstop-B_1_2redlinestimulus2.png,TMT_B,2,30,1.0,85.88616943359375,85.88616943359375,0.0,,1.0,1.0,0.0,3,0.05321670000557788,85.88616943359375,85.88616943359375,0.0,,4.0
C,['1'],1,TMTstop-B_1_2linestimulus3.png,TMTstop-B_1_2greenlinestimulus3.png,TMTstop-B_1_2redlinestimulus3.png,TMT_B,2,31,1.0,86.01791381835938,86.01791381835938,0.0,,1.0,1.0,0.0,1,0.0859167000016896,86.01791381835938,86.01791381835938,0.0,,5.0
4,['2'],2,TMTstop-B_1_2linestimulus4.png,TMTstop-B_1_2greenlinestimulus4.png,TMTstop-B_1_2redlinestimulus4.png,TMT_B,2,32,1.0,86.18466186523438,86.18466186523438,0.0,,1.0,1.0,0.0,2,0.11285159998806193,86.18466186523438,86.18466186523438,0.0,,6.0
D,['3'],3,TMTstop-B_1_2linestimulus5.png,TMTstop-B_1_2greenlinestimulus5.png,TMTstop-B_1_2redlinestimulus5.png,TMT_B,2,33,1.0,86.37913513183594,86.37913513183594,0.0,,1.0,1.0,0.0,3,0.09855270000116434,86.37913513183594,86.37913513183594,0.0,,7.0
5,['2'],2,TMTstop-B_1_2linestimulus6.png,TMTstop-B_1_2greenlinestimulus6.png,TMTstop-B_1_2redlinestimulus6.png,TMT_B,2,34,1.0,86.56666564941406,86.56666564941406,0.0,,1.0,1.0,0.0,1,2,0.25236450000375044,0.37782789999619126,86.56666564941406,86.56666564941406,0.0,,8.0
E,['1'],1,TMTstop-B_1_2linestimulus7.png,TMTstop-B_1_2greenlinestimulus7.png,TMTstop-B_1_2redlinestimulus7.png,TMT_B,2,35,1.0,87.03182220458984,87.03182220458984,0.0,,1.0,1.0,0.0,3,1,-0.00020700000459328294,0.17863009999564383,87.03182220458984,87.03182220458984,0.0,,9.0
6,['3'],3,TMTstop-B_1_2linestimulus8.png,TMTstop-B_1_2greenlinestimulus8.png,TMTstop-B_1_2redlinestimulus8.png,TMT_B,2,36,1.0,87.31634521484375,87.31634521484375,0.0,,1.0,1.0,0.0,2,3,-0.018646199998329394,0.10549309999623802,87.31634521484375,87.31634521484375,0.0,,10.0
F,['1'],1,TMTstop-B_1_2linestimulus9.png,TMTstop-B_1_2greenlinestimulus9.png,TMTstop-B_1_2redlinestimulus9.png,TMT_B,2,37,1.0,87.51100158691406,87.51100158691406,0.0,,1.0,1.0,0.0,1,0.05542389999027364,87.51100158691406,87.51100158691406,0.0,,11.0
7,['3'],3,TMTstop-B_1_2linestimulus10.png,TMTstop-B_1_2greenlinestimulus10.png,TMTstop-B_1_2redlinestimulus10.png,TMT_B,2,38,1.0,87.64303588867188,87.64303588867188,0.0,,1.0,1.0,0.0,2,3,0.01455520000308752,0.1159378000011202,87.64303588867188,87.64303588867188,0.0,,12.0
G,['2'],2,TMTstop-B_1_2linestimulus11.png,TMTstop-B_1_2greenlinestimulus11.png,TMTstop-B_1_2redlinestimulus11.png,TMT_B,2,39,1.0,87.85131072998047,87.85131072998047,0.0,,1.0,1.0,0.0,1,2,0.04839429999992717,0.1355941000074381,87.85131072998047,87.85131072998047,0.0,,13.0
8,['3'],3,TMTstop-B_1_2linestimulus12.png,TMTstop-B_1_2greenlinestimulus12.png,TMTstop-B_1_2redlinestimulus12.png,TMT_B,2,40,1.0,88.06651306152344,88.06651306152344,0.0,,1.0,1.0,0.0,3,0.05132420000154525,88.06651306152344,88.06651306152344,0.0,,14.0
H,['2'],2,TMTstop-B_1_2linestimulus13.png,TMTstop-B_1_2greenlinestimulus13.png,TMTstop-B_1_2redlinestimulus13.png,TMT_B,2,41,1.0,88.20557403564453,88.20557403564453,0.0,,1.0,1.0,0.0,1,2,-0.0013821000029565766,0.1185735999897588,88.20557403564453,88.20557403564453,0.0,,15.0
9,['3'],3,TMTstop-B_1_2linestimulus14.png,TMTstop-B_1_2greenlinestimulus14.png,TMTstop-B_1_2redlinestimulus14.png,TMT_B,2,42,1.0,88.40675354003906,88.40675354003906,0.0,,1.0,1.0,0.0,3,0.004640899991500191,88.40675354003906,88.40675354003906,0.0,,16.0
I,['1'],1,TMTstop-B_1_2linestimulus15.png,TMTstop-B_1_2greenlinestimulus15.png,TMTstop-B_1_2redlinestimulus15.png,TMT_B,2,43,1.0,88.48998260498047,88.48998260498047,0.0,,1.0,1.0,0.0,1,0.09865709999576211,88.48998260498047,88.48998260498047,0.0,,17.0
10,['2'],2,TMTstop-B_1_2linestimulus16.png,TMTstop-B_1_2greenlinestimulus16.png,TMTstop-B_1_2redlinestimulus16.png,TMT_B,2,44,1.0,88.67052459716797,88.67052459716797,0.0,,1.0,1.0,0.0,2,0.0009590999979991466,88.67052459716797,88.67052459716797,0.0,,18.0
J,['3'],3,TMTstop-B_1_2linestimulus17.png,TMTstop-B_1_2greenlinestimulus17.png,TMTstop-B_1_2redlinestimulus17.png,TMT_B,2,45,1.0,88.73998260498047,88.73998260498047,0.0,,1.0,1.0,0.0,3,0.049073599991970696,88.73998260498047,88.73998260498047,0.0,,19.0
11,['2'],2,TMTstop-B_1_2linestimulus18.png,TMTstop-B_1_2greenlinestimulus18.png,TMTstop-B_1_2redlinestimulus18.png,TMT_B,2,46,1.0,88.85816192626953,88.85816192626953,0.0,,1.0,1.0,0.0,1,2,0.053853500008699484,0.14577890001237392,88.85816192626953,88.85816192626953,0.0,,20.0
K,['3'],3,TMTstop-B_1_2linestimulus19.png,TMTstop-B_1_2greenlinestimulus19.png,TMTstop-B_1_2redlinestimulus19.png,TMT_B,2,47,1.0,89.1151123046875,89.1151123046875,0.0,,1.0,1.0,0.0,3,0.03132039999763947,89.1151123046875,89.1151123046875,0.0,,21.0
12,['1'],1,TMTstop-B_1_2linestimulus20.png,TMTstop-B_1_2greenlinestimulus20.png,TMTstop-B_1_2redlinestimulus20.png,TMT_B,2,48,1.0,89.22613525390625,89.22613525390625,0.0,,1.0,1.0,0.0,1,0.0650681999977678,89.22613525390625,89.22613525390625,0.0,,22.0
L,['2'],2,TMTstop-B_1_2linestimulus21.png,TMTstop-B_1_2greenlinestimulus21.png,TMTstop-B_1_2redlinestimulus21.png,TMT_B,2,49,1.0,89.37223052978516,89.37223052978516,0.0,,1.0,1.0,0.0,2,0.022930400009499863,89.37223052978516,89.37223052978516,0.0,,23.0
13,['3'],3,TMTstop-B_1_2linestimulus22.png,TMTstop-B_1_2greenlinestimulus22.png,TMTstop-B_1_2redlinestimulus22.png,TMT_B,2,50,1.0,89.47620391845703,89.47620391845703,0.0,,1.0,1.0,0.0,3,0.037963699985994026,89.47620391845703,89.47620391845703,0.0,,24.0
None,None,None,TMTstop-B_1_2linestimulus23.png,TMTstop-B_1_2greenlinestimulus23.png,TMTstop-B_1_2redlinestimulus23.png,TMT_B,2,Feedback_last,1.0,89.58735656738281,89.58735656738281,0.0,,0.0,0.0,0.0,1,2,3,0.08027629999560304,0.12764239999523852,0.294160199991893,89.58735656738281,89.58735656738281,0.0,,25.0

extraInfo
participant,
session,001
date,2022_Mar_30_1015
expName,TMT_fmri
psychopyVersion,2021.2.3
frameRate,143.5661545785615
