NumberLetter,corrAns,Correct,StimFile,Correct_StimFile,False_StimFile,Version,Paper,TrialNumber_Version,Round,Block,TrialNumber_total,n,Stim.started_mean,Stim.started_raw,Stim.started_std,Stim.stopped_raw,key_resp_2.corr_mean,key_resp_2.corr_raw,key_resp_2.corr_std,key_resp_2.keys_raw,key_resp_2.rt_raw,key_resp_2.started_mean,key_resp_2.started_raw,key_resp_2.started_std,key_resp_2.stopped_raw,order
1,['3'],3,Images/TMTstop-B_1_1.png,Images/TMTstop-B_1_1.png,Images/TMTstop-B_1_1.png,TMT_B,B1,1,4.0,4.0,601,1.0,250.06114196777344,250.06114196777344,0.0,,1.0,1.0,0.0,1,2,3,1.0038971999892965,1.0930988999898545,1.160103700007312,250.06114196777344,250.06114196777344,0.0,,0.0
A,['1'],1,Images/TMTstop-B_1_1.png,Images/TMTstop-B_1_1firstgreen.png,Images/TMTstop-B_1_1firstred.png,TMT_B,B1,2,None,4.0,602,1.0,251.3305206298828,251.3305206298828,0.0,,1.0,1.0,0.0,1,0.07017209997866303,251.3305206298828,251.3305206298828,0.0,,1.0
2,['3'],3,Images/TMTstop-B_1_1linestimulus0.png,Images/TMTstop-B_1_1greenlinestimulus0.png,Images/TMTstop-B_1_1redlinestimulus0.png,TMT_B,B1,3,None,4.0,603,1.0,251.46353149414062,251.46353149414062,0.0,,1.0,1.0,0.0,2,3,0.004543899965938181,0.07371099997544661,251.46353149414062,251.46353149414062,0.0,,2.0
B,['2'],2,Images/TMTstop-B_1_1linestimulus1.png,Images/TMTstop-B_1_1greenlinestimulus1.png,Images/TMTstop-B_1_1redlinestimulus1.png,TMT_B,B1,4,None,4.0,604,1.0,251.6013946533203,251.6013946533203,0.0,,1.0,1.0,0.0,1,2,0.10880589997395873,0.15879379998659715,251.6013946533203,251.6013946533203,0.0,,3.0
3,['1'],1,Images/TMTstop-B_1_1linestimulus2.png,Images/TMTstop-B_1_1greenlinestimulus2.png,Images/TMTstop-B_1_1redlinestimulus2.png,TMT_B,B1,5,None,4.0,605,1.0,251.8188018798828,251.8188018798828,0.0,,1.0,1.0,0.0,3,1,0.03242220001993701,0.21194639999885112,251.8188018798828,251.8188018798828,0.0,,4.0
C,['3'],3,Images/TMTstop-B_1_1linestimulus3.png,Images/TMTstop-B_1_1greenlinestimulus3.png,Images/TMTstop-B_1_1redlinestimulus3.png,TMT_B,B1,6,None,4.0,606,1.0,252.0930633544922,252.0930633544922,0.0,,1.0,1.0,0.0,2,3,-0.015594199998304248,0.09199310000985861,252.0930633544922,252.0930633544922,0.0,,5.0
4,['2'],2,Images/TMTstop-B_1_1linestimulus4.png,Images/TMTstop-B_1_1greenlinestimulus4.png,Images/TMTstop-B_1_1redlinestimulus4.png,TMT_B,B1,7,None,4.0,607,1.0,252.2427978515625,252.2427978515625,0.0,,1.0,1.0,0.0,1,2,0.16218609997304156,0.22098079998977482,252.2427978515625,252.2427978515625,0.0,,6.0
D,['1'],1,Images/TMTstop-B_1_1linestimulus5.png,Images/TMTstop-B_1_1greenlinestimulus5.png,Images/TMTstop-B_1_1redlinestimulus5.png,TMT_B,B1,8,None,4.0,608,1.0,252.5179443359375,252.5179443359375,0.0,,1.0,1.0,0.0,3,1,0.04013919999124482,0.23512520000804216,252.5179443359375,252.5179443359375,0.0,,7.0
5,['3'],3,Images/TMTstop-B_1_1linestimulus6.png,Images/TMTstop-B_1_1greenlinestimulus6.png,Images/TMTstop-B_1_1redlinestimulus6.png,TMT_B,B1,9,None,4.0,609,1.0,252.83160400390625,252.83160400390625,0.0,,1.0,1.0,0.0,2,3,-0.032554800040088594,0.06829389999620616,252.83160400390625,252.83160400390625,0.0,,8.0
E,['1'],1,Images/TMTstop-B_1_1linestimulus7.png,Images/TMTstop-B_1_1greenlinestimulus7.png,Images/TMTstop-B_1_1redlinestimulus7.png,TMT_B,B1,10,None,4.0,610,1.0,252.98170471191406,252.98170471191406,0.0,,1.0,1.0,0.0,1,0.11050389998126775,252.98170471191406,252.98170471191406,0.0,,9.0
6,['3'],3,Images/TMTstop-B_1_1linestimulus8.png,Images/TMTstop-B_1_1greenlinestimulus8.png,Images/TMTstop-B_1_1redlinestimulus8.png,TMT_B,B1,11,None,4.0,611,1.0,253.1495819091797,253.1495819091797,0.0,,1.0,1.0,0.0,2,3,-0.0035069999867118895,0.09771950001595542,253.1495819091797,253.1495819091797,0.0,,10.0
F,['1'],1,Images/TMTstop-B_1_1linestimulus9.png,Images/TMTstop-B_1_1greenlinestimulus9.png,Images/TMTstop-B_1_1redlinestimulus9.png,TMT_B,B1,12,None,4.0,612,1.0,253.3107452392578,253.3107452392578,0.0,,1.0,1.0,0.0,1,0.11445960000855848,253.3107452392578,253.3107452392578,0.0,,11.0
7,['3'],3,Images/TMTstop-B_1_1linestimulus10.png,Images/TMTstop-B_1_1greenlinestimulus10.png,Images/TMTstop-B_1_1redlinestimulus10.png,TMT_B,B1,13,None,4.0,613,1.0,253.47755432128906,253.47755432128906,0.0,,1.0,1.0,0.0,2,3,0.010593299986794591,0.10667320003267378,253.47755432128906,253.47755432128906,0.0,,12.0
G,['2'],2,Images/TMTstop-B_1_1linestimulus11.png,Images/TMTstop-B_1_1greenlinestimulus11.png,Images/TMTstop-B_1_1redlinestimulus11.png,TMT_B,B1,14,None,4.0,614,1.0,253.65086364746094,253.65086364746094,0.0,,1.0,1.0,0.0,1,2,0.4337041000253521,1.2794786000158638,253.65086364746094,253.65086364746094,0.0,,13.0
8,['3'],3,Images/TMTstop-B_1_1linestimulus12.png,Images/TMTstop-B_1_1greenlinestimulus12.png,Images/TMTstop-B_1_1redlinestimulus12.png,TMT_B,B1,15,None,4.0,615,1.0,254.99269104003906,254.99269104003906,0.0,,1.0,1.0,0.0,3,0.16647319996263832,254.99269104003906,254.99269104003906,0.0,,14.0
H,['1'],1,Images/TMTstop-B_1_1linestimulus13.png,Images/TMTstop-B_1_1greenlinestimulus13.png,Images/TMTstop-B_1_1redlinestimulus13.png,TMT_B,B1,16,None,4.0,616,1.0,255.20945739746094,255.20945739746094,0.0,,1.0,1.0,0.0,1,0.10575510002672672,255.20945739746094,255.20945739746094,0.0,,15.0
9,['3'],3,Images/TMTstop-B_1_1linestimulus14.png,Images/TMTstop-B_1_1greenlinestimulus14.png,Images/TMTstop-B_1_1redlinestimulus14.png,TMT_B,B1,17,None,4.0,617,1.0,255.38381958007812,255.38381958007812,0.0,,1.0,1.0,0.0,2,3,0.012889299949165434,0.11545139999361709,255.38381958007812,255.38381958007812,0.0,,16.0
I,['2'],2,Images/TMTstop-B_1_1linestimulus15.png,Images/TMTstop-B_1_1greenlinestimulus15.png,Images/TMTstop-B_1_1redlinestimulus15.png,TMT_B,B1,18,None,4.0,618,1.0,255.55747985839844,255.55747985839844,0.0,,1.0,1.0,0.0,1,2,0.14658960001543164,0.21975270000984892,255.55747985839844,255.55747985839844,0.0,,17.0
10,['3'],3,Images/TMTstop-B_1_1linestimulus16.png,Images/TMTstop-B_1_1greenlinestimulus16.png,Images/TMTstop-B_1_1redlinestimulus16.png,TMT_B,B1,19,None,4.0,619,1.0,255.87130737304688,255.87130737304688,0.0,,1.0,1.0,0.0,3,0.03406360000371933,255.87130737304688,255.87130737304688,0.0,,18.0
J,['2'],2,Images/TMTstop-B_1_1linestimulus17.png,Images/TMTstop-B_1_1greenlinestimulus17.png,Images/TMTstop-B_1_1redlinestimulus17.png,TMT_B,B1,20,None,4.0,620,1.0,255.97134399414062,255.97134399414062,0.0,,1.0,1.0,0.0,1,2,0.22988749999785796,0.2517030999879353,255.97134399414062,255.97134399414062,0.0,,19.0
11,['1'],1,Images/TMTstop-B_1_1linestimulus18.png,Images/TMTstop-B_1_1greenlinestimulus18.png,Images/TMTstop-B_1_1redlinestimulus18.png,TMT_B,B1,21,None,4.0,621,1.0,256.2977294921875,256.2977294921875,0.0,,1.0,1.0,0.0,3,1,0.09652520000236109,0.708106099977158,256.2977294921875,256.2977294921875,0.0,,20.0
K,['2'],2,Images/TMTstop-B_1_1linestimulus19.png,Images/TMTstop-B_1_1greenlinestimulus19.png,Images/TMTstop-B_1_1redlinestimulus19.png,TMT_B,B1,22,None,4.0,622,1.0,257.0990905761719,257.0990905761719,0.0,,1.0,1.0,0.0,2,-0.041734700032975525,257.0990905761719,257.0990905761719,0.0,,21.0
12,['1'],1,Images/TMTstop-B_1_1linestimulus20.png,Images/TMTstop-B_1_1greenlinestimulus20.png,Images/TMTstop-B_1_1redlinestimulus20.png,TMT_B,B1,23,None,4.0,623,1.0,257.15142822265625,257.15142822265625,0.0,,1.0,1.0,0.0,3,1,0.17279670003335923,0.3658805000013672,257.15142822265625,257.15142822265625,0.0,,22.0
L,['2'],2,Images/TMTstop-B_1_1linestimulus21.png,Images/TMTstop-B_1_1greenlinestimulus21.png,Images/TMTstop-B_1_1redlinestimulus21.png,TMT_B,B1,24,None,4.0,624,1.0,257.5812072753906,257.5812072753906,0.0,,1.0,1.0,0.0,2,0.02587909996509552,257.5812072753906,257.5812072753906,0.0,,23.0
13,['1'],1,Images/TMTstop-B_1_1linestimulus22.png,Images/TMTstop-B_1_1greenlinestimulus22.png,Images/TMTstop-B_1_1redlinestimulus22.png,TMT_B,B1,25,None,4.0,625,1.0,257.6817321777344,257.6817321777344,0.0,,1.0,1.0,0.0,1,1.1066827999893576,257.6817321777344,257.6817321777344,0.0,,24.0
None,None,None,Images/TMTstop-B_1_1linestimulus23.png,Images/TMTstop-B_1_1greenlinestimulus23.png,Images/TMTstop-B_1_1redlinestimulus23.png,TMT_B,B1,Feedback_last,None,4.0,Feedback_last,1.0,258.85760498046875,258.85760498046875,0.0,,1.0,1.0,0.0,,'--',258.85760498046875,258.85760498046875,0.0,,25.0

extraInfo
participant,
session,001
date,2022_Dec_20_1655
expName,TMT_fmri
psychopyVersion,2021.2.3
frameRate,59.88583364190807
﻿NumberLetter,corrAns,Correct,StimFile,Correct_StimFile,False_StimFile,Version,Paper,TrialNumber_Version,Round,Block,TrialNumber_total,n,Stim.started_mean,Stim.started_raw,Stim.started_std,Stim.stopped_raw,key_resp_2.corr_mean,key_resp_2.corr_raw,key_resp_2.corr_std,key_resp_2.keys_raw,key_resp_2.rt_raw,key_resp_2.started_mean,key_resp_2.started_raw,key_resp_2.started_std,key_resp_2.stopped_raw,order
1,['1'],1,Images/TMTstop-B_1_2.png,Images/TMTstop-B_1_2.png,Images/TMTstop-B_1_2.png,TMT_B,B2,26,None,4.0,626,1.0,263.1660461425781,263.1660461425781,0.0,,1.0,1.0,0.0,1,0.5204477999941446,263.1660461425781,263.1660461425781,0.0,,0.0
A,['2'],2,Images/TMTstop-B_1_2.png,Images/TMTstop-B_1_2firstgreen.png,Images/TMTstop-B_1_2firstred.png,TMT_B,B2,27,None,4.0,627,1.0,263.7575378417969,263.7575378417969,0.0,,1.0,1.0,0.0,2,-0.0032630000496283174,263.7575378417969,263.7575378417969,0.0,,1.0
2,['1'],1,Images/TMTstop-B_1_2linestimulus0.png,Images/TMTstop-B_1_2greenlinestimulus0.png,Images/TMTstop-B_1_2redlinestimulus0.png,TMT_B,B2,28,None,4.0,628,1.0,263.8081970214844,263.8081970214844,0.0,,1.0,1.0,0.0,3,1,0.02185349998762831,0.25819580000825226,263.8081970214844,263.8081970214844,0.0,,2.0
B,['2'],2,Images/TMTstop-B_1_2linestimulus1.png,Images/TMTstop-B_1_2greenlinestimulus1.png,Images/TMTstop-B_1_2redlinestimulus1.png,TMT_B,B2,29,None,4.0,629,1.0,264.1465148925781,264.1465148925781,0.0,,1.0,1.0,0.0,2,-0.001041300012730062,264.1465148925781,264.1465148925781,0.0,,3.0
3,['1'],1,Images/TMTstop-B_1_2linestimulus2.png,Images/TMTstop-B_1_2greenlinestimulus2.png,Images/TMTstop-B_1_2redlinestimulus2.png,TMT_B,B2,30,None,4.0,630,1.0,264.1982727050781,264.1982727050781,0.0,,1.0,1.0,0.0,3,1,2,3,1,0.036393299989867955,0.21001360000809655,0.22606469999300316,0.3291548999841325,0.4852670999825932,264.1982727050781,264.1982727050781,0.0,,4.0
C,['3'],3,Images/TMTstop-B_1_2linestimulus3.png,Images/TMTstop-B_1_2greenlinestimulus3.png,Images/TMTstop-B_1_2redlinestimulus3.png,TMT_B,B2,31,None,4.0,631,1.0,264.77313232421875,264.77313232421875,0.0,,1.0,1.0,0.0,2,3,-0.04584999999497086,0.049569199967663735,264.77313232421875,264.77313232421875,0.0,,5.0
4,['2'],2,Images/TMTstop-B_1_2linestimulus4.png,Images/TMTstop-B_1_2greenlinestimulus4.png,Images/TMTstop-B_1_2redlinestimulus4.png,TMT_B,B2,32,None,4.0,632,1.0,264.87921142578125,264.87921142578125,0.0,,1.0,1.0,0.0,1,2,0.08478730003116652,0.13702379999449477,264.87921142578125,264.87921142578125,0.0,,6.0
D,['1'],1,Images/TMTstop-B_1_2linestimulus5.png,Images/TMTstop-B_1_2greenlinestimulus5.png,Images/TMTstop-B_1_2redlinestimulus5.png,TMT_B,B2,33,None,4.0,633,1.0,265.0853271484375,265.0853271484375,0.0,,1.0,1.0,0.0,3,1,-0.0020564000005833805,0.1509016999625601,265.0853271484375,265.0853271484375,0.0,,7.0
5,['2'],2,Images/TMTstop-B_1_2linestimulus6.png,Images/TMTstop-B_1_2greenlinestimulus6.png,Images/TMTstop-B_1_2redlinestimulus6.png,TMT_B,B2,34,None,4.0,634,1.0,265.2854309082031,265.2854309082031,0.0,,1.0,1.0,0.0,2,-0.029145599983166903,265.2854309082031,265.2854309082031,0.0,,8.0
E,['3'],3,Images/TMTstop-B_1_2linestimulus7.png,Images/TMTstop-B_1_2greenlinestimulus7.png,Images/TMTstop-B_1_2redlinestimulus7.png,TMT_B,B2,35,None,4.0,635,1.0,265.3355407714844,265.3355407714844,0.0,,1.0,1.0,0.0,3,0.02838900004280731,265.3355407714844,265.3355407714844,0.0,,9.0
6,['1'],1,Images/TMTstop-B_1_2linestimulus8.png,Images/TMTstop-B_1_2greenlinestimulus8.png,Images/TMTstop-B_1_2redlinestimulus8.png,TMT_B,B2,36,None,4.0,636,1.0,265.4236145019531,265.4236145019531,0.0,,1.0,1.0,0.0,1,0.10164680000161752,265.4236145019531,265.4236145019531,0.0,,10.0
F,['3'],3,Images/TMTstop-B_1_2linestimulus9.png,Images/TMTstop-B_1_2greenlinestimulus9.png,Images/TMTstop-B_1_2redlinestimulus9.png,TMT_B,B2,37,None,4.0,637,1.0,265.57421875,265.57421875,0.0,,1.0,1.0,0.0,2,3,0.01024959998903796,0.0845532999956049,265.57421875,265.57421875,0.0,,11.0
7,['1'],1,Images/TMTstop-B_1_2linestimulus10.png,Images/TMTstop-B_1_2greenlinestimulus10.png,Images/TMTstop-B_1_2redlinestimulus10.png,TMT_B,B2,38,None,4.0,638,1.0,265.751708984375,265.751708984375,0.0,,1.0,1.0,0.0,1,0.11069859995041043,265.751708984375,265.751708984375,0.0,,12.0
G,['2'],2,Images/TMTstop-B_1_2linestimulus11.png,Images/TMTstop-B_1_2greenlinestimulus11.png,Images/TMTstop-B_1_2redlinestimulus11.png,TMT_B,B2,39,None,4.0,639,1.0,265.91802978515625,265.91802978515625,0.0,,1.0,1.0,0.0,2,-0.017382999998517334,265.91802978515625,265.91802978515625,0.0,,13.0
8,['1'],1,Images/TMTstop-B_1_2linestimulus12.png,Images/TMTstop-B_1_2greenlinestimulus12.png,Images/TMTstop-B_1_2redlinestimulus12.png,TMT_B,B2,40,None,4.0,640,1.0,265.9686279296875,265.9686279296875,0.0,,1.0,1.0,0.0,3,1,0.061678199970629066,0.25783779995981604,265.9686279296875,265.9686279296875,0.0,,14.0
H,['2'],2,Images/TMTstop-B_1_2linestimulus13.png,Images/TMTstop-B_1_2greenlinestimulus13.png,Images/TMTstop-B_1_2redlinestimulus13.png,TMT_B,B2,41,None,4.0,641,1.0,266.2920837402344,266.2920837402344,0.0,,1.0,1.0,0.0,2,-0.03645670000696555,266.2920837402344,266.2920837402344,0.0,,15.0
9,['3'],3,Images/TMTstop-B_1_2linestimulus14.png,Images/TMTstop-B_1_2greenlinestimulus14.png,Images/TMTstop-B_1_2redlinestimulus14.png,TMT_B,B2,42,None,4.0,642,1.0,266.341796875,266.341796875,0.0,,1.0,1.0,0.0,3,0.05474839999806136,266.341796875,266.341796875,0.0,,16.0
I,['1'],1,Images/TMTstop-B_1_2linestimulus15.png,Images/TMTstop-B_1_2greenlinestimulus15.png,Images/TMTstop-B_1_2redlinestimulus15.png,TMT_B,B2,43,None,4.0,643,1.0,266.4588317871094,266.4588317871094,0.0,,1.0,1.0,0.0,1,0.10537689999910071,266.4588317871094,266.4588317871094,0.0,,17.0
10,['2'],2,Images/TMTstop-B_1_2linestimulus16.png,Images/TMTstop-B_1_2greenlinestimulus16.png,Images/TMTstop-B_1_2redlinestimulus16.png,TMT_B,B2,44,None,4.0,644,1.0,266.62591552734375,266.62591552734375,0.0,,1.0,1.0,0.0,2,0.00832070002797991,266.62591552734375,266.62591552734375,0.0,,18.0
J,['1'],1,Images/TMTstop-B_1_2linestimulus17.png,Images/TMTstop-B_1_2greenlinestimulus17.png,Images/TMTstop-B_1_2redlinestimulus17.png,TMT_B,B2,45,None,4.0,645,1.0,266.6925354003906,266.6925354003906,0.0,,1.0,1.0,0.0,3,1,2,3,1,0.052948800032027066,0.23378930002218112,0.276779500010889,0.39490469999145716,0.5568806999945082,266.6925354003906,266.6925354003906,0.0,,19.0
11,['3'],3,Images/TMTstop-B_1_2linestimulus18.png,Images/TMTstop-B_1_2greenlinestimulus18.png,Images/TMTstop-B_1_2redlinestimulus18.png,TMT_B,B2,46,None,4.0,646,1.0,267.3212890625,267.3212890625,0.0,,1.0,1.0,0.0,2,3,-0.007975200016517192,0.09606179996626452,267.3212890625,267.3212890625,0.0,,20.0
K,['2'],2,Images/TMTstop-B_1_2linestimulus19.png,Images/TMTstop-B_1_2greenlinestimulus19.png,Images/TMTstop-B_1_2redlinestimulus19.png,TMT_B,B2,47,None,4.0,647,1.0,267.4745178222656,267.4745178222656,0.0,,1.0,1.0,0.0,1,2,0.11881499999435619,0.16965629998594522,267.4745178222656,267.4745178222656,0.0,,21.0
12,['1'],1,Images/TMTstop-B_1_2linestimulus20.png,Images/TMTstop-B_1_2greenlinestimulus20.png,Images/TMTstop-B_1_2redlinestimulus20.png,TMT_B,B2,48,None,4.0,648,1.0,267.75274658203125,267.75274658203125,0.0,,1.0,1.0,0.0,3,1,-0.008493300003465265,0.17561450001085177,267.75274658203125,267.75274658203125,0.0,,22.0
L,['2'],2,Images/TMTstop-B_1_2linestimulus21.png,Images/TMTstop-B_1_2greenlinestimulus21.png,Images/TMTstop-B_1_2redlinestimulus21.png,TMT_B,B2,49,None,4.0,649,1.0,268.0030212402344,268.0030212402344,0.0,,1.0,1.0,0.0,2,-0.013492199999745935,268.0030212402344,268.0030212402344,0.0,,23.0
13,['1'],1,Images/TMTstop-B_1_2linestimulus22.png,Images/TMTstop-B_1_2greenlinestimulus22.png,Images/TMTstop-B_1_2redlinestimulus22.png,TMT_B,B2,50,None,4.0,650,1.0,268.05438232421875,268.05438232421875,0.0,,1.0,1.0,0.0,2,1,0.5984481999767013,0.8796719999518245,268.05438232421875,268.05438232421875,0.0,,24.0
None,None,None,Images/TMTstop-B_1_2linestimulus23.png,Images/TMTstop-B_1_2greenlinestimulus23.png,Images/TMTstop-B_1_2redlinestimulus23.png,TMT_B,B2,Feedback_last,None,4.0,Feedback_last,1.0,269.0257263183594,269.0257263183594,0.0,,1.0,1.0,0.0,,'--',269.0257263183594,269.0257263183594,0.0,,25.0

extraInfo
participant,
session,001
date,2022_Dec_20_1655
expName,TMT_fmri
psychopyVersion,2021.2.3
frameRate,59.88583364190807
﻿NumberLetter,corrAns,Correct,StimFile,Correct_StimFile,False_StimFile,Version,Paper,TrialNumber_Version,Round,Block,TrialNumber_total,n,Stim.started_mean,Stim.started_raw,Stim.started_std,Stim.stopped_raw,key_resp_2.corr_mean,key_resp_2.corr_raw,key_resp_2.corr_std,key_resp_2.keys_raw,key_resp_2.rt_raw,key_resp_2.started_mean,key_resp_2.started_raw,key_resp_2.started_std,key_resp_2.stopped_raw,order
1,['2'],2,Images/TMTstop-B_1_3.png,Images/TMTstop-B_1_3.png,Images/TMTstop-B_1_3.png,TMT_B,B3,51,None,4.0,651,1.0,273.342041015625,273.342041015625,0.0,,1.0,1.0,0.0,1,2,0.537007899954915,0.6272787000052631,273.342041015625,273.342041015625,0.0,,0.0
A,['3'],3,Images/TMTstop-B_1_3.png,Images/TMTstop-B_1_3firstgreen.png,Images/TMTstop-B_1_3firstred.png,TMT_B,B3,52,None,4.0,652,1.0,274.0305480957031,274.0305480957031,0.0,,1.0,1.0,0.0,3,0.0035389999975450337,274.0305480957031,274.0305480957031,0.0,,1.0
2,['2'],2,Images/TMTstop-B_1_3linestimulus0.png,Images/TMTstop-B_1_3greenlinestimulus0.png,Images/TMTstop-B_1_3redlinestimulus0.png,TMT_B,B3,53,None,4.0,653,1.0,274.1139831542969,274.1139831542969,0.0,,1.0,1.0,0.0,1,2,0.11929199995938689,0.15256079996470362,274.1139831542969,274.1139831542969,0.0,,2.0
B,['1'],1,Images/TMTstop-B_1_3linestimulus1.png,Images/TMTstop-B_1_3greenlinestimulus1.png,Images/TMTstop-B_1_3redlinestimulus1.png,TMT_B,B3,54,None,4.0,654,1.0,274.3341369628906,274.3341369628906,0.0,,1.0,1.0,0.0,3,1,0.04435160005232319,0.20624980004504323,274.3341369628906,274.3341369628906,0.0,,3.0
3,['2'],2,Images/TMTstop-B_1_3linestimulus2.png,Images/TMTstop-B_1_3greenlinestimulus2.png,Images/TMTstop-B_1_3redlinestimulus2.png,TMT_B,B3,55,None,4.0,655,1.0,274.6380920410156,274.6380920410156,0.0,,1.0,1.0,0.0,2,-0.050776899966876954,274.6380920410156,274.6380920410156,0.0,,4.0
C,['3'],3,Images/TMTstop-B_1_3linestimulus3.png,Images/TMTstop-B_1_3greenlinestimulus3.png,Images/TMTstop-B_1_3redlinestimulus3.png,TMT_B,B3,56,None,4.0,656,1.0,274.6885681152344,274.6885681152344,0.0,,1.0,1.0,0.0,3,0.0043524999637156725,274.6885681152344,274.6885681152344,0.0,,5.0
4,['2'],2,Images/TMTstop-B_1_3linestimulus4.png,Images/TMTstop-B_1_3greenlinestimulus4.png,Images/TMTstop-B_1_3redlinestimulus4.png,TMT_B,B3,57,None,4.0,657,1.0,274.7719421386719,274.7719421386719,0.0,,1.0,1.0,0.0,1,2,0.1404247999889776,0.18010990001494065,274.7719421386719,274.7719421386719,0.0,,6.0
D,['3'],3,Images/TMTstop-B_1_3linestimulus5.png,Images/TMTstop-B_1_3greenlinestimulus5.png,Images/TMTstop-B_1_3redlinestimulus5.png,TMT_B,B3,58,None,4.0,658,1.0,275.0286560058594,275.0286560058594,0.0,,1.0,1.0,0.0,3,0.02871520002372563,275.0286560058594,275.0286560058594,0.0,,7.0
5,['1'],1,Images/TMTstop-B_1_3linestimulus6.png,Images/TMTstop-B_1_3greenlinestimulus6.png,Images/TMTstop-B_1_3redlinestimulus6.png,TMT_B,B3,59,None,4.0,659,1.0,275.11151123046875,275.11151123046875,0.0,,1.0,1.0,0.0,1,0.29286740004317835,275.11151123046875,275.11151123046875,0.0,,8.0
E,['3'],3,Images/TMTstop-B_1_3linestimulus7.png,Images/TMTstop-B_1_3greenlinestimulus7.png,Images/TMTstop-B_1_3redlinestimulus7.png,TMT_B,B3,60,None,4.0,660,1.0,275.47021484375,275.47021484375,0.0,,1.0,1.0,0.0,2,3,-0.05527430004440248,0.07090759999118745,275.47021484375,275.47021484375,0.0,,9.0
6,['1'],1,Images/TMTstop-B_1_3linestimulus8.png,Images/TMTstop-B_1_3greenlinestimulus8.png,Images/TMTstop-B_1_3redlinestimulus8.png,TMT_B,B3,61,None,4.0,661,1.0,275.6318054199219,275.6318054199219,0.0,,1.0,1.0,0.0,1,0.09972729999572039,275.6318054199219,275.6318054199219,0.0,,10.0
F,['3'],3,Images/TMTstop-B_1_3linestimulus9.png,Images/TMTstop-B_1_3greenlinestimulus9.png,Images/TMTstop-B_1_3redlinestimulus9.png,TMT_B,B3,62,None,4.0,662,1.0,275.7818603515625,275.7818603515625,0.0,,1.0,1.0,0.0,2,3,0.01683100004447624,0.12151660001836717,275.7818603515625,275.7818603515625,0.0,,11.0
7,['2'],2,Images/TMTstop-B_1_3linestimulus10.png,Images/TMTstop-B_1_3greenlinestimulus10.png,Images/TMTstop-B_1_3redlinestimulus10.png,TMT_B,B3,63,None,4.0,663,1.0,275.9590148925781,275.9590148925781,0.0,,1.0,1.0,0.0,1,2,0.10747240000637248,0.15994660003343597,275.9590148925781,275.9590148925781,0.0,,12.0
G,['3'],3,Images/TMTstop-B_1_3linestimulus11.png,Images/TMTstop-B_1_3greenlinestimulus11.png,Images/TMTstop-B_1_3redlinestimulus11.png,TMT_B,B3,64,None,4.0,664,1.0,276.1757507324219,276.1757507324219,0.0,,1.0,1.0,0.0,3,0.046613399987109005,276.1757507324219,276.1757507324219,0.0,,13.0
8,['1'],1,Images/TMTstop-B_1_3linestimulus12.png,Images/TMTstop-B_1_3greenlinestimulus12.png,Images/TMTstop-B_1_3redlinestimulus12.png,TMT_B,B3,65,None,4.0,665,1.0,276.2759704589844,276.2759704589844,0.0,,1.0,1.0,0.0,1,0.09338839998235926,276.2759704589844,276.2759704589844,0.0,,14.0
H,['2'],2,Images/TMTstop-B_1_3linestimulus13.png,Images/TMTstop-B_1_3greenlinestimulus13.png,Images/TMTstop-B_1_3redlinestimulus13.png,TMT_B,B3,66,None,4.0,666,1.0,276.42645263671875,276.42645263671875,0.0,,1.0,1.0,0.0,2,0.013952000008430332,276.42645263671875,276.42645263671875,0.0,,15.0
9,['1'],1,Images/TMTstop-B_1_3linestimulus14.png,Images/TMTstop-B_1_3greenlinestimulus14.png,Images/TMTstop-B_1_3redlinestimulus14.png,TMT_B,B3,67,None,4.0,667,1.0,276.4931945800781,276.4931945800781,0.0,,1.0,1.0,0.0,3,1,2,3,1,0.02227449999190867,0.1987508999882266,0.2329283999861218,0.3554770000046119,0.5202309999731369,276.4931945800781,276.4931945800781,0.0,,16.0
I,['3'],3,Images/TMTstop-B_1_3linestimulus15.png,Images/TMTstop-B_1_3greenlinestimulus15.png,Images/TMTstop-B_1_3redlinestimulus15.png,TMT_B,B3,68,None,4.0,668,1.0,277.0854797363281,277.0854797363281,0.0,,1.0,1.0,0.0,2,3,0.007879899989347905,0.09802539995871484,277.0854797363281,277.0854797363281,0.0,,17.0
10,['2'],2,Images/TMTstop-B_1_3linestimulus16.png,Images/TMTstop-B_1_3greenlinestimulus16.png,Images/TMTstop-B_1_3redlinestimulus16.png,TMT_B,B3,69,None,4.0,669,1.0,277.2729797363281,277.2729797363281,0.0,,1.0,1.0,0.0,1,2,0.09407809999538586,0.17246490000979975,277.2729797363281,277.2729797363281,0.0,,18.0
J,['1'],1,Images/TMTstop-B_1_3linestimulus17.png,Images/TMTstop-B_1_3greenlinestimulus17.png,Images/TMTstop-B_1_3redlinestimulus17.png,TMT_B,B3,70,None,4.0,670,1.0,277.5369567871094,277.5369567871094,0.0,,1.0,1.0,0.0,3,1,-0.0016229000175371766,0.18449580000014976,277.5369567871094,277.5369567871094,0.0,,19.0
11,['3'],3,Images/TMTstop-B_1_3linestimulus18.png,Images/TMTstop-B_1_3greenlinestimulus18.png,Images/TMTstop-B_1_3redlinestimulus18.png,TMT_B,B3,71,None,4.0,671,1.0,277.7878112792969,277.7878112792969,0.0,,1.0,1.0,0.0,2,3,-0.017390099994372576,0.09368000004906207,277.7878112792969,277.7878112792969,0.0,,20.0
K,['1'],1,Images/TMTstop-B_1_3linestimulus19.png,Images/TMTstop-B_1_3greenlinestimulus19.png,Images/TMTstop-B_1_3redlinestimulus19.png,TMT_B,B3,72,None,4.0,672,1.0,277.9399108886719,277.9399108886719,0.0,,1.0,1.0,0.0,1,0.1371318000019528,277.9399108886719,277.9399108886719,0.0,,21.0
12,['2'],2,Images/TMTstop-B_1_3linestimulus20.png,Images/TMTstop-B_1_3greenlinestimulus20.png,Images/TMTstop-B_1_3redlinestimulus20.png,TMT_B,B3,73,None,4.0,673,1.0,278.13970947265625,278.13970947265625,0.0,,1.0,1.0,0.0,2,0.013729500002227724,278.13970947265625,278.13970947265625,0.0,,22.0
L,['3'],3,Images/TMTstop-B_1_3linestimulus21.png,Images/TMTstop-B_1_3greenlinestimulus21.png,Images/TMTstop-B_1_3redlinestimulus21.png,TMT_B,B3,74,None,4.0,674,1.0,278.20703125,278.20703125,0.0,,1.0,1.0,0.0,3,0.08235509996302426,278.20703125,278.20703125,0.0,,23.0
13,['2'],2,Images/TMTstop-B_1_3linestimulus22.png,Images/TMTstop-B_1_3greenlinestimulus22.png,Images/TMTstop-B_1_3redlinestimulus22.png,TMT_B,B3,75,None,4.0,675,1.0,278.3405456542969,278.3405456542969,0.0,,1.0,1.0,0.0,2,0.785735499986913,278.3405456542969,278.3405456542969,0.0,,24.0
None,None,None,Images/TMTstop-B_1_3linestimulus23.png,Images/TMTstop-B_1_3greenlinestimulus23.png,Images/TMTstop-B_1_3redlinestimulus23.png,TMT_B,B3,Feedback_last,None,4.0,Feedback_last,1.0,279.1991271972656,279.1991271972656,0.0,,1.0,1.0,0.0,,'--',279.1991271972656,279.1991271972656,0.0,,25.0

extraInfo
participant,
session,001
date,2022_Dec_20_1655
expName,TMT_fmri
psychopyVersion,2021.2.3
frameRate,59.88583364190807
