Condition_rows,NumberLetter,corrAns,Correct,StimFile,Correct_StimFile,False_StimFile,Block,restartpractice.thisRepN,restartpractice.thisTrialN,restartpractice.thisN,restartpractice.thisIndex,trials_practice.thisRepN,trials_practice.thisTrialN,trials_practice.thisN,trials_practice.thisIndex,Condition_trials.thisRepN,Condition_trials.thisTrialN,Condition_trials.thisN,Condition_trials.thisIndex,trials.thisRepN,trials.thisTrialN,trials.thisN,trials.thisIndex,Instruct.started,Instruct.stopped,image_2.started,image_2.stopped,key_resp_6.keys,key_resp_6.rt,key_resp_6.started,key_resp_6.stopped,polygon.started,polygon.stopped,Stim_practice.started,Stim_practice.stopped,key_resp_practice.keys,key_resp_practice.rt,key_resp_practice.started,key_resp_practice.stopped,text_5.started,text_5.stopped,key_resp_5.keys,key_resp_5.rt,key_resp_5.started,key_resp_5.stopped,Stim.started,Stim.stopped,key_resp_2.keys,key_resp_2.corr,key_resp_2.rt,key_resp_2.started,key_resp_2.stopped,text.started,text.stopped,participant,session,date,expName,psychopyVersion,frameRate,
,,,,,,,,,,,,,,,,,,,,,,,,6.39283680007793,None,6.886044600047171,None,2,0.6563923999201506,6.886044600047171,None,,,,,,,,,,,,,,,,,,,,,,,,,001,2022_Jan_12_1745,TMTAstop-A,2021.2.3,145.92617879860967,
0:26,1,['2'],2,TMTstop-A_1_1.png,TMTstop-A_1_1.png,TMTstop-A_1_1.png,1,,,,,,,,,0,0,0,0,0,0,0,0,,,,,,,,,16.732005200115964,None,14.555361300008371,None,3,0.7708299001678824,14.555361300008371,None,15.669739300152287,None,2,1.049717399990186,15.669739300152287,None,19.810905599966645,None,"['1', '2']",1,"[0.580268100136891, 0.6779972000513226]",19.810905599966645,None,,,,001,2022_Jan_12_1745,TMTAstop-A,2021.2.3,145.92617879860967,
0:26,2,['1'],1,TMTstop-A_1_1.png,TMTstop-A_1_1firstgreen.png,TMTstop-A_1_1firstred.png,1,,,,,,,,,0,0,0,0,0,1,1,1,,,,,,,,,,,,,,,,,,,,,,,20.603059699991718,None,"['3', '1']",1,"[0.05182819999754429, 0.19324920000508428]",20.603059699991718,None,,,,001,2022_Jan_12_1745,TMTAstop-A,2021.2.3,145.92617879860967,
0:26,3,['2'],2,TMTstop-A_1_1linestimulus0.png,TMTstop-A_1_1greenlinestimulus0.png,TMTstop-A_1_1redlinestimulus0.png,1,,,,,,,,,0,0,0,0,0,2,2,2,,,,,,,,,,,,,,,,,,,,,,,20.8943169999402,None,['2'],1,[-0.016693100100383162],20.8943169999402,None,,,,001,2022_Jan_12_1745,TMTAstop-A,2021.2.3,145.92617879860967,
0:26,4,['3'],3,TMTstop-A_1_1linestimulus1.png,TMTstop-A_1_1greenlinestimulus1.png,TMTstop-A_1_1redlinestimulus1.png,1,,,,,,,,,0,0,0,0,0,3,3,3,,,,,,,,,,,,,,,,,,,,,,,20.977614300092682,None,['3'],1,[0.040088099893182516],20.977614300092682,None,,,,001,2022_Jan_12_1745,TMTAstop-A,2021.2.3,145.92617879860967,
0:26,5,['2'],2,TMTstop-A_1_1linestimulus2.png,TMTstop-A_1_1greenlinestimulus2.png,TMTstop-A_1_1redlinestimulus2.png,1,,,,,,,,,0,0,0,0,0,4,4,4,,,,,,,,,,,,,,,,,,,,,,,21.08959099999629,None,"['1', '2']",1,"[0.28332490008324385, 0.34893220011144876]",21.08959099999629,None,,,,001,2022_Jan_12_1745,TMTAstop-A,2021.2.3,145.92617879860967,
0:26,6,['3'],3,TMTstop-A_1_1linestimulus3.png,TMTstop-A_1_1greenlinestimulus3.png,TMTstop-A_1_1redlinestimulus3.png,1,,,,,,,,,0,0,0,0,0,5,5,5,,,,,,,,,,,,,,,,,,,,,,,21.533101100008935,None,['3'],1,[0.028020499972626567],21.533101100008935,None,,,,001,2022_Jan_12_1745,TMTAstop-A,2021.2.3,145.92617879860967,
0:26,7,['2'],2,TMTstop-A_1_1linestimulus4.png,TMTstop-A_1_1greenlinestimulus4.png,TMTstop-A_1_1redlinestimulus4.png,1,,,,,,,,,0,0,0,0,0,6,6,6,,,,,,,,,,,,,,,,,,,,,,,21.630551000125706,None,"['1', '2']",1,"[0.10149860009551048, 0.15057930001057684]",21.630551000125706,None,,,,001,2022_Jan_12_1745,TMTAstop-A,2021.2.3,145.92617879860967,
0:26,8,['1'],1,TMTstop-A_1_1linestimulus5.png,TMTstop-A_1_1greenlinestimulus5.png,TMTstop-A_1_1redlinestimulus5.png,1,,,,,,,,,0,0,0,0,0,7,7,7,,,,,,,,,,,,,,,,,,,,,,,21.887624900089577,None,"['3', '1', '2', '3', '1']",1,"[0.022138800006359816, 0.36400549998506904, 0.4000120998825878, 0.5371431999374181, 0.7206619998905808]",21.887624900089577,None,,,,001,2022_Jan_12_1745,TMTAstop-A,2021.2.3,145.92617879860967,
0:26,9,['2'],2,TMTstop-A_1_1linestimulus6.png,TMTstop-A_1_1greenlinestimulus6.png,TMTstop-A_1_1redlinestimulus6.png,1,,,,,,,,,0,0,0,0,0,8,8,8,,,,,,,,,,,,,,,,,,,,,,,22.69995030015707,None,['2'],1,[-0.042773500084877014],22.69995030015707,None,,,,001,2022_Jan_12_1745,TMTAstop-A,2021.2.3,145.92617879860967,
0:26,10,['1'],1,TMTstop-A_1_1linestimulus7.png,TMTstop-A_1_1greenlinestimulus7.png,TMTstop-A_1_1redlinestimulus7.png,1,,,,,,,,,0,0,0,0,0,9,9,9,,,,,,,,,,,,,,,,,,,,,,,22.769279700005427,None,"['3', '1']",1,"[0.007300799945369363, 0.16032640007324517]",22.769279700005427,None,,,,001,2022_Jan_12_1745,TMTAstop-A,2021.2.3,145.92617879860967,
0:26,11,['2'],2,TMTstop-A_1_1linestimulus8.png,TMTstop-A_1_1greenlinestimulus8.png,TMTstop-A_1_1redlinestimulus8.png,1,,,,,,,,,0,0,0,0,0,10,10,10,,,,,,,,,,,,,,,,,,,,,,,23.019973800051957,None,['2'],1,[-0.02916839998215437],23.019973800051957,None,,,,001,2022_Jan_12_1745,TMTAstop-A,2021.2.3,145.92617879860967,
0:26,12,['3'],3,TMTstop-A_1_1linestimulus9.png,TMTstop-A_1_1greenlinestimulus9.png,TMTstop-A_1_1redlinestimulus9.png,1,,,,,,,,,0,0,0,0,0,11,11,11,,,,,,,,,,,,,,,,,,,,,,,23.10377940000035,None,['3'],1,[-0.021030799951404333],23.10377940000035,None,,,,001,2022_Jan_12_1745,TMTAstop-A,2021.2.3,145.92617879860967,
0:26,13,['2'],2,TMTstop-A_1_1linestimulus10.png,TMTstop-A_1_1greenlinestimulus10.png,TMTstop-A_1_1redlinestimulus10.png,1,,,,,,,,,0,0,0,0,0,12,12,12,,,,,,,,,,,,,,,,,,,,,,,23.188484200043604,None,"['1', '2']",1,"[0.03079820005223155, 0.09343710006214678]",23.188484200043604,None,,,,001,2022_Jan_12_1745,TMTAstop-A,2021.2.3,145.92617879860967,
0:26,14,['3'],3,TMTstop-A_1_1linestimulus11.png,TMTstop-A_1_1greenlinestimulus11.png,TMTstop-A_1_1redlinestimulus11.png,1,,,,,,,,,0,0,0,0,0,13,13,13,,,,,,,,,,,,,,,,,,,,,,,23.409266400150955,None,['3'],1,[0.014226800063624978],23.409266400150955,None,,,,001,2022_Jan_12_1745,TMTAstop-A,2021.2.3,145.92617879860967,
0:26,15,['1'],1,TMTstop-A_1_1linestimulus12.png,TMTstop-A_1_1greenlinestimulus12.png,TMTstop-A_1_1redlinestimulus12.png,1,,,,,,,,,0,0,0,0,0,14,14,14,,,,,,,,,,,,,,,,,,,,,,,23.526366099948063,None,['1'],1,[-0.0232466000597924],23.526366099948063,None,,,,001,2022_Jan_12_1745,TMTAstop-A,2021.2.3,145.92617879860967,
0:26,16,['3'],3,TMTstop-A_1_1linestimulus13.png,TMTstop-A_1_1greenlinestimulus13.png,TMTstop-A_1_1redlinestimulus13.png,1,,,,,,,,,0,0,0,0,0,15,15,15,,,,,,,,,,,,,,,,,,,,,,,23.60316800000146,None,"['2', '3']",1,"[-0.05208050017245114, 0.061361099826171994]",23.60316800000146,None,,,,001,2022_Jan_12_1745,TMTAstop-A,2021.2.3,145.92617879860967,
0:26,17,['2'],2,TMTstop-A_1_1linestimulus14.png,TMTstop-A_1_1greenlinestimulus14.png,TMTstop-A_1_1redlinestimulus14.png,1,,,,,,,,,0,0,0,0,0,16,16,16,,,,,,,,,,,,,,,,,,,,,,,23.76249140012078,None,"['1', '2']",1,"[0.06980139994993806, 0.12160539999604225]",23.76249140012078,None,,,,001,2022_Jan_12_1745,TMTAstop-A,2021.2.3,145.92617879860967,
0:26,18,['3'],3,TMTstop-A_1_1linestimulus15.png,TMTstop-A_1_1greenlinestimulus15.png,TMTstop-A_1_1redlinestimulus15.png,1,,,,,,,,,0,0,0,0,0,17,17,17,,,,,,,,,,,,,,,,,,,,,,,24.005767200142145,None,['3'],1,[0.03894870006479323],24.005767200142145,None,,,,001,2022_Jan_12_1745,TMTAstop-A,2021.2.3,145.92617879860967,
0:26,19,['1'],1,TMTstop-A_1_1linestimulus16.png,TMTstop-A_1_1greenlinestimulus16.png,TMTstop-A_1_1redlinestimulus16.png,1,,,,,,,,,0,0,0,0,0,18,18,18,,,,,,,,,,,,,,,,,,,,,,,24.130562799982727,None,['1'],1,[0.03666290012188256],24.130562799982727,None,,,,001,2022_Jan_12_1745,TMTAstop-A,2021.2.3,145.92617879860967,
0:26,20,['3'],3,TMTstop-A_1_1linestimulus17.png,TMTstop-A_1_1greenlinestimulus17.png,TMTstop-A_1_1redlinestimulus17.png,1,,,,,,,,,0,0,0,0,0,19,19,19,,,,,,,,,,,,,,,,,,,,,,,24.2485271000769,None,"['2', '3']",1,"[-0.03990360000170767, 0.12214089999906719]",24.2485271000769,None,,,,001,2022_Jan_12_1745,TMTAstop-A,2021.2.3,145.92617879860967,
0:26,21,['1'],1,TMTstop-A_1_1linestimulus18.png,TMTstop-A_1_1greenlinestimulus18.png,TMTstop-A_1_1redlinestimulus18.png,1,,,,,,,,,0,0,0,0,0,20,20,20,,,,,,,,,,,,,,,,,,,,,,,24.449678600067273,None,['1'],1,[0.16738950018770993],24.449678600067273,None,,,,001,2022_Jan_12_1745,TMTAstop-A,2021.2.3,145.92617879860967,
0:26,22,['3'],3,TMTstop-A_1_1linestimulus19.png,TMTstop-A_1_1greenlinestimulus19.png,TMTstop-A_1_1redlinestimulus19.png,1,,,,,,,,,0,0,0,0,0,21,21,21,,,,,,,,,,,,,,,,,,,,,,,24.706616500159726,None,"['2', '3']",1,"[-0.005703600123524666, 0.09057279978878796]",24.706616500159726,None,,,,001,2022_Jan_12_1745,TMTAstop-A,2021.2.3,145.92617879860967,
0:26,23,['1'],1,TMTstop-A_1_1linestimulus20.png,TMTstop-A_1_1greenlinestimulus20.png,TMTstop-A_1_1redlinestimulus20.png,1,,,,,,,,,0,0,0,0,0,22,22,22,,,,,,,,,,,,,,,,,,,,,,,24.908158299978822,None,['1'],1,[0.02674119989387691],24.908158299978822,None,,,,001,2022_Jan_12_1745,TMTAstop-A,2021.2.3,145.92617879860967,
0:26,24,['2'],2,TMTstop-A_1_1linestimulus21.png,TMTstop-A_1_1greenlinestimulus21.png,TMTstop-A_1_1redlinestimulus21.png,1,,,,,,,,,0,0,0,0,0,23,23,23,,,,,,,,,,,,,,,,,,,,,,,25.013105900026858,None,['2'],1,[-0.02125550014898181],25.013105900026858,None,,,,001,2022_Jan_12_1745,TMTAstop-A,2021.2.3,145.92617879860967,
0:26,25,['3'],3,TMTstop-A_1_1linestimulus22.png,TMTstop-A_1_1greenlinestimulus22.png,TMTstop-A_1_1redlinestimulus22.png,1,,,,,,,,,0,0,0,0,0,24,24,24,,,,,,,,,,,,,,,,,,,,,,,25.088517900090665,None,['3'],1,[0.024355100002139807],25.088517900090665,None,,,,001,2022_Jan_12_1745,TMTAstop-A,2021.2.3,145.92617879860967,
0:26,None,None,None,TMTstop-A_1_1linestimulus23.png,TMTstop-A_1_1greenlinestimulus23.png,TMTstop-A_1_1redlinestimulus23.png,1,,,,,,,,,0,0,0,0,0,25,25,25,,,,,,,,,,,,,,,,,,,,,,,25.192996900063008,None,"['1', '2', '3']",0,"[0.04266869998537004, 0.11109139979816973, 0.23763069999404252]",25.192996900063008,None,,,,001,2022_Jan_12_1745,TMTAstop-A,2021.2.3,145.92617879860967,
26:52,1,['3'],3,TMTstop-A_1_2.png,TMTstop-A_1_2.png,TMTstop-A_1_2.png,2,,,,,,,,,0,1,1,1,0,0,0,0,,,,,,,,,26.273966900072992,None,,,,,,,,,,,,,29.310229799943045,None,"['1', '2', '3']",1,"[0.5361071000806987, 0.579165400005877, 0.7427553001325577]",29.310229799943045,None,,,,001,2022_Jan_12_1745,TMTAstop-A,2021.2.3,145.92617879860967,
26:52,2,['2'],2,TMTstop-A_1_2.png,TMTstop-A_1_2firstgreen.png,TMTstop-A_1_2firstred.png,2,,,,,,,,,0,1,1,1,0,1,1,1,,,,,,,,,,,,,,,,,,,,,,,30.123281199950725,None,"['1', '2']",1,"[0.09840940008871257, 0.21459620003588498]",30.123281199950725,None,,,,001,2022_Jan_12_1745,TMTAstop-A,2021.2.3,145.92617879860967,
26:52,3,['3'],3,TMTstop-A_1_2linestimulus0.png,TMTstop-A_1_2greenlinestimulus0.png,TMTstop-A_1_2redlinestimulus0.png,2,,,,,,,,,0,1,1,1,0,2,2,2,,,,,,,,,,,,,,,,,,,,,,,30.43550240015611,None,['3'],1,[-0.01086780009791255],30.43550240015611,None,,,,001,2022_Jan_12_1745,TMTAstop-A,2021.2.3,145.92617879860967,
26:52,4,['1'],1,TMTstop-A_1_2linestimulus1.png,TMTstop-A_1_2greenlinestimulus1.png,TMTstop-A_1_2redlinestimulus1.png,2,,,,,,,,,0,1,1,1,0,3,3,3,,,,,,,,,,,,,,,,,,,,,,,30.50526629993692,None,['1'],1,[0.1163544999435544],30.50526629993692,None,,,,001,2022_Jan_12_1745,TMTAstop-A,2021.2.3,145.92617879860967,
26:52,5,['2'],2,TMTstop-A_1_2linestimulus2.png,TMTstop-A_1_2greenlinestimulus2.png,TMTstop-A_1_2redlinestimulus2.png,2,,,,,,,,,0,1,1,1,0,4,4,4,,,,,,,,,,,,,,,,,,,,,,,30.699847399955615,None,['2'],1,[-0.03503799997270107],30.699847399955615,None,,,,001,2022_Jan_12_1745,TMTAstop-A,2021.2.3,145.92617879860967,
26:52,6,['3'],3,TMTstop-A_1_2linestimulus3.png,TMTstop-A_1_2greenlinestimulus3.png,TMTstop-A_1_2redlinestimulus3.png,2,,,,,,,,,0,1,1,1,0,5,5,5,,,,,,,,,,,,,,,,,,,,,,,30.76898130006157,None,['3'],1,[0.02435230021364987],30.76898130006157,None,,,,001,2022_Jan_12_1745,TMTAstop-A,2021.2.3,145.92617879860967,
26:52,7,['2'],2,TMTstop-A_1_2linestimulus4.png,TMTstop-A_1_2greenlinestimulus4.png,TMTstop-A_1_2redlinestimulus4.png,2,,,,,,,,,0,1,1,1,0,6,6,6,,,,,,,,,,,,,,,,,,,,,,,30.866314999992028,None,"['1', '2']",1,"[0.3604413000866771, 0.46551760006695986]",30.866314999992028,None,,,,001,2022_Jan_12_1745,TMTAstop-A,2021.2.3,145.92617879860967,
26:52,8,['1'],1,TMTstop-A_1_2linestimulus5.png,TMTstop-A_1_2greenlinestimulus5.png,TMTstop-A_1_2redlinestimulus5.png,2,,,,,,,,,0,1,1,1,0,7,7,7,,,,,,,,,,,,,,,,,,,,,,,31.435683000134304,None,"['3', '1']",1,"[-0.012926199939101934, 0.17357679991982877]",31.435683000134304,None,,,,001,2022_Jan_12_1745,TMTAstop-A,2021.2.3,145.92617879860967,
26:52,9,['2'],2,TMTstop-A_1_2linestimulus6.png,TMTstop-A_1_2greenlinestimulus6.png,TMTstop-A_1_2redlinestimulus6.png,2,,,,,,,,,0,1,1,1,0,8,8,8,,,,,,,,,,,,,,,,,,,,,,,31.713573400164023,None,['2'],1,[-0.02423139987513423],31.713573400164023,None,,,,001,2022_Jan_12_1745,TMTAstop-A,2021.2.3,145.92617879860967,
26:52,10,['3'],3,TMTstop-A_1_2linestimulus7.png,TMTstop-A_1_2greenlinestimulus7.png,TMTstop-A_1_2redlinestimulus7.png,2,,,,,,,,,0,1,1,1,0,9,9,9,,,,,,,,,,,,,,,,,,,,,,,31.783661799971014,None,['3'],1,[0.007647200021892786],31.783661799971014,None,,,,001,2022_Jan_12_1745,TMTAstop-A,2021.2.3,145.92617879860967,
26:52,11,['1'],1,TMTstop-A_1_2linestimulus8.png,TMTstop-A_1_2greenlinestimulus8.png,TMTstop-A_1_2redlinestimulus8.png,2,,,,,,,,,0,1,1,1,0,10,10,10,,,,,,,,,,,,,,,,,,,,,,,31.86631579999812,None,['1'],1,[0.11088179983198643],31.86631579999812,None,,,,001,2022_Jan_12_1745,TMTAstop-A,2021.2.3,145.92617879860967,
26:52,12,['2'],2,TMTstop-A_1_2linestimulus9.png,TMTstop-A_1_2greenlinestimulus9.png,TMTstop-A_1_2redlinestimulus9.png,2,,,,,,,,,0,1,1,1,0,11,11,11,,,,,,,,,,,,,,,,,,,,,,,32.047119500115514,None,['2'],1,[-0.029183199862018228],32.047119500115514,None,,,,001,2022_Jan_12_1745,TMTAstop-A,2021.2.3,145.92617879860967,
26:52,13,['3'],3,TMTstop-A_1_2linestimulus10.png,TMTstop-A_1_2greenlinestimulus10.png,TMTstop-A_1_2redlinestimulus10.png,2,,,,,,,,,0,1,1,1,0,12,12,12,,,,,,,,,,,,,,,,,,,,,,,32.11632509995252,None,['3'],1,[0.014500400051474571],32.11632509995252,None,,,,001,2022_Jan_12_1745,TMTAstop-A,2021.2.3,145.92617879860967,
26:52,14,['1'],1,TMTstop-A_1_2linestimulus11.png,TMTstop-A_1_2greenlinestimulus11.png,TMTstop-A_1_2redlinestimulus11.png,2,,,,,,,,,0,1,1,1,0,13,13,13,,,,,,,,,,,,,,,,,,,,,,,32.19972690008581,None,['1'],1,[0.09013039991259575],32.19972690008581,None,,,,001,2022_Jan_12_1745,TMTAstop-A,2021.2.3,145.92617879860967,
26:52,15,['3'],3,TMTstop-A_1_2linestimulus12.png,TMTstop-A_1_2greenlinestimulus12.png,TMTstop-A_1_2redlinestimulus12.png,2,,,,,,,,,0,1,1,1,0,14,14,14,,,,,,,,,,,,,,,,,,,,,,,32.36664619995281,None,"['2', '3']",1,"[-0.00615020003169775, 0.09272400010377169]",32.36664619995281,None,,,,001,2022_Jan_12_1745,TMTAstop-A,2021.2.3,145.92617879860967,
26:52,16,['1'],1,TMTstop-A_1_2linestimulus13.png,TMTstop-A_1_2greenlinestimulus13.png,TMTstop-A_1_2redlinestimulus13.png,2,,,,,,,,,0,1,1,1,0,15,15,15,,,,,,,,,,,,,,,,,,,,,,,32.57489000004716,None,['1'],1,[0.027967900037765503],32.57489000004716,None,,,,001,2022_Jan_12_1745,TMTAstop-A,2021.2.3,145.92617879860967,
26:52,17,['2'],2,TMTstop-A_1_2linestimulus14.png,TMTstop-A_1_2greenlinestimulus14.png,TMTstop-A_1_2redlinestimulus14.png,2,,,,,,,,,0,1,1,1,0,16,16,16,,,,,,,,,,,,,,,,,,,,,,,32.67220379994251,None,['2'],1,[0.002924900036305189],32.67220379994251,None,,,,001,2022_Jan_12_1745,TMTAstop-A,2021.2.3,145.92617879860967,
26:52,18,['1'],1,TMTstop-A_1_2linestimulus15.png,TMTstop-A_1_2greenlinestimulus15.png,TMTstop-A_1_2redlinestimulus15.png,2,,,,,,,,,0,1,1,1,0,17,17,17,,,,,,,,,,,,,,,,,,,,,,,32.755155000137165,None,"['3', '1']",1,"[0.012037399923428893, 0.1444366998039186]",32.755155000137165,None,,,,001,2022_Jan_12_1745,TMTAstop-A,2021.2.3,145.92617879860967,
26:52,19,['3'],3,TMTstop-A_1_2linestimulus16.png,TMTstop-A_1_2greenlinestimulus16.png,TMTstop-A_1_2redlinestimulus16.png,2,,,,,,,,,0,1,1,1,0,18,18,18,,,,,,,,,,,,,,,,,,,,,,,32.99862110009417,None,"['2', '3']",1,"[-0.02881300006993115, 0.0787285000551492]",32.99862110009417,None,,,,001,2022_Jan_12_1745,TMTAstop-A,2021.2.3,145.92617879860967,
26:52,20,['1'],1,TMTstop-A_1_2linestimulus17.png,TMTstop-A_1_2greenlinestimulus17.png,TMTstop-A_1_2redlinestimulus17.png,2,,,,,,,,,0,1,1,1,0,19,19,19,,,,,,,,,,,,,,,,,,,,,,,33.15105829993263,None,['1'],1,[0.06204609991982579],33.15105829993263,None,,,,001,2022_Jan_12_1745,TMTAstop-A,2021.2.3,145.92617879860967,
26:52,21,['2'],2,TMTstop-A_1_2linestimulus18.png,TMTstop-A_1_2greenlinestimulus18.png,TMTstop-A_1_2redlinestimulus18.png,2,,,,,,,,,0,1,1,1,0,20,20,20,,,,,,,,,,,,,,,,,,,,,,,33.28996710013598,None,['2'],1,[-0.002500399947166443],33.28996710013598,None,,,,001,2022_Jan_12_1745,TMTAstop-A,2021.2.3,145.92617879860967,
26:52,22,['1'],1,TMTstop-A_1_2linestimulus19.png,TMTstop-A_1_2greenlinestimulus19.png,TMTstop-A_1_2redlinestimulus19.png,2,,,,,,,,,0,1,1,1,0,21,21,21,,,,,,,,,,,,,,,,,,,,,,,33.36620269995183,None,"['3', '1']",1,"[0.021588200004771352, 0.1647345998790115]",33.36620269995183,None,,,,001,2022_Jan_12_1745,TMTAstop-A,2021.2.3,145.92617879860967,
26:52,23,['2'],2,TMTstop-A_1_2linestimulus20.png,TMTstop-A_1_2greenlinestimulus20.png,TMTstop-A_1_2redlinestimulus20.png,2,,,,,,,,,0,1,1,1,0,22,22,22,,,,,,,,,,,,,,,,,,,,,,,33.65949700004421,None,['2'],1,[-0.0692121998872608],33.65949700004421,None,,,,001,2022_Jan_12_1745,TMTAstop-A,2021.2.3,145.92617879860967,
26:52,24,['1'],1,TMTstop-A_1_2linestimulus21.png,TMTstop-A_1_2greenlinestimulus21.png,TMTstop-A_1_2redlinestimulus21.png,2,,,,,,,,,0,1,1,1,0,23,23,23,,,,,,,,,,,,,,,,,,,,,,,33.74226119997911,None,"['3', '1']",1,"[-0.021457300055772066, 0.10734979994595051]",33.74226119997911,None,,,,001,2022_Jan_12_1745,TMTAstop-A,2021.2.3,145.92617879860967,
26:52,25,['2'],2,TMTstop-A_1_2linestimulus22.png,TMTstop-A_1_2greenlinestimulus22.png,TMTstop-A_1_2redlinestimulus22.png,2,,,,,,,,,0,1,1,1,0,24,24,24,,,,,,,,,,,,,,,,,,,,,,,33.97209189995192,None,['2'],1,[-0.04794359998777509],33.97209189995192,None,,,,001,2022_Jan_12_1745,TMTAstop-A,2021.2.3,145.92617879860967,
26:52,None,None,None,TMTstop-A_1_2linestimulus23.png,TMTstop-A_1_2greenlinestimulus23.png,TMTstop-A_1_2redlinestimulus23.png,2,,,,,,,,,0,1,1,1,0,25,25,25,,,,,,,,,,,,,,,,,,,,,,,34.04694529995322,None,"['3', '1', '2', '3', '1', '2', '3']",0,"[0.005295600043609738, 0.12790079996921122, 0.21123609994538128, 0.3410982000641525, 0.46982140000909567, 0.5467201001010835, 0.6931314999237657]",34.04694529995322,None,,,,001,2022_Jan_12_1745,TMTAstop-A,2021.2.3,145.92617879860967,
52:78,1,['2'],2,TMTstop-A_1_3.png,TMTstop-A_1_3.png,TMTstop-A_1_3.png,3,,,,,,,,,0,2,2,2,0,0,0,0,,,,,,,,,35.155995700042695,None,,,,,,,,,,,,,38.185118900146335,None,"['3', '1', '2']",1,"[0.6948458000551909, 0.7945725999306887, 0.7992926000151783]",38.185118900146335,None,,,,001,2022_Jan_12_1745,TMTAstop-A,2021.2.3,145.92617879860967,
52:78,2,['1'],1,TMTstop-A_1_3.png,TMTstop-A_1_3firstgreen.png,TMTstop-A_1_3firstred.png,3,,,,,,,,,0,2,2,2,0,1,1,1,,,,,,,,,,,,,,,,,,,,,,,39.05382760008797,None,"['3', '1']",1,"[0.0950650000013411, 0.26350550004281104]",39.05382760008797,None,,,,001,2022_Jan_12_1745,TMTAstop-A,2021.2.3,145.92617879860967,
52:78,3,['3'],3,TMTstop-A_1_3linestimulus0.png,TMTstop-A_1_3greenlinestimulus0.png,TMTstop-A_1_3redlinestimulus0.png,3,,,,,,,,,0,2,2,2,0,2,2,2,,,,,,,,,,,,,,,,,,,,,,,39.3872370000463,None,"['2', '3']",1,"[-0.024645699886605144, 0.12137830001302063]",39.3872370000463,None,,,,001,2022_Jan_12_1745,TMTAstop-A,2021.2.3,145.92617879860967,
52:78,4,['2'],2,TMTstop-A_1_3linestimulus1.png,TMTstop-A_1_3greenlinestimulus1.png,TMTstop-A_1_3redlinestimulus1.png,3,,,,,,,,,0,2,2,2,0,3,3,3,,,,,,,,,,,,,,,,,,,,,,,39.581429900135845,None,"['1', '2']",1,"[0.4564139998983592, 0.5324488999322057]",39.581429900135845,None,,,,001,2022_Jan_12_1745,TMTAstop-A,2021.2.3,145.92617879860967,
52:78,5,['3'],3,TMTstop-A_1_3linestimulus2.png,TMTstop-A_1_3greenlinestimulus2.png,TMTstop-A_1_3redlinestimulus2.png,3,,,,,,,,,0,2,2,2,0,4,4,4,,,,,,,,,,,,,,,,,,,,,,,40.21307620010339,None,['3'],1,[0.04816960007883608],40.21307620010339,None,,,,001,2022_Jan_12_1745,TMTAstop-A,2021.2.3,145.92617879860967,
52:78,6,['2'],2,TMTstop-A_1_3linestimulus3.png,TMTstop-A_1_3greenlinestimulus3.png,TMTstop-A_1_3redlinestimulus3.png,3,,,,,,,,,0,2,2,2,0,5,5,5,,,,,,,,,,,,,,,,,,,,,,,40.33176900004037,None,"['1', '2']",1,"[0.09008380002342165, 0.15888110012747347]",40.33176900004037,None,,,,001,2022_Jan_12_1745,TMTAstop-A,2021.2.3,145.92617879860967,
52:78,7,['1'],1,TMTstop-A_1_3linestimulus4.png,TMTstop-A_1_3greenlinestimulus4.png,TMTstop-A_1_3redlinestimulus4.png,3,,,,,,,,,0,2,2,2,0,6,6,6,,,,,,,,,,,,,,,,,,,,,,,40.574485199991614,None,"['3', '1']",1,"[0.03310459991917014, 0.16621169983409345]",40.574485199991614,None,,,,001,2022_Jan_12_1745,TMTAstop-A,2021.2.3,145.92617879860967,
52:78,8,['2'],2,TMTstop-A_1_3linestimulus5.png,TMTstop-A_1_3greenlinestimulus5.png,TMTstop-A_1_3redlinestimulus5.png,3,,,,,,,,,0,2,2,2,0,7,7,7,,,,,,,,,,,,,,,,,,,,,,,40.810506500070915,None,['2'],1,[-0.014834299916401505],40.810506500070915,None,,,,001,2022_Jan_12_1745,TMTAstop-A,2021.2.3,145.92617879860967,
52:78,9,['3'],3,TMTstop-A_1_3linestimulus6.png,TMTstop-A_1_3greenlinestimulus6.png,TMTstop-A_1_3redlinestimulus6.png,3,,,,,,,,,0,2,2,2,0,8,8,8,,,,,,,,,,,,,,,,,,,,,,,40.880102100083604,None,['3'],1,[0.048134899931028485],40.880102100083604,None,,,,001,2022_Jan_12_1745,TMTAstop-A,2021.2.3,145.92617879860967,
52:78,10,['2'],2,TMTstop-A_1_3linestimulus7.png,TMTstop-A_1_3greenlinestimulus7.png,TMTstop-A_1_3redlinestimulus7.png,3,,,,,,,,,0,2,2,2,0,9,9,9,,,,,,,,,,,,,,,,,,,,,,,40.99818430002779,None,"['1', '2']",1,"[0.04772550007328391, 0.10141579993069172]",40.99818430002779,None,,,,001,2022_Jan_12_1745,TMTAstop-A,2021.2.3,145.92617879860967,
52:78,11,['3'],3,TMTstop-A_1_3linestimulus8.png,TMTstop-A_1_3greenlinestimulus8.png,TMTstop-A_1_3redlinestimulus8.png,3,,,,,,,,,0,2,2,2,0,10,10,10,,,,,,,,,,,,,,,,,,,,,,,41.20626060012728,None,['3'],1,[0.008718400029465556],41.20626060012728,None,,,,001,2022_Jan_12_1745,TMTAstop-A,2021.2.3,145.92617879860967,
52:78,12,['2'],2,TMTstop-A_1_3linestimulus9.png,TMTstop-A_1_3greenlinestimulus9.png,TMTstop-A_1_3redlinestimulus9.png,3,,,,,,,,,0,2,2,2,0,11,11,11,,,,,,,,,,,,,,,,,,,,,,,41.290048100054264,None,"['1', '2']",1,"[0.058654800057411194, 0.0992339001968503]",41.290048100054264,None,,,,001,2022_Jan_12_1745,TMTAstop-A,2021.2.3,145.92617879860967,
52:78,13,['1'],1,TMTstop-A_1_3linestimulus10.png,TMTstop-A_1_3greenlinestimulus10.png,TMTstop-A_1_3redlinestimulus10.png,3,,,,,,,,,0,2,2,2,0,12,12,12,,,,,,,,,,,,,,,,,,,,,,,41.47124220011756,None,"['3', '1']",1,"[0.03299939981661737, 0.1612233999185264]",41.47124220011756,None,,,,001,2022_Jan_12_1745,TMTAstop-A,2021.2.3,145.92617879860967,
52:78,14,['2'],2,TMTstop-A_1_3linestimulus11.png,TMTstop-A_1_3greenlinestimulus11.png,TMTstop-A_1_3redlinestimulus11.png,3,,,,,,,,,0,2,2,2,0,13,13,13,,,,,,,,,,,,,,,,,,,,,,,41.71427660016343,None,['2'],1,[-0.03705510008148849],41.71427660016343,None,,,,001,2022_Jan_12_1745,TMTAstop-A,2021.2.3,145.92617879860967,
52:78,15,['1'],1,TMTstop-A_1_3linestimulus12.png,TMTstop-A_1_3greenlinestimulus12.png,TMTstop-A_1_3redlinestimulus12.png,3,,,,,,,,,0,2,2,2,0,14,14,14,,,,,,,,,,,,,,,,,,,,,,,41.797594900010154,None,"['3', '1']",1,"[-0.004983199993148446, 0.13061779993586242]",41.797594900010154,None,,,,001,2022_Jan_12_1745,TMTAstop-A,2021.2.3,145.92617879860967,
52:78,16,['2'],2,TMTstop-A_1_3linestimulus13.png,TMTstop-A_1_3greenlinestimulus13.png,TMTstop-A_1_3redlinestimulus13.png,3,,,,,,,,,0,2,2,2,0,15,15,15,,,,,,,,,,,,,,,,,,,,,,,42.03280570008792,None,['2'],1,[-0.053314700024202466],42.03280570008792,None,,,,001,2022_Jan_12_1745,TMTAstop-A,2021.2.3,145.92617879860967,
52:78,17,['3'],3,TMTstop-A_1_3linestimulus14.png,TMTstop-A_1_3greenlinestimulus14.png,TMTstop-A_1_3redlinestimulus14.png,3,,,,,,,,,0,2,2,2,0,16,16,16,,,,,,,,,,,,,,,,,,,,,,,42.10223089996725,None,['3'],1,[-0.004750599851831794],42.10223089996725,None,,,,001,2022_Jan_12_1745,TMTAstop-A,2021.2.3,145.92617879860967,
52:78,18,['2'],2,TMTstop-A_1_3linestimulus15.png,TMTstop-A_1_3greenlinestimulus15.png,TMTstop-A_1_3redlinestimulus15.png,3,,,,,,,,,0,2,2,2,0,17,17,17,,,,,,,,,,,,,,,,,,,,,,,42.17195700015873,None,"['1', '2']",1,"[0.09084059996530414, 0.12327639991417527]",42.17195700015873,None,,,,001,2022_Jan_12_1745,TMTAstop-A,2021.2.3,145.92617879860967,
52:78,19,['1'],1,TMTstop-A_1_3linestimulus16.png,TMTstop-A_1_3greenlinestimulus16.png,TMTstop-A_1_3redlinestimulus16.png,3,,,,,,,,,0,2,2,2,0,18,18,18,,,,,,,,,,,,,,,,,,,,,,,42.40917160012759,None,"['3', '1', '2', '1', '2', '3', '1']",1,"[0.008718399796634912, 0.19595189997926354, 0.20044229994527996, 0.4641620998736471, 0.47126609995029867, 0.6125267997849733, 0.7725699997972697]",42.40917160012759,None,,,,001,2022_Jan_12_1745,TMTAstop-A,2021.2.3,145.92617879860967,
52:78,20,['2'],2,TMTstop-A_1_3linestimulus17.png,TMTstop-A_1_3greenlinestimulus17.png,TMTstop-A_1_3redlinestimulus17.png,3,,,,,,,,,0,2,2,2,0,19,19,19,,,,,,,,,,,,,,,,,,,,,,,43.27591730002314,None,['2'],1,[-0.04210299998521805],43.27591730002314,None,,,,001,2022_Jan_12_1745,TMTAstop-A,2021.2.3,145.92617879860967,
52:78,21,['3'],3,TMTstop-A_1_3linestimulus18.png,TMTstop-A_1_3greenlinestimulus18.png,TMTstop-A_1_3redlinestimulus18.png,3,,,,,,,,,0,2,2,2,0,20,20,20,,,,,,,,,,,,,,,,,,,,,,,43.3530127000995,None,['3'],1,[0.016417699865996838],43.3530127000995,None,,,,001,2022_Jan_12_1745,TMTAstop-A,2021.2.3,145.92617879860967,
52:78,22,['1'],1,TMTstop-A_1_3linestimulus19.png,TMTstop-A_1_3greenlinestimulus19.png,TMTstop-A_1_3redlinestimulus19.png,3,,,,,,,,,0,2,2,2,0,21,21,21,,,,,,,,,,,,,,,,,,,,,,,43.45118109998293,None,['1'],1,[0.05583809991367161],43.45118109998293,None,,,,001,2022_Jan_12_1745,TMTAstop-A,2021.2.3,145.92617879860967,
52:78,23,['3'],3,TMTstop-A_1_3linestimulus20.png,TMTstop-A_1_3greenlinestimulus20.png,TMTstop-A_1_3redlinestimulus20.png,3,,,,,,,,,0,2,2,2,0,22,22,22,,,,,,,,,,,,,,,,,,,,,,,43.595231800107285,None,"['2', '3']",1,"[-0.0273221000097692, 0.0891946000047028]",43.595231800107285,None,,,,001,2022_Jan_12_1745,TMTAstop-A,2021.2.3,145.92617879860967,
52:78,24,['1'],1,TMTstop-A_1_3linestimulus21.png,TMTstop-A_1_3greenlinestimulus21.png,TMTstop-A_1_3redlinestimulus21.png,3,,,,,,,,,0,2,2,2,0,23,23,23,,,,,,,,,,,,,,,,,,,,,,,43.7966481000185,None,['1'],1,[0.01603209995664656],43.7966481000185,None,,,,001,2022_Jan_12_1745,TMTAstop-A,2021.2.3,145.92617879860967,
52:78,25,['3'],3,TMTstop-A_1_3linestimulus22.png,TMTstop-A_1_3greenlinestimulus22.png,TMTstop-A_1_3redlinestimulus22.png,3,,,,,,,,,0,2,2,2,0,24,24,24,,,,,,,,,,,,,,,,,,,,,,,43.89384809997864,None,"['2', '3']",1,"[-0.00688360002823174, 0.11716729984618723]",43.89384809997864,None,,,,001,2022_Jan_12_1745,TMTAstop-A,2021.2.3,145.92617879860967,
52:78,None,None,None,TMTstop-A_1_3linestimulus23.png,TMTstop-A_1_3greenlinestimulus23.png,TMTstop-A_1_3redlinestimulus23.png,3,,,,,,,,,0,2,2,2,0,25,25,25,,,,,,,,,,,,,,,,,,,,,,,44.103414400015026,None,"['1', '2', '3']",0,"[0.06254500010982156, 0.12303770007565618, 0.2570943001192063]",44.103414400015026,None,,,,001,2022_Jan_12_1745,TMTAstop-A,2021.2.3,145.92617879860967,
78:104,1,['3'],3,TMTstop-A_1_4.png,TMTstop-A_1_4.png,TMTstop-A_1_4.png,4,,,,,,,,,0,3,3,3,0,0,0,0,,,,,,,,,45.21093620010652,None,,,,,,,,,,,,,48.22775960015133,None,"['1', '2', '3']",1,"[0.4278102999087423, 0.5211716999765486, 0.6374520999379456]",48.22775960015133,None,,,,001,2022_Jan_12_1745,TMTAstop-A,2021.2.3,145.92617879860967,
78:104,2,['1'],1,TMTstop-A_1_4.png,TMTstop-A_1_4firstgreen.png,TMTstop-A_1_4firstred.png,4,,,,,,,,,0,3,3,3,0,1,1,1,,,,,,,,,,,,,,,,,,,,,,,48.96994099998847,None,['1'],1,[0.051569600123912096],48.96994099998847,None,,,,001,2022_Jan_12_1745,TMTAstop-A,2021.2.3,145.92617879860967,
78:104,3,['3'],3,TMTstop-A_1_4linestimulus0.png,TMTstop-A_1_4greenlinestimulus0.png,TMTstop-A_1_4redlinestimulus0.png,4,,,,,,,,,0,3,3,3,0,2,2,2,,,,,,,,,,,,,,,,,,,,,,,49.10194419999607,None,"['2', '3']",1,"[-0.021249699871987104, 0.09394440008327365]",49.10194419999607,None,,,,001,2022_Jan_12_1745,TMTAstop-A,2021.2.3,145.92617879860967,
78:104,4,['1'],1,TMTstop-A_1_4linestimulus1.png,TMTstop-A_1_4greenlinestimulus1.png,TMTstop-A_1_4redlinestimulus1.png,4,,,,,,,,,0,3,3,3,0,3,3,3,,,,,,,,,,,,,,,,,,,,,,,49.283350800164044,None,['1'],1,[0.09452589997090399],49.283350800164044,None,,,,001,2022_Jan_12_1745,TMTAstop-A,2021.2.3,145.92617879860967,
78:104,5,['2'],2,TMTstop-A_1_4linestimulus2.png,TMTstop-A_1_4greenlinestimulus2.png,TMTstop-A_1_4redlinestimulus2.png,4,,,,,,,,,0,3,3,3,0,4,4,4,,,,,,,,,,,,,,,,,,,,,,,49.45603560004383,None,['2'],1,[0.0010036998428404331],49.45603560004383,None,,,,001,2022_Jan_12_1745,TMTAstop-A,2021.2.3,145.92617879860967,
78:104,6,['3'],3,TMTstop-A_1_4linestimulus3.png,TMTstop-A_1_4greenlinestimulus3.png,TMTstop-A_1_4redlinestimulus3.png,4,,,,,,,,,0,3,3,3,0,5,5,5,,,,,,,,,,,,,,,,,,,,,,,49.52539880014956,None,['3'],1,[0.04619309981353581],49.52539880014956,None,,,,001,2022_Jan_12_1745,TMTAstop-A,2021.2.3,145.92617879860967,
78:104,7,['2'],2,TMTstop-A_1_4linestimulus4.png,TMTstop-A_1_4greenlinestimulus4.png,TMTstop-A_1_4redlinestimulus4.png,4,,,,,,,,,0,3,3,3,0,6,6,6,,,,,,,,,,,,,,,,,,,,,,,49.64453519997187,None,"['1', '2']",1,"[0.12437990005128086, 0.16931440006010234]",49.64453519997187,None,,,,001,2022_Jan_12_1745,TMTAstop-A,2021.2.3,145.92617879860967,
78:104,8,['3'],3,TMTstop-A_1_4linestimulus5.png,TMTstop-A_1_4greenlinestimulus5.png,TMTstop-A_1_4redlinestimulus5.png,4,,,,,,,,,0,3,3,3,0,7,7,7,,,,,,,,,,,,,,,,,,,,,,,49.921270800055936,None,"['1', '2', '3']",1,"[0.19287730008363724, 0.22418950009159744, 0.36226730002090335]",49.921270800055936,None,,,,001,2022_Jan_12_1745,TMTAstop-A,2021.2.3,145.92617879860967,
78:104,9,['1'],1,TMTstop-A_1_4linestimulus6.png,TMTstop-A_1_4greenlinestimulus6.png,TMTstop-A_1_4redlinestimulus6.png,4,,,,,,,,,0,3,3,3,0,8,8,8,,,,,,,,,,,,,,,,,,,,,,,50.36580629996024,None,['1'],1,[0.10028359992429614],50.36580629996024,None,,,,001,2022_Jan_12_1745,TMTAstop-A,2021.2.3,145.92617879860967,
78:104,10,['2'],2,TMTstop-A_1_4linestimulus7.png,TMTstop-A_1_4greenlinestimulus7.png,TMTstop-A_1_4redlinestimulus7.png,4,,,,,,,,,0,3,3,3,0,9,9,9,,,,,,,,,,,,,,,,,,,,,,,50.54687330010347,None,['2'],1,[-0.045731000136584044],50.54687330010347,None,,,,001,2022_Jan_12_1745,TMTAstop-A,2021.2.3,145.92617879860967,
78:104,11,['3'],3,TMTstop-A_1_4linestimulus8.png,TMTstop-A_1_4greenlinestimulus8.png,TMTstop-A_1_4redlinestimulus8.png,4,,,,,,,,,0,3,3,3,0,10,10,10,,,,,,,,,,,,,,,,,,,,,,,50.6159229001496,None,['3'],1,[0.04243579995818436],50.6159229001496,None,,,,001,2022_Jan_12_1745,TMTAstop-A,2021.2.3,145.92617879860967,
78:104,12,['1'],1,TMTstop-A_1_4linestimulus9.png,TMTstop-A_1_4greenlinestimulus9.png,TMTstop-A_1_4redlinestimulus9.png,4,,,,,,,,,0,3,3,3,0,11,11,11,,,,,,,,,,,,,,,,,,,,,,,50.74148240010254,None,['1'],1,[0.052133699879050255],50.74148240010254,None,,,,001,2022_Jan_12_1745,TMTAstop-A,2021.2.3,145.92617879860967,
78:104,13,['2'],2,TMTstop-A_1_4linestimulus10.png,TMTstop-A_1_4greenlinestimulus10.png,TMTstop-A_1_4redlinestimulus10.png,4,,,,,,,,,0,3,3,3,0,12,12,12,,,,,,,,,,,,,,,,,,,,,,,50.866086000110954,None,['2'],1,[0.02420889982022345],50.866086000110954,None,,,,001,2022_Jan_12_1745,TMTAstop-A,2021.2.3,145.92617879860967,
78:104,14,['1'],1,TMTstop-A_1_4linestimulus11.png,TMTstop-A_1_4greenlinestimulus11.png,TMTstop-A_1_4redlinestimulus11.png,4,,,,,,,,,0,3,3,3,0,13,13,13,,,,,,,,,,,,,,,,,,,,,,,50.969817199977115,None,"['3', '1']",1,"[0.03359680017456412, 0.1875374000519514]",50.969817199977115,None,,,,001,2022_Jan_12_1745,TMTAstop-A,2021.2.3,145.92617879860967,
78:104,15,['2'],2,TMTstop-A_1_4linestimulus12.png,TMTstop-A_1_4greenlinestimulus12.png,TMTstop-A_1_4redlinestimulus12.png,4,,,,,,,,,0,3,3,3,0,14,14,14,,,,,,,,,,,,,,,,,,,,,,,51.25517560006119,None,['2'],1,[-0.03921799990348518],51.25517560006119,None,,,,001,2022_Jan_12_1745,TMTAstop-A,2021.2.3,145.92617879860967,
78:104,16,['3'],3,TMTstop-A_1_4linestimulus13.png,TMTstop-A_1_4greenlinestimulus13.png,TMTstop-A_1_4redlinestimulus13.png,4,,,,,,,,,0,3,3,3,0,15,15,15,,,,,,,,,,,,,,,,,,,,,,,51.331302399979904,None,['3'],1,[0.030647499952465296],51.331302399979904,None,,,,001,2022_Jan_12_1745,TMTAstop-A,2021.2.3,145.92617879860967,
78:104,17,['1'],1,TMTstop-A_1_4linestimulus14.png,TMTstop-A_1_4greenlinestimulus14.png,TMTstop-A_1_4redlinestimulus14.png,4,,,,,,,,,0,3,3,3,0,16,16,16,,,,,,,,,,,,,,,,,,,,,,,51.4423126000911,None,['1'],1,[0.04656370007432997],51.4423126000911,None,,,,001,2022_Jan_12_1745,TMTAstop-A,2021.2.3,145.92617879860967,
78:104,18,['2'],2,TMTstop-A_1_4linestimulus15.png,TMTstop-A_1_4greenlinestimulus15.png,TMTstop-A_1_4redlinestimulus15.png,4,,,,,,,,,0,3,3,3,0,17,17,17,,,,,,,,,,,,,,,,,,,,,,,51.56718120002188,None,['2'],1,[0.012879699934273958],51.56718120002188,None,,,,001,2022_Jan_12_1745,TMTAstop-A,2021.2.3,145.92617879860967,
78:104,19,['1'],1,TMTstop-A_1_4linestimulus16.png,TMTstop-A_1_4greenlinestimulus16.png,TMTstop-A_1_4redlinestimulus16.png,4,,,,,,,,,0,3,3,3,0,18,18,18,,,,,,,,,,,,,,,,,,,,,,,51.650576000101864,None,"['3', '1']",1,"[0.06028770003467798, 0.24152060016058385]",51.650576000101864,None,,,,001,2022_Jan_12_1745,TMTAstop-A,2021.2.3,145.92617879860967,
78:104,20,['3'],3,TMTstop-A_1_4linestimulus17.png,TMTstop-A_1_4greenlinestimulus17.png,TMTstop-A_1_4redlinestimulus17.png,4,,,,,,,,,0,3,3,3,0,19,19,19,,,,,,,,,,,,,,,,,,,,,,,52.00467019993812,None,"['2', '3']",1,"[-0.03577010007575154, 0.0833638000767678]",52.00467019993812,None,,,,001,2022_Jan_12_1745,TMTAstop-A,2021.2.3,145.92617879860967,
78:104,21,['1'],1,TMTstop-A_1_4linestimulus18.png,TMTstop-A_1_4greenlinestimulus18.png,TMTstop-A_1_4redlinestimulus18.png,4,,,,,,,,,0,3,3,3,0,20,20,20,,,,,,,,,,,,,,,,,,,,,,,52.15823940001428,None,['1'],1,[0.09891739999875426],52.15823940001428,None,,,,001,2022_Jan_12_1745,TMTAstop-A,2021.2.3,145.92617879860967,
78:104,22,['3'],3,TMTstop-A_1_4linestimulus19.png,TMTstop-A_1_4greenlinestimulus19.png,TMTstop-A_1_4redlinestimulus19.png,4,,,,,,,,,0,3,3,3,0,21,21,21,,,,,,,,,,,,,,,,,,,,,,,52.33118740003556,None,"['2', '3']",1,"[-0.029775300063192844, 0.14232879993505776]",52.33118740003556,None,,,,001,2022_Jan_12_1745,TMTAstop-A,2021.2.3,145.92617879860967,
78:104,23,['2'],2,TMTstop-A_1_4linestimulus20.png,TMTstop-A_1_4greenlinestimulus20.png,TMTstop-A_1_4redlinestimulus20.png,4,,,,,,,,,0,3,3,3,0,22,22,22,,,,,,,,,,,,,,,,,,,,,,,52.57433860003948,None,"['1', '2']",1,"[0.03856729995459318, 0.12646409985609353]",52.57433860003948,None,,,,001,2022_Jan_12_1745,TMTAstop-A,2021.2.3,145.92617879860967,
78:104,24,['3'],3,TMTstop-A_1_4linestimulus21.png,TMTstop-A_1_4greenlinestimulus21.png,TMTstop-A_1_4redlinestimulus21.png,4,,,,,,,,,0,3,3,3,0,23,23,23,,,,,,,,,,,,,,,,,,,,,,,52.81729590008035,None,['3'],1,[0.00750730000436306],52.81729590008035,None,,,,001,2022_Jan_12_1745,TMTAstop-A,2021.2.3,145.92617879860967,
78:104,25,['2'],2,TMTstop-A_1_4linestimulus22.png,TMTstop-A_1_4greenlinestimulus22.png,TMTstop-A_1_4redlinestimulus22.png,4,,,,,,,,,0,3,3,3,0,24,24,24,,,,,,,,,,,,,,,,,,,,,,,52.90072360006161,None,['2'],1,[0.14058000012300909],52.90072360006161,None,,,,001,2022_Jan_12_1745,TMTAstop-A,2021.2.3,145.92617879860967,
78:104,None,None,None,TMTstop-A_1_4linestimulus23.png,TMTstop-A_1_4greenlinestimulus23.png,TMTstop-A_1_4redlinestimulus23.png,4,,,,,,,,,0,3,3,3,0,25,25,25,,,,,,,,,,,,,,,,,,,,,,,53.1229569001589,None,"['3', '1', '2']",0,"[0.04899829998612404, 0.19464630004949868, 0.23924640007317066]",53.1229569001589,None,,,,001,2022_Jan_12_1745,TMTAstop-A,2021.2.3,145.92617879860967,
104:130,1,['2'],2,TMTstop-A_1_5.png,TMTstop-A_1_5.png,TMTstop-A_1_5.png,5,,,,,,,,,0,4,4,4,0,0,0,0,,,,,,,,,54.238264800049365,None,,,,,,,,,,,,,57.24030390009284,None,"['1', '2']",1,"[0.43909400003030896, 0.4959570001810789]",57.24030390009284,None,,,,001,2022_Jan_12_1745,TMTAstop-A,2021.2.3,145.92617879860967,
104:130,2,['1'],1,TMTstop-A_1_5.png,TMTstop-A_1_5firstgreen.png,TMTstop-A_1_5firstred.png,5,,,,,,,,,0,4,4,4,0,1,1,1,,,,,,,,,,,,,,,,,,,,,,,57.83112070010975,None,"['3', '1']",1,"[0.029034300008788705, 0.17648090003058314]",57.83112070010975,None,,,,001,2022_Jan_12_1745,TMTAstop-A,2021.2.3,145.92617879860967,
104:130,3,['3'],3,TMTstop-A_1_5linestimulus0.png,TMTstop-A_1_5greenlinestimulus0.png,TMTstop-A_1_5redlinestimulus0.png,5,,,,,,,,,0,4,4,4,0,2,2,2,,,,,,,,,,,,,,,,,,,,,,,58.10181830008514,None,"['2', '3']",1,"[-0.04411890008486807, 0.06675949995405972]",58.10181830008514,None,,,,001,2022_Jan_12_1745,TMTAstop-A,2021.2.3,145.92617879860967,
104:130,4,['2'],2,TMTstop-A_1_5linestimulus1.png,TMTstop-A_1_5greenlinestimulus1.png,TMTstop-A_1_5redlinestimulus1.png,5,,,,,,,,,0,4,4,4,0,3,3,3,,,,,,,,,,,,,,,,,,,,,,,58.25457590003498,None,"['1', '2']",1,"[0.050027000019326806, 0.0965635001193732]",58.25457590003498,None,,,,001,2022_Jan_12_1745,TMTAstop-A,2021.2.3,145.92617879860967,
104:130,5,['3'],3,TMTstop-A_1_5linestimulus2.png,TMTstop-A_1_5greenlinestimulus2.png,TMTstop-A_1_5redlinestimulus2.png,5,,,,,,,,,0,4,4,4,0,4,4,4,,,,,,,,,,,,,,,,,,,,,,,58.45588849997148,None,['3'],1,[0.019393800059333444],58.45588849997148,None,,,,001,2022_Jan_12_1745,TMTAstop-A,2021.2.3,145.92617879860967,
104:130,6,['1'],1,TMTstop-A_1_5linestimulus3.png,TMTstop-A_1_5greenlinestimulus3.png,TMTstop-A_1_5redlinestimulus3.png,5,,,,,,,,,0,4,4,4,0,5,5,5,,,,,,,,,,,,,,,,,,,,,,,58.55315429996699,None,['1'],1,[0.048949999967589974],58.55315429996699,None,,,,001,2022_Jan_12_1745,TMTAstop-A,2021.2.3,145.92617879860967,
104:130,7,['3'],3,TMTstop-A_1_5linestimulus4.png,TMTstop-A_1_5greenlinestimulus4.png,TMTstop-A_1_5redlinestimulus4.png,5,,,,,,,,,0,4,4,4,0,6,6,6,,,,,,,,,,,,,,,,,,,,,,,58.67811230011284,None,"['2', '3']",1,"[-0.01320699998177588, 0.11666459986008704]",58.67811230011284,None,,,,001,2022_Jan_12_1745,TMTAstop-A,2021.2.3,145.92617879860967,
104:130,8,['2'],2,TMTstop-A_1_5linestimulus5.png,TMTstop-A_1_5greenlinestimulus5.png,TMTstop-A_1_5redlinestimulus5.png,5,,,,,,,,,0,4,4,4,0,7,7,7,,,,,,,,,,,,,,,,,,,,,,,58.87279359996319,None,"['1', '2']",1,"[0.06835870002396405, 0.15435870015062392]",58.87279359996319,None,,,,001,2022_Jan_12_1745,TMTAstop-A,2021.2.3,145.92617879860967,
104:130,9,['1'],1,TMTstop-A_1_5linestimulus6.png,TMTstop-A_1_5greenlinestimulus6.png,TMTstop-A_1_5redlinestimulus6.png,5,,,,,,,,,0,4,4,4,0,8,8,8,,,,,,,,,,,,,,,,,,,,,,,59.13658310007304,None,"['3', '1']",1,"[0.023128700209781528, 0.14652479998767376]",59.13658310007304,None,,,,001,2022_Jan_12_1745,TMTAstop-A,2021.2.3,145.92617879860967,
104:130,10,['3'],3,TMTstop-A_1_5linestimulus7.png,TMTstop-A_1_5greenlinestimulus7.png,TMTstop-A_1_5redlinestimulus7.png,5,,,,,,,,,0,4,4,4,0,9,9,9,,,,,,,,,,,,,,,,,,,,,,,59.35170940007083,None,"['2', '3']",1,"[-0.009847800014540553, 0.11830940004438162]",59.35170940007083,None,,,,001,2022_Jan_12_1745,TMTAstop-A,2021.2.3,145.92617879860967,
104:130,11,['2'],2,TMTstop-A_1_5linestimulus8.png,TMTstop-A_1_5greenlinestimulus8.png,TMTstop-A_1_5redlinestimulus8.png,5,,,,,,,,,0,4,4,4,0,10,10,10,,,,,,,,,,,,,,,,,,,,,,,59.540162099990994,None,"['1', '2']",1,"[0.08767200005240738, 0.14869399997405708]",59.540162099990994,None,,,,001,2022_Jan_12_1745,TMTAstop-A,2021.2.3,145.92617879860967,
104:130,12,['3'],3,TMTstop-A_1_5linestimulus9.png,TMTstop-A_1_5greenlinestimulus9.png,TMTstop-A_1_5redlinestimulus9.png,5,,,,,,,,,0,4,4,4,0,11,11,11,,,,,,,,,,,,,,,,,,,,,,,59.78963980008848,None,['3'],1,[0.018527999985963106],59.78963980008848,None,,,,001,2022_Jan_12_1745,TMTAstop-A,2021.2.3,145.92617879860967,
104:130,13,['1'],1,TMTstop-A_1_5linestimulus10.png,TMTstop-A_1_5greenlinestimulus10.png,TMTstop-A_1_5redlinestimulus10.png,5,,,,,,,,,0,4,4,4,0,12,12,12,,,,,,,,,,,,,,,,,,,,,,,59.886932800058275,None,['1'],1,[0.03654800006188452],59.886932800058275,None,,,,001,2022_Jan_12_1745,TMTAstop-A,2021.2.3,145.92617879860967,
104:130,14,['3'],3,TMTstop-A_1_5linestimulus11.png,TMTstop-A_1_5greenlinestimulus11.png,TMTstop-A_1_5redlinestimulus11.png,5,,,,,,,,,0,4,4,4,0,13,13,13,,,,,,,,,,,,,,,,,,,,,,,59.997596699977294,None,"['2', '3']",1,"[0.0133477000053972, 0.089592200005427]",59.997596699977294,None,,,,001,2022_Jan_12_1745,TMTAstop-A,2021.2.3,145.92617879860967,
104:130,15,['1'],1,TMTstop-A_1_5linestimulus12.png,TMTstop-A_1_5greenlinestimulus12.png,TMTstop-A_1_5redlinestimulus12.png,5,,,,,,,,,0,4,4,4,0,14,14,14,,,,,,,,,,,,,,,,,,,,,,,60.164818400051445,None,['1'],1,[0.060374800115823746],60.164818400051445,None,,,,001,2022_Jan_12_1745,TMTAstop-A,2021.2.3,145.92617879860967,
104:130,16,['3'],3,TMTstop-A_1_5linestimulus13.png,TMTstop-A_1_5greenlinestimulus13.png,TMTstop-A_1_5redlinestimulus13.png,5,,,,,,,,,0,4,4,4,0,15,15,15,,,,,,,,,,,,,,,,,,,,,,,60.29626900004223,None,"['2', '1', '2', '3']",1,"[0.10990720009431243, 0.2484961999580264, 0.3339651001151651, 0.4507774000521749]",60.29626900004223,None,,,,001,2022_Jan_12_1745,TMTAstop-A,2021.2.3,145.92617879860967,
104:130,17,['2'],2,TMTstop-A_1_5linestimulus14.png,TMTstop-A_1_5greenlinestimulus14.png,TMTstop-A_1_5redlinestimulus14.png,5,,,,,,,,,0,4,4,4,0,16,16,16,,,,,,,,,,,,,,,,,,,,,,,60.85165089997463,None,"['1', '2']",1,"[0.027641699882224202, 0.11419490003027022]",60.85165089997463,None,,,,001,2022_Jan_12_1745,TMTAstop-A,2021.2.3,145.92617879860967,
104:130,18,['1'],1,TMTstop-A_1_5linestimulus15.png,TMTstop-A_1_5greenlinestimulus15.png,TMTstop-A_1_5redlinestimulus15.png,5,,,,,,,,,0,4,4,4,0,17,17,17,,,,,,,,,,,,,,,,,,,,,,,61.07384920003824,None,"['3', '1']",1,"[0.0023765000514686108, 0.11963060009293258]",61.07384920003824,None,,,,001,2022_Jan_12_1745,TMTAstop-A,2021.2.3,145.92617879860967,
104:130,19,['3'],3,TMTstop-A_1_5linestimulus16.png,TMTstop-A_1_5greenlinestimulus16.png,TMTstop-A_1_5redlinestimulus16.png,5,,,,,,,,,0,4,4,4,0,18,18,18,,,,,,,,,,,,,,,,,,,,,,,61.27532529993914,None,"['2', '3']",1,"[0.02231890009716153, 0.13879420002922416]",61.27532529993914,None,,,,001,2022_Jan_12_1745,TMTAstop-A,2021.2.3,145.92617879860967,
104:130,20,['1'],1,TMTstop-A_1_5linestimulus17.png,TMTstop-A_1_5greenlinestimulus17.png,TMTstop-A_1_5redlinestimulus17.png,5,,,,,,,,,0,4,4,4,0,19,19,19,,,,,,,,,,,,,,,,,,,,,,,61.491618199972436,None,['1'],1,[0.040373500203713775],61.491618199972436,None,,,,001,2022_Jan_12_1745,TMTAstop-A,2021.2.3,145.92617879860967,
104:130,21,['2'],2,TMTstop-A_1_5linestimulus18.png,TMTstop-A_1_5greenlinestimulus18.png,TMTstop-A_1_5redlinestimulus18.png,5,,,,,,,,,0,4,4,4,0,20,20,20,,,,,,,,,,,,,,,,,,,,,,,61.60170010011643,None,['2'],1,[0.027447900036349893],61.60170010011643,None,,,,001,2022_Jan_12_1745,TMTAstop-A,2021.2.3,145.92617879860967,
104:130,22,['3'],3,TMTstop-A_1_5linestimulus19.png,TMTstop-A_1_5greenlinestimulus19.png,TMTstop-A_1_5redlinestimulus19.png,5,,,,,,,,,0,4,4,4,0,21,21,21,,,,,,,,,,,,,,,,,,,,,,,61.69884520000778,None,['3'],1,[0.030627199914306402],61.69884520000778,None,,,,001,2022_Jan_12_1745,TMTAstop-A,2021.2.3,145.92617879860967,
104:130,23,['2'],2,TMTstop-A_1_5linestimulus20.png,TMTstop-A_1_5greenlinestimulus20.png,TMTstop-A_1_5redlinestimulus20.png,5,,,,,,,,,0,4,4,4,0,22,22,22,,,,,,,,,,,,,,,,,,,,,,,61.81025800015777,None,"['1', '2']",1,"[0.03958129999227822, 0.11110399989411235]",61.81025800015777,None,,,,001,2022_Jan_12_1745,TMTAstop-A,2021.2.3,145.92617879860967,
104:130,24,['3'],3,TMTstop-A_1_5linestimulus21.png,TMTstop-A_1_5greenlinestimulus21.png,TMTstop-A_1_5redlinestimulus21.png,5,,,,,,,,,0,4,4,4,0,23,23,23,,,,,,,,,,,,,,,,,,,,,,,62.00473090005107,None,['3'],1,[0.05834569991566241],62.00473090005107,None,,,,001,2022_Jan_12_1745,TMTAstop-A,2021.2.3,145.92617879860967,
104:130,25,['2'],2,TMTstop-A_1_5linestimulus22.png,TMTstop-A_1_5greenlinestimulus22.png,TMTstop-A_1_5redlinestimulus22.png,5,,,,,,,,,0,4,4,4,0,24,24,24,,,,,,,,,,,,,,,,,,,,,,,62.14341520005837,None,"['1', '2']",1,"[0.06403849995695055, 0.11404359992593527]",62.14341520005837,None,,,,001,2022_Jan_12_1745,TMTAstop-A,2021.2.3,145.92617879860967,
104:130,None,None,None,TMTstop-A_1_5linestimulus23.png,TMTstop-A_1_5greenlinestimulus23.png,TMTstop-A_1_5redlinestimulus23.png,5,,,,,,,,,0,4,4,4,0,25,25,25,,,,,,,,,,,,,,,,,,,,,,,62.365521100116894,None,"['3', '1', '2', '3']",0,"[0.03953229985199869, 0.17696609999984503, 0.22612309991382062, 0.3835368000436574]",62.365521100116894,None,,,,001,2022_Jan_12_1745,TMTAstop-A,2021.2.3,145.92617879860967,
130:156,1,['1'],1,TMTstop-A_1_6.png,TMTstop-A_1_6.png,TMTstop-A_1_6.png,6,,,,,,,,,0,5,5,5,0,0,0,0,,,,,,,,,63.481339999940246,None,,,,,,,,,,,,,66.47619369998574,None,['1'],1,[0.523990900022909],66.47619369998574,None,,,,001,2022_Jan_12_1745,TMTAstop-A,2021.2.3,145.92617879860967,
130:156,2,['2'],2,TMTstop-A_1_6.png,TMTstop-A_1_6firstgreen.png,TMTstop-A_1_6firstred.png,6,,,,,,,,,0,5,5,5,0,1,1,1,,,,,,,,,,,,,,,,,,,,,,,67.06705810013227,None,['2'],1,[0.04241200000979006],67.06705810013227,None,,,,001,2022_Jan_12_1745,TMTAstop-A,2021.2.3,145.92617879860967,
130:156,3,['3'],3,TMTstop-A_1_6linestimulus0.png,TMTstop-A_1_6greenlinestimulus0.png,TMTstop-A_1_6redlinestimulus0.png,6,,,,,,,,,0,5,5,5,0,2,2,2,,,,,,,,,,,,,,,,,,,,,,,67.19265570002608,None,['3'],1,[0.00539449998177588],67.19265570002608,None,,,,001,2022_Jan_12_1745,TMTAstop-A,2021.2.3,145.92617879860967,
130:156,4,['1'],1,TMTstop-A_1_6linestimulus1.png,TMTstop-A_1_6greenlinestimulus1.png,TMTstop-A_1_6redlinestimulus1.png,6,,,,,,,,,0,5,5,5,0,3,3,3,,,,,,,,,,,,,,,,,,,,,,,67.27513730013743,None,['1'],1,[0.07752720010466874],67.27513730013743,None,,,,001,2022_Jan_12_1745,TMTAstop-A,2021.2.3,145.92617879860967,
130:156,5,['3'],3,TMTstop-A_1_6linestimulus2.png,TMTstop-A_1_6greenlinestimulus2.png,TMTstop-A_1_6redlinestimulus2.png,6,,,,,,,,,0,5,5,5,0,4,4,4,,,,,,,,,,,,,,,,,,,,,,,67.42822679993697,None,"['2', '3']",1,"[-0.014462800230830908, 0.10342169995419681]",67.42822679993697,None,,,,001,2022_Jan_12_1745,TMTAstop-A,2021.2.3,145.92617879860967,
130:156,6,['1'],1,TMTstop-A_1_6linestimulus3.png,TMTstop-A_1_6greenlinestimulus3.png,TMTstop-A_1_6redlinestimulus3.png,6,,,,,,,,,0,5,5,5,0,5,5,5,,,,,,,,,,,,,,,,,,,,,,,67.61543460004032,None,['1'],1,[0.04582139989361167],67.61543460004032,None,,,,001,2022_Jan_12_1745,TMTAstop-A,2021.2.3,145.92617879860967,
130:156,7,['3'],3,TMTstop-A_1_6linestimulus4.png,TMTstop-A_1_6greenlinestimulus4.png,TMTstop-A_1_6redlinestimulus4.png,6,,,,,,,,,0,5,5,5,0,6,6,6,,,,,,,,,,,,,,,,,,,,,,,67.73359700012952,None,"['2', '3']",1,"[-0.02322460012510419, 0.10885409987531602]",67.73359700012952,None,,,,001,2022_Jan_12_1745,TMTAstop-A,2021.2.3,145.92617879860967,
130:156,8,['1'],1,TMTstop-A_1_6linestimulus5.png,TMTstop-A_1_6greenlinestimulus5.png,TMTstop-A_1_6redlinestimulus5.png,6,,,,,,,,,0,5,5,5,0,7,7,7,,,,,,,,,,,,,,,,,,,,,,,67.92805200000294,None,['1'],1,[0.05981649993918836],67.92805200000294,None,,,,001,2022_Jan_12_1745,TMTAstop-A,2021.2.3,145.92617879860967,
130:156,9,['2'],2,TMTstop-A_1_6linestimulus6.png,TMTstop-A_1_6greenlinestimulus6.png,TMTstop-A_1_6redlinestimulus6.png,6,,,,,,,,,0,5,5,5,0,8,8,8,,,,,,,,,,,,,,,,,,,,,,,68.06678680004552,None,['2'],1,[-0.022587700048461556],68.06678680004552,None,,,,001,2022_Jan_12_1745,TMTAstop-A,2021.2.3,145.92617879860967,
130:156,10,['3'],3,TMTstop-A_1_6linestimulus7.png,TMTstop-A_1_6greenlinestimulus7.png,TMTstop-A_1_6redlinestimulus7.png,6,,,,,,,,,0,5,5,5,0,9,9,9,,,,,,,,,,,,,,,,,,,,,,,68.13648009998724,None,['3'],1,[0.013075300026685],68.13648009998724,None,,,,001,2022_Jan_12_1745,TMTAstop-A,2021.2.3,145.92617879860967,
130:156,11,['1'],1,TMTstop-A_1_6linestimulus8.png,TMTstop-A_1_6greenlinestimulus8.png,TMTstop-A_1_6redlinestimulus8.png,6,,,,,,,,,0,5,5,5,0,10,10,10,,,,,,,,,,,,,,,,,,,,,,,68.22024199995212,None,['1'],1,[0.09418300003744662],68.22024199995212,None,,,,001,2022_Jan_12_1745,TMTAstop-A,2021.2.3,145.92617879860967,
130:156,12,['3'],3,TMTstop-A_1_6linestimulus9.png,TMTstop-A_1_6greenlinestimulus9.png,TMTstop-A_1_6redlinestimulus9.png,6,,,,,,,,,0,5,5,5,0,11,11,11,,,,,,,,,,,,,,,,,,,,,,,68.38612879998982,None,"['2', '3']",1,"[0.009863599902018905, 0.16453709988854825]",68.38612879998982,None,,,,001,2022_Jan_12_1745,TMTAstop-A,2021.2.3,145.92617879860967,
130:156,13,['2'],2,TMTstop-A_1_6linestimulus10.png,TMTstop-A_1_6greenlinestimulus10.png,TMTstop-A_1_6redlinestimulus10.png,6,,,,,,,,,0,5,5,5,0,12,12,12,,,,,,,,,,,,,,,,,,,,,,,68.6293333999347,None,"['1', '2']",1,"[0.007656799862161279, 0.05817769980058074]",68.6293333999347,None,,,,001,2022_Jan_12_1745,TMTAstop-A,2021.2.3,145.92617879860967,
130:156,14,['3'],3,TMTstop-A_1_6linestimulus11.png,TMTstop-A_1_6greenlinestimulus11.png,TMTstop-A_1_6redlinestimulus11.png,6,,,,,,,,,0,5,5,5,0,13,13,13,,,,,,,,,,,,,,,,,,,,,,,68.79585930006579,None,['3'],1,[0.08496900019235909],68.79585930006579,None,,,,001,2022_Jan_12_1745,TMTAstop-A,2021.2.3,145.92617879860967,
130:156,15,['2'],2,TMTstop-A_1_6linestimulus12.png,TMTstop-A_1_6greenlinestimulus12.png,TMTstop-A_1_6redlinestimulus12.png,6,,,,,,,,,0,5,5,5,0,14,14,14,,,,,,,,,,,,,,,,,,,,,,,68.96285549993627,None,"['1', '2']",1,"[-1.2699980288743973e-05, 0.06766760000027716]",68.96285549993627,None,,,,001,2022_Jan_12_1745,TMTAstop-A,2021.2.3,145.92617879860967,
130:156,16,['1'],1,TMTstop-A_1_6linestimulus13.png,TMTstop-A_1_6greenlinestimulus13.png,TMTstop-A_1_6redlinestimulus13.png,6,,,,,,,,,0,5,5,5,0,15,15,15,,,,,,,,,,,,,,,,,,,,,,,69.11586480005644,None,"['3', '1']",1,"[0.029796400107443333, 0.17735620005987585]",69.11586480005644,None,,,,001,2022_Jan_12_1745,TMTAstop-A,2021.2.3,145.92617879860967,
130:156,17,['3'],3,TMTstop-A_1_6linestimulus14.png,TMTstop-A_1_6greenlinestimulus14.png,TMTstop-A_1_6redlinestimulus14.png,6,,,,,,,,,0,5,5,5,0,16,16,16,,,,,,,,,,,,,,,,,,,,,,,69.3866924000904,None,"['2', '3']",1,"[-0.03428689995780587, 0.09423300018534064]",69.3866924000904,None,,,,001,2022_Jan_12_1745,TMTAstop-A,2021.2.3,145.92617879860967,
130:156,18,['1'],1,TMTstop-A_1_6linestimulus15.png,TMTstop-A_1_6greenlinestimulus15.png,TMTstop-A_1_6redlinestimulus15.png,6,,,,,,,,,0,5,5,5,0,17,17,17,,,,,,,,,,,,,,,,,,,,,,,69.5809431001544,None,['1'],1,[0.06702210009098053],69.5809431001544,None,,,,001,2022_Jan_12_1745,TMTAstop-A,2021.2.3,145.92617879860967,
130:156,19,['2'],2,TMTstop-A_1_6linestimulus16.png,TMTstop-A_1_6greenlinestimulus16.png,TMTstop-A_1_6redlinestimulus16.png,6,,,,,,,,,0,5,5,5,0,18,18,18,,,,,,,,,,,,,,,,,,,,,,,69.71961620007642,None,['2'],1,[0.06596669997088611],69.71961620007642,None,,,,001,2022_Jan_12_1745,TMTAstop-A,2021.2.3,145.92617879860967,
130:156,20,['3'],3,TMTstop-A_1_6linestimulus17.png,TMTstop-A_1_6greenlinestimulus17.png,TMTstop-A_1_6redlinestimulus17.png,6,,,,,,,,,0,5,5,5,0,19,19,19,,,,,,,,,,,,,,,,,,,,,,,69.85857459995896,None,['3'],1,[-0.01821919996291399],69.85857459995896,None,,,,001,2022_Jan_12_1745,TMTAstop-A,2021.2.3,145.92617879860967,
130:156,21,['2'],2,TMTstop-A_1_6linestimulus18.png,TMTstop-A_1_6greenlinestimulus18.png,TMTstop-A_1_6redlinestimulus18.png,6,,,,,,,,,0,5,5,5,0,20,20,20,,,,,,,,,,,,,,,,,,,,,,,69.92814470012672,None,"['1', '2']",1,"[0.1100675999186933, 0.15851989993825555]",69.92814470012672,None,,,,001,2022_Jan_12_1745,TMTAstop-A,2021.2.3,145.92617879860967,
130:156,22,['3'],3,TMTstop-A_1_6linestimulus19.png,TMTstop-A_1_6greenlinestimulus19.png,TMTstop-A_1_6redlinestimulus19.png,6,,,,,,,,,0,5,5,5,0,21,21,21,,,,,,,,,,,,,,,,,,,,,,,70.16487540001981,None,['3'],1,[0.07776749995537102],70.16487540001981,None,,,,001,2022_Jan_12_1745,TMTAstop-A,2021.2.3,145.92617879860967,
130:156,23,['1'],1,TMTstop-A_1_6linestimulus20.png,TMTstop-A_1_6greenlinestimulus20.png,TMTstop-A_1_6redlinestimulus20.png,6,,,,,,,,,0,5,5,5,0,22,22,22,,,,,,,,,,,,,,,,,,,,,,,70.33098850003444,None,['1'],1,[0.021495799999684095],70.33098850003444,None,,,,001,2022_Jan_12_1745,TMTAstop-A,2021.2.3,145.92617879860967,
130:156,24,['2'],2,TMTstop-A_1_6linestimulus21.png,TMTstop-A_1_6greenlinestimulus21.png,TMTstop-A_1_6redlinestimulus21.png,6,,,,,,,,,0,5,5,5,0,23,23,23,,,,,,,,,,,,,,,,,,,,,,,70.43529830011539,None,['2'],1,[-0.02395770000293851],70.43529830011539,None,,,,001,2022_Jan_12_1745,TMTAstop-A,2021.2.3,145.92617879860967,
130:156,25,['3'],3,TMTstop-A_1_6linestimulus22.png,TMTstop-A_1_6greenlinestimulus22.png,TMTstop-A_1_6redlinestimulus22.png,6,,,,,,,,,0,5,5,5,0,24,24,24,,,,,,,,,,,,,,,,,,,,,,,70.51233509997837,None,['3'],1,[0.020625200122594833],70.51233509997837,None,,,,001,2022_Jan_12_1745,TMTAstop-A,2021.2.3,145.92617879860967,
130:156,None,None,None,TMTstop-A_1_6linestimulus23.png,TMTstop-A_1_6greenlinestimulus23.png,TMTstop-A_1_6redlinestimulus23.png,6,,,,,,,,,0,5,5,5,0,25,25,25,,,,,,,,,,,,,,,,,,,,,,,70.62220049998723,None,"['1', '2', '3', '1']",0,"[0.03822139999829233, 0.10516220005229115, 0.2194797999691218, 0.3159014000557363]",70.62220049998723,None,,,,001,2022_Jan_12_1745,TMTAstop-A,2021.2.3,145.92617879860967,
,,,,,,,,,,,,,,,,,,,,,,,,,,,,,,,,71.76562660001218,None,,,,,,,,,,,,,,,,,,,,74.68337600002997,None,,,,,,,
