NumberLetter,corrAns,Correct,StimFile,Correct_StimFile,False_StimFile,Version,Block,TrialNumber_session,n,Stim.started_mean,Stim.started_raw,Stim.started_std,Stim.stopped_raw,key_resp_2.corr_mean,key_resp_2.corr_raw,key_resp_2.corr_std,key_resp_2.keys_raw,key_resp_2.rt_raw,key_resp_2.started_mean,key_resp_2.started_raw,key_resp_2.started_std,key_resp_2.stopped_raw,order
1,['1'],1,TMTstop-A_1_1.png,TMTstop-A_1_1.png,TMTstop-A_1_1.png,TMT_A,1,1,1.0,69.70590209960938,69.70590209960938,0.0,,1.0,1.0,0.0,1,2.162308099999791,69.70590209960938,69.70590209960938,0.0,,0.0
2,['3'],3,TMTstop-A_1_1.png,TMTstop-A_1_1firstgreen.png,TMTstop-A_1_1firstred.png,TMT_A,1,2,1.0,72.02000427246094,72.02000427246094,0.0,,1.0,1.0,0.0,2,3,-0.04046470001048874,0.13273309999203775,72.02000427246094,72.02000427246094,0.0,,1.0
3,['1'],1,TMTstop-A_1_1linestimulus0.png,TMTstop-A_1_1greenlinestimulus0.png,TMTstop-A_1_1redlinestimulus0.png,TMT_A,1,3,1.0,72.2995376586914,72.2995376586914,0.0,,1.0,1.0,0.0,2,1,0.3495418999955291,0.3541133999970043,72.2995376586914,72.2995376586914,0.0,,2.0
4,['3'],3,TMTstop-A_1_1linestimulus1.png,TMTstop-A_1_1greenlinestimulus1.png,TMTstop-A_1_1redlinestimulus1.png,TMT_A,1,4,1.0,72.83158111572266,72.83158111572266,0.0,,1.0,1.0,0.0,3,0.023984600004041567,72.83158111572266,72.83158111572266,0.0,,3.0
5,['1'],1,TMTstop-A_1_1linestimulus2.png,TMTstop-A_1_1greenlinestimulus2.png,TMTstop-A_1_1redlinestimulus2.png,TMT_A,1,5,1.0,72.97225189208984,72.97225189208984,0.0,,1.0,1.0,0.0,1,2,3,1,0.06641939999826718,0.10345450000022538,0.2489555000065593,0.4770518000004813,72.97225189208984,72.97225189208984,0.0,,4.0
6,['3'],3,TMTstop-A_1_1linestimulus3.png,TMTstop-A_1_1greenlinestimulus3.png,TMTstop-A_1_1redlinestimulus3.png,TMT_A,1,6,1.0,73.64344024658203,73.64344024658203,0.0,,1.0,1.0,0.0,1,2,3,0.4479564999928698,0.5014242000033846,0.6313508000021102,73.64344024658203,73.64344024658203,0.0,,5.0
7,['1'],1,TMTstop-A_1_1linestimulus4.png,TMTstop-A_1_1greenlinestimulus4.png,TMTstop-A_1_1redlinestimulus4.png,TMT_A,1,7,1.0,74.39984893798828,74.39984893798828,0.0,,1.0,1.0,0.0,1,0.08805310000025202,74.39984893798828,74.39984893798828,0.0,,6.0
8,['2'],2,TMTstop-A_1_1linestimulus5.png,TMTstop-A_1_1greenlinestimulus5.png,TMTstop-A_1_1redlinestimulus5.png,TMT_A,1,8,1.0,74.66634368896484,74.66634368896484,0.0,,1.0,1.0,0.0,2,-0.12457780000113416,74.66634368896484,74.66634368896484,0.0,,7.0
9,['3'],3,TMTstop-A_1_1linestimulus6.png,TMTstop-A_1_1greenlinestimulus6.png,TMTstop-A_1_1redlinestimulus6.png,TMT_A,1,9,1.0,74.80767059326172,74.80767059326172,0.0,,1.0,1.0,0.0,3,-0.13450990000274032,74.80767059326172,74.80767059326172,0.0,,8.0
10,['1'],1,TMTstop-A_1_1linestimulus7.png,TMTstop-A_1_1greenlinestimulus7.png,TMTstop-A_1_1redlinestimulus7.png,TMT_A,1,10,1.0,74.93585205078125,74.93585205078125,0.0,,1.0,1.0,0.0,1,2,3,1,-0.09772710000106599,-0.06190970000170637,0.09122309999656864,0.23761219999869354,74.93585205078125,74.93585205078125,0.0,,9.0
11,['3'],3,TMTstop-A_1_1linestimulus8.png,TMTstop-A_1_1greenlinestimulus8.png,TMTstop-A_1_1redlinestimulus8.png,TMT_A,1,11,1.0,75.34455871582031,75.34455871582031,0.0,,1.0,1.0,0.0,2,3,-0.11268500000005588,0.024202800006605685,75.34455871582031,75.34455871582031,0.0,,10.0
12,['2'],2,TMTstop-A_1_1linestimulus9.png,TMTstop-A_1_1greenlinestimulus9.png,TMTstop-A_1_1redlinestimulus9.png,TMT_A,1,12,1.0,75.4865951538086,75.4865951538086,0.0,,1.0,1.0,0.0,1,2,0.833316799995373,0.9573622000025352,75.4865951538086,75.4865951538086,0.0,,11.0
13,['1'],1,TMTstop-A_1_1linestimulus10.png,TMTstop-A_1_1greenlinestimulus10.png,TMTstop-A_1_1redlinestimulus10.png,TMT_A,1,13,1.0,76.6617202758789,76.6617202758789,0.0,,1.0,1.0,0.0,3,1,2,3,1,-0.056143299996620044,0.187515000012354,0.20850680000148714,0.3746205000061309,1.4755939000024227,76.6617202758789,76.6617202758789,0.0,,12.0
14,['2'],2,TMTstop-A_1_1linestimulus11.png,TMTstop-A_1_1greenlinestimulus11.png,TMTstop-A_1_1redlinestimulus11.png,TMT_A,1,14,1.0,78.2783432006836,78.2783432006836,0.0,,1.0,1.0,0.0,2,-0.07251959999848623,78.2783432006836,78.2783432006836,0.0,,13.0
15,['1'],1,TMTstop-A_1_1linestimulus12.png,TMTstop-A_1_1greenlinestimulus12.png,TMTstop-A_1_1redlinestimulus12.png,TMT_A,1,15,1.0,78.41787719726562,78.41787719726562,0.0,,1.0,1.0,0.0,3,1,-0.06310410000151023,0.12297850000322796,78.41787719726562,78.41787719726562,0.0,,14.0
16,['2'],2,TMTstop-A_1_1linestimulus13.png,TMTstop-A_1_1greenlinestimulus13.png,TMTstop-A_1_1redlinestimulus13.png,TMT_A,1,16,1.0,78.67157745361328,78.67157745361328,0.0,,1.0,1.0,0.0,2,-0.10358150000683963,78.67157745361328,78.67157745361328,0.0,,15.0
17,['1'],1,TMTstop-A_1_1linestimulus14.png,TMTstop-A_1_1greenlinestimulus14.png,TMTstop-A_1_1redlinestimulus14.png,TMT_A,1,17,1.0,78.79908752441406,78.79908752441406,0.0,,1.0,1.0,0.0,3,1,2,3,1,-0.09394560000509955,0.061634600002435036,0.10664659999019932,0.24983279999287333,0.4850323999999091,78.79908752441406,78.79908752441406,0.0,,16.0
18,['3'],3,TMTstop-A_1_1linestimulus15.png,TMTstop-A_1_1greenlinestimulus15.png,TMTstop-A_1_1redlinestimulus15.png,TMT_A,1,18,1.0,79.43165588378906,79.43165588378906,0.0,,1.0,1.0,0.0,2,3,-0.102321899990784,0.052537900002789684,79.43165588378906,79.43165588378906,0.0,,17.0
19,['2'],2,TMTstop-A_1_1linestimulus16.png,TMTstop-A_1_1greenlinestimulus16.png,TMTstop-A_1_1redlinestimulus16.png,TMT_A,1,19,1.0,79.57440185546875,79.57440185546875,0.0,,1.0,1.0,0.0,1,2,0.07982529999571852,0.12960580000071786,79.57440185546875,79.57440185546875,0.0,,18.0
20,['3'],3,TMTstop-A_1_1linestimulus17.png,TMTstop-A_1_1greenlinestimulus17.png,TMTstop-A_1_1redlinestimulus17.png,TMT_A,1,20,1.0,79.83978271484375,79.83978271484375,0.0,,1.0,1.0,0.0,3,-0.007125500007532537,79.83978271484375,79.83978271484375,0.0,,19.0
21,['1'],1,TMTstop-A_1_1linestimulus18.png,TMTstop-A_1_1greenlinestimulus18.png,TMTstop-A_1_1redlinestimulus18.png,TMT_A,1,21,1.0,79.96695709228516,79.96695709228516,0.0,,1.0,1.0,0.0,1,0.048766299994895235,79.96695709228516,79.96695709228516,0.0,,20.0
22,['3'],3,TMTstop-A_1_1linestimulus19.png,TMTstop-A_1_1greenlinestimulus19.png,TMTstop-A_1_1redlinestimulus19.png,TMT_A,1,22,1.0,80.1084976196289,80.1084976196289,0.0,,1.0,1.0,0.0,2,3,-0.024581700010458007,0.09046739999030251,80.1084976196289,80.1084976196289,0.0,,21.0
23,['1'],1,TMTstop-A_1_1linestimulus20.png,TMTstop-A_1_1greenlinestimulus20.png,TMTstop-A_1_1redlinestimulus20.png,TMT_A,1,23,1.0,80.39080047607422,80.39080047607422,0.0,,1.0,1.0,0.0,1,-0.04472669999813661,80.39080047607422,80.39080047607422,0.0,,22.0
24,['3'],3,TMTstop-A_1_1linestimulus21.png,TMTstop-A_1_1greenlinestimulus21.png,TMTstop-A_1_1redlinestimulus21.png,TMT_A,1,24,1.0,80.51969909667969,80.51969909667969,0.0,,1.0,1.0,0.0,2,3,-0.1230039000074612,-0.00441000000864733,80.51969909667969,80.51969909667969,0.0,,23.0
25,['1'],1,TMTstop-A_1_1linestimulus22.png,TMTstop-A_1_1greenlinestimulus22.png,TMTstop-A_1_1redlinestimulus22.png,TMT_A,1,25,1.0,80.64580535888672,80.64580535888672,0.0,,1.0,1.0,0.0,1,0.03457679999701213,80.64580535888672,80.64580535888672,0.0,,24.0
None,None,None,TMTstop-A_1_1linestimulus23.png,TMTstop-A_1_1greenlinestimulus23.png,TMTstop-A_1_1redlinestimulus23.png,TMT_A,1,Feedback_last,1.0,80.7886734008789,80.7886734008789,0.0,,0.0,0.0,0.0,2,3,-0.034986400001798756,0.10334159999911208,80.7886734008789,80.7886734008789,0.0,,25.0

extraInfo
participant,
session,001
date,2022_May_10_1120
expName,TMT_fmri
psychopyVersion,2021.2.3
frameRate,122.71098005607219
﻿NumberLetter,corrAns,Correct,StimFile,Correct_StimFile,False_StimFile,Version,Block,TrialNumber_session,n,Stim.started_mean,Stim.started_raw,Stim.started_std,Stim.stopped_raw,key_resp_2.corr_mean,key_resp_2.corr_raw,key_resp_2.corr_std,key_resp_2.keys_raw,key_resp_2.started_mean,key_resp_2.started_raw,key_resp_2.started_std,key_resp_2.stopped_raw,order
1,['1'],1,TMTstop-A_1_2.png,TMTstop-A_1_2.png,TMTstop-A_1_2.png,TMT_A,2,26,1.0,84.98481750488281,84.98481750488281,0.0,,0.0,0.0,0.0,,84.98481750488281,84.98481750488281,0.0,,0.0
2,['3'],3,TMTstop-A_1_2.png,TMTstop-A_1_2firstgreen.png,TMTstop-A_1_2firstred.png,TMT_A,2,27,0.0,,,,'--',,,,'--',,,,'--',
3,['1'],1,TMTstop-A_1_2linestimulus0.png,TMTstop-A_1_2greenlinestimulus0.png,TMTstop-A_1_2redlinestimulus0.png,TMT_A,2,28,0.0,,,,'--',,,,'--',,,,'--',
4,['2'],2,TMTstop-A_1_2linestimulus1.png,TMTstop-A_1_2greenlinestimulus1.png,TMTstop-A_1_2redlinestimulus1.png,TMT_A,2,29,0.0,,,,'--',,,,'--',,,,'--',
5,['1'],1,TMTstop-A_1_2linestimulus2.png,TMTstop-A_1_2greenlinestimulus2.png,TMTstop-A_1_2redlinestimulus2.png,TMT_A,2,30,0.0,,,,'--',,,,'--',,,,'--',
6,['3'],3,TMTstop-A_1_2linestimulus3.png,TMTstop-A_1_2greenlinestimulus3.png,TMTstop-A_1_2redlinestimulus3.png,TMT_A,2,31,0.0,,,,'--',,,,'--',,,,'--',
7,['2'],2,TMTstop-A_1_2linestimulus4.png,TMTstop-A_1_2greenlinestimulus4.png,TMTstop-A_1_2redlinestimulus4.png,TMT_A,2,32,0.0,,,,'--',,,,'--',,,,'--',
8,['1'],1,TMTstop-A_1_2linestimulus5.png,TMTstop-A_1_2greenlinestimulus5.png,TMTstop-A_1_2redlinestimulus5.png,TMT_A,2,33,0.0,,,,'--',,,,'--',,,,'--',
9,['3'],3,TMTstop-A_1_2linestimulus6.png,TMTstop-A_1_2greenlinestimulus6.png,TMTstop-A_1_2redlinestimulus6.png,TMT_A,2,34,0.0,,,,'--',,,,'--',,,,'--',
10,['2'],2,TMTstop-A_1_2linestimulus7.png,TMTstop-A_1_2greenlinestimulus7.png,TMTstop-A_1_2redlinestimulus7.png,TMT_A,2,35,0.0,,,,'--',,,,'--',,,,'--',
11,['1'],1,TMTstop-A_1_2linestimulus8.png,TMTstop-A_1_2greenlinestimulus8.png,TMTstop-A_1_2redlinestimulus8.png,TMT_A,2,36,0.0,,,,'--',,,,'--',,,,'--',
12,['2'],2,TMTstop-A_1_2linestimulus9.png,TMTstop-A_1_2greenlinestimulus9.png,TMTstop-A_1_2redlinestimulus9.png,TMT_A,2,37,0.0,,,,'--',,,,'--',,,,'--',
13,['1'],1,TMTstop-A_1_2linestimulus10.png,TMTstop-A_1_2greenlinestimulus10.png,TMTstop-A_1_2redlinestimulus10.png,TMT_A,2,38,0.0,,,,'--',,,,'--',,,,'--',
14,['3'],3,TMTstop-A_1_2linestimulus11.png,TMTstop-A_1_2greenlinestimulus11.png,TMTstop-A_1_2redlinestimulus11.png,TMT_A,2,39,0.0,,,,'--',,,,'--',,,,'--',
15,['1'],1,TMTstop-A_1_2linestimulus12.png,TMTstop-A_1_2greenlinestimulus12.png,TMTstop-A_1_2redlinestimulus12.png,TMT_A,2,40,0.0,,,,'--',,,,'--',,,,'--',
16,['3'],3,TMTstop-A_1_2linestimulus13.png,TMTstop-A_1_2greenlinestimulus13.png,TMTstop-A_1_2redlinestimulus13.png,TMT_A,2,41,0.0,,,,'--',,,,'--',,,,'--',
17,['1'],1,TMTstop-A_1_2linestimulus14.png,TMTstop-A_1_2greenlinestimulus14.png,TMTstop-A_1_2redlinestimulus14.png,TMT_A,2,42,0.0,,,,'--',,,,'--',,,,'--',
18,['2'],2,TMTstop-A_1_2linestimulus15.png,TMTstop-A_1_2greenlinestimulus15.png,TMTstop-A_1_2redlinestimulus15.png,TMT_A,2,43,0.0,,,,'--',,,,'--',,,,'--',
19,['1'],1,TMTstop-A_1_2linestimulus16.png,TMTstop-A_1_2greenlinestimulus16.png,TMTstop-A_1_2redlinestimulus16.png,TMT_A,2,44,0.0,,,,'--',,,,'--',,,,'--',
20,['2'],2,TMTstop-A_1_2linestimulus17.png,TMTstop-A_1_2greenlinestimulus17.png,TMTstop-A_1_2redlinestimulus17.png,TMT_A,2,45,0.0,,,,'--',,,,'--',,,,'--',
21,['3'],3,TMTstop-A_1_2linestimulus18.png,TMTstop-A_1_2greenlinestimulus18.png,TMTstop-A_1_2redlinestimulus18.png,TMT_A,2,46,0.0,,,,'--',,,,'--',,,,'--',
22,['2'],2,TMTstop-A_1_2linestimulus19.png,TMTstop-A_1_2greenlinestimulus19.png,TMTstop-A_1_2redlinestimulus19.png,TMT_A,2,47,0.0,,,,'--',,,,'--',,,,'--',
23,['3'],3,TMTstop-A_1_2linestimulus20.png,TMTstop-A_1_2greenlinestimulus20.png,TMTstop-A_1_2redlinestimulus20.png,TMT_A,2,48,0.0,,,,'--',,,,'--',,,,'--',
24,['2'],2,TMTstop-A_1_2linestimulus21.png,TMTstop-A_1_2greenlinestimulus21.png,TMTstop-A_1_2redlinestimulus21.png,TMT_A,2,49,0.0,,,,'--',,,,'--',,,,'--',
25,['3'],3,TMTstop-A_1_2linestimulus22.png,TMTstop-A_1_2greenlinestimulus22.png,TMTstop-A_1_2redlinestimulus22.png,TMT_A,2,50,0.0,,,,'--',,,,'--',,,,'--',
None,None,None,TMTstop-A_1_2linestimulus23.png,TMTstop-A_1_2greenlinestimulus23.png,TMTstop-A_1_2redlinestimulus23.png,TMT_A,2,Feedback_last,0.0,,,,'--',,,,'--',,,,'--',

extraInfo
participant,
session,001
date,2022_May_10_1120
expName,TMT_fmri
psychopyVersion,2021.2.3
frameRate,122.71098005607219
﻿NumberLetter,corrAns,Correct,StimFile,Correct_StimFile,False_StimFile,Version,Block,TrialNumber_session,n,Stim.started_mean,Stim.started_raw,Stim.started_std,Stim.stopped_raw,key_resp_2.corr_mean,key_resp_2.corr_raw,key_resp_2.corr_std,key_resp_2.keys_raw,key_resp_2.started_mean,key_resp_2.started_raw,key_resp_2.started_std,key_resp_2.stopped_raw,order
1,['1'],1,TMTstop-A_1_3.png,TMTstop-A_1_3.png,TMTstop-A_1_3.png,TMT_A,3,51,1.0,117.73824310302734,117.73824310302734,0.0,,0.0,0.0,0.0,,117.73824310302734,117.73824310302734,0.0,,0.0
2,['3'],3,TMTstop-A_1_3.png,TMTstop-A_1_3firstgreen.png,TMTstop-A_1_3firstred.png,TMT_A,3,52,0.0,,,,'--',,,,'--',,,,'--',
3,['2'],2,TMTstop-A_1_3linestimulus0.png,TMTstop-A_1_3greenlinestimulus0.png,TMTstop-A_1_3redlinestimulus0.png,TMT_A,3,53,0.0,,,,'--',,,,'--',,,,'--',
4,['3'],3,TMTstop-A_1_3linestimulus1.png,TMTstop-A_1_3greenlinestimulus1.png,TMTstop-A_1_3redlinestimulus1.png,TMT_A,3,54,0.0,,,,'--',,,,'--',,,,'--',
5,['2'],2,TMTstop-A_1_3linestimulus2.png,TMTstop-A_1_3greenlinestimulus2.png,TMTstop-A_1_3redlinestimulus2.png,TMT_A,3,55,0.0,,,,'--',,,,'--',,,,'--',
6,['1'],1,TMTstop-A_1_3linestimulus3.png,TMTstop-A_1_3greenlinestimulus3.png,TMTstop-A_1_3redlinestimulus3.png,TMT_A,3,56,0.0,,,,'--',,,,'--',,,,'--',
7,['3'],3,TMTstop-A_1_3linestimulus4.png,TMTstop-A_1_3greenlinestimulus4.png,TMTstop-A_1_3redlinestimulus4.png,TMT_A,3,57,0.0,,,,'--',,,,'--',,,,'--',
8,['1'],1,TMTstop-A_1_3linestimulus5.png,TMTstop-A_1_3greenlinestimulus5.png,TMTstop-A_1_3redlinestimulus5.png,TMT_A,3,58,0.0,,,,'--',,,,'--',,,,'--',
9,['3'],3,TMTstop-A_1_3linestimulus6.png,TMTstop-A_1_3greenlinestimulus6.png,TMTstop-A_1_3redlinestimulus6.png,TMT_A,3,59,0.0,,,,'--',,,,'--',,,,'--',
10,['2'],2,TMTstop-A_1_3linestimulus7.png,TMTstop-A_1_3greenlinestimulus7.png,TMTstop-A_1_3redlinestimulus7.png,TMT_A,3,60,0.0,,,,'--',,,,'--',,,,'--',
11,['3'],3,TMTstop-A_1_3linestimulus8.png,TMTstop-A_1_3greenlinestimulus8.png,TMTstop-A_1_3redlinestimulus8.png,TMT_A,3,61,0.0,,,,'--',,,,'--',,,,'--',
12,['2'],2,TMTstop-A_1_3linestimulus9.png,TMTstop-A_1_3greenlinestimulus9.png,TMTstop-A_1_3redlinestimulus9.png,TMT_A,3,62,0.0,,,,'--',,,,'--',,,,'--',
13,['1'],1,TMTstop-A_1_3linestimulus10.png,TMTstop-A_1_3greenlinestimulus10.png,TMTstop-A_1_3redlinestimulus10.png,TMT_A,3,63,0.0,,,,'--',,,,'--',,,,'--',
14,['2'],2,TMTstop-A_1_3linestimulus11.png,TMTstop-A_1_3greenlinestimulus11.png,TMTstop-A_1_3redlinestimulus11.png,TMT_A,3,64,0.0,,,,'--',,,,'--',,,,'--',
15,['3'],3,TMTstop-A_1_3linestimulus12.png,TMTstop-A_1_3greenlinestimulus12.png,TMTstop-A_1_3redlinestimulus12.png,TMT_A,3,65,0.0,,,,'--',,,,'--',,,,'--',
16,['2'],2,TMTstop-A_1_3linestimulus13.png,TMTstop-A_1_3greenlinestimulus13.png,TMTstop-A_1_3redlinestimulus13.png,TMT_A,3,66,0.0,,,,'--',,,,'--',,,,'--',
17,['3'],3,TMTstop-A_1_3linestimulus14.png,TMTstop-A_1_3greenlinestimulus14.png,TMTstop-A_1_3redlinestimulus14.png,TMT_A,3,67,0.0,,,,'--',,,,'--',,,,'--',
18,['2'],2,TMTstop-A_1_3linestimulus15.png,TMTstop-A_1_3greenlinestimulus15.png,TMTstop-A_1_3redlinestimulus15.png,TMT_A,3,68,0.0,,,,'--',,,,'--',,,,'--',
19,['3'],3,TMTstop-A_1_3linestimulus16.png,TMTstop-A_1_3greenlinestimulus16.png,TMTstop-A_1_3redlinestimulus16.png,TMT_A,3,69,0.0,,,,'--',,,,'--',,,,'--',
20,['1'],1,TMTstop-A_1_3linestimulus17.png,TMTstop-A_1_3greenlinestimulus17.png,TMTstop-A_1_3redlinestimulus17.png,TMT_A,3,70,0.0,,,,'--',,,,'--',,,,'--',
21,['2'],2,TMTstop-A_1_3linestimulus18.png,TMTstop-A_1_3greenlinestimulus18.png,TMTstop-A_1_3redlinestimulus18.png,TMT_A,3,71,0.0,,,,'--',,,,'--',,,,'--',
22,['3'],3,TMTstop-A_1_3linestimulus19.png,TMTstop-A_1_3greenlinestimulus19.png,TMTstop-A_1_3redlinestimulus19.png,TMT_A,3,72,0.0,,,,'--',,,,'--',,,,'--',
23,['2'],2,TMTstop-A_1_3linestimulus20.png,TMTstop-A_1_3greenlinestimulus20.png,TMTstop-A_1_3redlinestimulus20.png,TMT_A,3,73,0.0,,,,'--',,,,'--',,,,'--',
24,['1'],1,TMTstop-A_1_3linestimulus21.png,TMTstop-A_1_3greenlinestimulus21.png,TMTstop-A_1_3redlinestimulus21.png,TMT_A,3,74,0.0,,,,'--',,,,'--',,,,'--',
25,['2'],2,TMTstop-A_1_3linestimulus22.png,TMTstop-A_1_3greenlinestimulus22.png,TMTstop-A_1_3redlinestimulus22.png,TMT_A,3,75,0.0,,,,'--',,,,'--',,,,'--',
None,None,None,TMTstop-A_1_3linestimulus23.png,TMTstop-A_1_3greenlinestimulus23.png,TMTstop-A_1_3redlinestimulus23.png,TMT_A,3,Feedback_last,0.0,,,,'--',,,,'--',,,,'--',

extraInfo
participant,
session,001
date,2022_May_10_1120
expName,TMT_fmri
psychopyVersion,2021.2.3
frameRate,122.71098005607219
