NumberLetter,corrAns,Correct,StimFile,Correct_StimFile,False_StimFile,Block,TrialNumber_session,n,Stim.started_mean,Stim.started_raw,Stim.started_std,Stim.stopped_raw,key_resp_2.corr_mean,key_resp_2.corr_raw,key_resp_2.corr_std,key_resp_2.keys_raw,key_resp_2.rt_raw,key_resp_2.started_mean,key_resp_2.started_raw,key_resp_2.started_std,key_resp_2.stopped_raw,order
1,['2'],2,TMTstop-control_1_1.png,TMTstop-control_1_1.png,TMTstop-control_1_1.png,1,1,1.0,17.09937286376953,17.09937286376953,0.0,,1.0,1.0,0.0,2,1.1286718999035656,17.09937286376953,17.09937286376953,0.0,,0.0
2,['1'],1,TMTstop-control_1_1.png,TMTstop-control_1_1firstgreen.png,TMTstop-control_1_1firstred.png,1,2,1.0,18.32190704345703,18.32190704345703,0.0,,1.0,1.0,0.0,3,1,0.2545035001821816,0.5045533000957221,18.32190704345703,18.32190704345703,0.0,,1.0
3,['2'],2,TMTstop-control_1_1linestimulus0.png,TMTstop-control_1_1greenlinestimulus0.png,TMTstop-control_1_1redlinestimulus0.png,1,3,1.0,18.912036895751953,18.912036895751953,0.0,,1.0,1.0,0.0,2,-0.01058429991826415,18.912036895751953,18.912036895751953,0.0,,2.0
4,['3'],3,TMTstop-control_1_1linestimulus1.png,TMTstop-control_1_1greenlinestimulus1.png,TMTstop-control_1_1redlinestimulus1.png,1,4,1.0,18.98830223083496,18.98830223083496,0.0,,1.0,1.0,0.0,3,0.009169999975711107,18.98830223083496,18.98830223083496,0.0,,3.0
5,['2'],2,TMTstop-control_1_1linestimulus2.png,TMTstop-control_1_1greenlinestimulus2.png,TMTstop-control_1_1redlinestimulus2.png,1,5,1.0,19.07183074951172,19.07183074951172,0.0,,1.0,1.0,0.0,1,2,0.11873469990678132,0.16424690000712872,19.07183074951172,19.07183074951172,0.0,,4.0
6,['1'],1,TMTstop-control_1_1linestimulus3.png,TMTstop-control_1_1greenlinestimulus3.png,TMTstop-control_1_1redlinestimulus3.png,1,6,1.0,19.31488800048828,19.31488800048828,0.0,,1.0,1.0,0.0,3,1,0.02789580007083714,0.1954539001453668,19.31488800048828,19.31488800048828,0.0,,5.0
7,['3'],3,TMTstop-control_1_1linestimulus4.png,TMTstop-control_1_1greenlinestimulus4.png,TMTstop-control_1_1redlinestimulus4.png,1,7,1.0,19.62031364440918,19.62031364440918,0.0,,1.0,1.0,0.0,2,3,-0.06336300005204976,0.07481939997524023,19.62031364440918,19.62031364440918,0.0,,6.0
8,['2'],2,TMTstop-control_1_1linestimulus4.png,TMTstop-control_1_1greenlinestimulus5.png,TMTstop-control_1_1redlinestimulus5.png,1,8,1.0,19.77369499206543,19.77369499206543,0.0,,1.0,1.0,0.0,1,2,0.07243579998612404,0.11654630000703037,19.77369499206543,19.77369499206543,0.0,,7.0
9,['3'],3,TMTstop-control_1_1linestimulus6.png,TMTstop-control_1_1greenlinestimulus6.png,TMTstop-control_1_1redlinestimulus6.png,1,9,1.0,19.960628509521484,19.960628509521484,0.0,,1.0,1.0,0.0,3,0.07135109999217093,19.960628509521484,19.960628509521484,0.0,,8.0
10,['2'],2,TMTstop-control_1_1linestimulus7.png,TMTstop-control_1_1greenlinestimulus7.png,TMTstop-control_1_1redlinestimulus7.png,1,10,1.0,20.113571166992188,20.113571166992188,0.0,,1.0,1.0,0.0,1,2,0.06773679982870817,0.09882359998300672,20.113571166992188,20.113571166992188,0.0,,9.0
11,['3'],3,TMTstop-control_1_1linestimulus8.png,TMTstop-control_1_1greenlinestimulus8.png,TMTstop-control_1_1redlinestimulus8.png,1,11,1.0,20.300813674926758,20.300813674926758,0.0,,1.0,1.0,0.0,3,0.025498999981209636,20.300813674926758,20.300813674926758,0.0,,10.0
12,['1'],1,TMTstop-control_1_1linestimulus9.png,TMTstop-control_1_1greenlinestimulus9.png,TMTstop-control_1_1redlinestimulus9.png,1,12,1.0,20.412797927856445,20.412797927856445,0.0,,1.0,1.0,0.0,1,0.06742090010084212,20.412797927856445,20.412797927856445,0.0,,11.0
13,['3'],3,TMTstop-control_1_1linestimulus10.png,TMTstop-control_1_1greenlinestimulus10.png,TMTstop-control_1_1redlinestimulus10.png,1,13,1.0,20.564977645874023,20.564977645874023,0.0,,1.0,1.0,0.0,2,3,-0.03718370012938976,0.07826179987750947,20.564977645874023,20.564977645874023,0.0,,12.0
14,['1'],1,TMTstop-control_1_1linestimulus11.png,TMTstop-control_1_1greenlinestimulus11.png,TMTstop-control_1_1redlinestimulus11.png,1,14,1.0,20.717775344848633,20.717775344848633,0.0,,1.0,1.0,0.0,1,0.07391709997318685,20.717775344848633,20.717775344848633,0.0,,13.0
15,['3'],3,TMTstop-control_1_1linestimulus12.png,TMTstop-control_1_1greenlinestimulus12.png,TMTstop-control_1_1redlinestimulus12.png,1,15,1.0,20.870275497436523,20.870275497436523,0.0,,1.0,1.0,0.0,2,3,-0.021642599953338504,0.08377310005016625,20.870275497436523,20.870275497436523,0.0,,14.0
16,['1'],1,TMTstop-control_1_1linestimulus13.png,TMTstop-control_1_1greenlinestimulus13.png,TMTstop-control_1_1redlinestimulus13.png,1,16,1.0,21.03036117553711,21.03036117553711,0.0,,1.0,1.0,0.0,1,0.09869570005685091,21.03036117553711,21.03036117553711,0.0,,15.0
17,['2'],2,TMTstop-control_1_1linestimulus14.png,TMTstop-control_1_1greenlinestimulus14.png,TMTstop-control_1_1redlinestimulus14.png,1,17,1.0,21.203750610351562,21.203750610351562,0.0,,1.0,1.0,0.0,2,-0.04551959992386401,21.203750610351562,21.203750610351562,0.0,,16.0
18,['1'],1,TMTstop-control_1_1linestimulus15.png,TMTstop-control_1_1greenlinestimulus15.png,TMTstop-control_1_1redlinestimulus15.png,1,18,1.0,21.28043556213379,21.28043556213379,0.0,,1.0,1.0,0.0,3,1,0.014591700164601207,0.16477860021404922,21.28043556213379,21.28043556213379,0.0,,17.0
19,['3'],3,TMTstop-control_1_1linestimulus16.png,TMTstop-control_1_1greenlinestimulus16.png,TMTstop-control_1_1redlinestimulus16.png,1,19,1.0,21.546308517456055,21.546308517456055,0.0,,1.0,1.0,0.0,2,3,-0.04580789990723133,0.060440200148150325,21.546308517456055,21.546308517456055,0.0,,18.0
20,['1'],1,TMTstop-control_1_1linestimulus17.png,TMTstop-control_1_1greenlinestimulus17.png,TMTstop-control_1_1redlinestimulus17.png,1,20,1.0,21.698551177978516,21.698551177978516,0.0,,1.0,1.0,0.0,1,0.040847300086170435,21.698551177978516,21.698551177978516,0.0,,19.0
21,['3'],3,TMTstop-control_1_1linestimulus18.png,TMTstop-control_1_1greenlinestimulus18.png,TMTstop-control_1_1redlinestimulus18.png,1,21,1.0,21.816410064697266,21.816410064697266,0.0,,1.0,1.0,0.0,2,3,-0.013705900171771646,0.09824059996753931,21.816410064697266,21.816410064697266,0.0,,20.0
22,['1'],1,TMTstop-control_1_1linestimulus19.png,TMTstop-control_1_1greenlinestimulus19.png,TMTstop-control_1_1redlinestimulus19.png,1,22,1.0,22.016239166259766,22.016239166259766,0.0,,1.0,1.0,0.0,1,0.2422159998677671,22.016239166259766,22.016239166259766,0.0,,21.0
23,['3'],3,TMTstop-control_1_1linestimulus20.png,TMTstop-control_1_1greenlinestimulus20.png,TMTstop-control_1_1redlinestimulus20.png,1,23,1.0,22.335752487182617,22.335752487182617,0.0,,1.0,1.0,0.0,2,3,-0.01851900015026331,0.09738179994747043,22.335752487182617,22.335752487182617,0.0,,22.0
24,['1'],1,TMTstop-control_1_1linestimulus21.png,TMTstop-control_1_1greenlinestimulus21.png,TMTstop-control_1_1redlinestimulus21.png,1,24,1.0,22.53012466430664,22.53012466430664,0.0,,1.0,1.0,0.0,1,0.049041599966585636,22.53012466430664,22.53012466430664,0.0,,23.0
25,['3'],3,TMTstop-control_1_1linestimulus22.png,TMTstop-control_1_1greenlinestimulus22.png,TMTstop-control_1_1redlinestimulus22.png,1,25,1.0,22.662439346313477,22.662439346313477,0.0,,1.0,1.0,0.0,2,3,-0.04373560007661581,0.07270619994960725,22.662439346313477,22.662439346313477,0.0,,24.0
None,None,None,TMTstop-control_1_1linestimulus23.png,TMTstop-control_1_1greenlinestimulus23.png,TMTstop-control_1_1redlinestimulus23.png,1,Feedback_last,1.0,22.821765899658203,22.821765899658203,0.0,,0.0,0.0,0.0,1,2,3,0.05120839993469417,0.11251899995841086,0.21094870008528233,22.821765899658203,22.821765899658203,0.0,,25.0

extraInfo
participant,
session,001
date,2022_Feb_02_1703
expName,TMTAstop-A
psychopyVersion,2021.2.3
frameRate,145.11702956511184
﻿NumberLetter,corrAns,Correct,StimFile,Correct_StimFile,False_StimFile,Block,TrialNumber_session,n,Stim.started_mean,Stim.started_raw,Stim.started_std,Stim.stopped_raw,key_resp_2.corr_mean,key_resp_2.corr_raw,key_resp_2.corr_std,key_resp_2.keys_raw,key_resp_2.rt_raw,key_resp_2.started_mean,key_resp_2.started_raw,key_resp_2.started_std,key_resp_2.stopped_raw,order
1,['1'],1,TMTstop-control_1_2.png,TMTstop-control_1_2.png,TMTstop-control_1_2.png,2,26,1.0,26.9892578125,26.9892578125,0.0,,1.0,1.0,0.0,1,0.5488293000962585,26.9892578125,26.9892578125,0.0,,0.0
2,['3'],3,TMTstop-control_1_2.png,TMTstop-control_1_2firstgreen.png,TMTstop-control_1_2firstred.png,2,27,1.0,27.61402702331543,27.61402702331543,0.0,,1.0,1.0,0.0,2,3,-0.038700300035998225,0.0749205001629889,27.61402702331543,27.61402702331543,0.0,,1.0
3,['2'],2,TMTstop-control_1_2linestimulus0.png,TMTstop-control_1_2greenlinestimulus0.png,TMTstop-control_1_2redlinestimulus0.png,2,28,1.0,27.77288055419922,27.77288055419922,0.0,,1.0,1.0,0.0,1,2,0.062994500156492,0.08507370017468929,27.77288055419922,27.77288055419922,0.0,,2.0
4,['3'],3,TMTstop-control_1_2linestimulus1.png,TMTstop-control_1_2greenlinestimulus1.png,TMTstop-control_1_2redlinestimulus1.png,2,29,1.0,27.953453063964844,27.953453063964844,0.0,,1.0,1.0,0.0,3,0.0063304000068455935,27.953453063964844,27.953453063964844,0.0,,3.0
5,['1'],1,TMTstop-control_1_2linestimulus2.png,TMTstop-control_1_2greenlinestimulus2.png,TMTstop-control_1_2redlinestimulus2.png,2,30,1.0,28.045047760009766,28.045047760009766,0.0,,1.0,1.0,0.0,1,0.044024999951943755,28.045047760009766,28.045047760009766,0.0,,4.0
6,['3'],3,TMTstop-control_1_2linestimulus3.png,TMTstop-control_1_2greenlinestimulus3.png,TMTstop-control_1_2redlinestimulus3.png,2,31,1.0,28.161964416503906,28.161964416503906,0.0,,1.0,1.0,0.0,2,3,-0.036550800083205104,0.052107400028035045,28.161964416503906,28.161964416503906,0.0,,5.0
7,['2'],2,TMTstop-control_1_2linestimulus4.png,TMTstop-control_1_2greenlinestimulus4.png,TMTstop-control_1_2redlinestimulus4.png,2,32,1.0,28.314617156982422,28.314617156982422,0.0,,1.0,1.0,0.0,1,2,0.025671300012618303,0.06783610000275075,28.314617156982422,28.314617156982422,0.0,,6.0
8,['1'],1,TMTstop-control_1_2linestimulus4.png,TMTstop-control_1_2greenlinestimulus5.png,TMTstop-control_1_2redlinestimulus5.png,2,33,1.0,28.467369079589844,28.467369079589844,0.0,,1.0,1.0,0.0,3,1,-0.002865200163796544,0.12194779980927706,28.467369079589844,28.467369079589844,0.0,,7.0
9,['2'],2,TMTstop-control_1_2linestimulus6.png,TMTstop-control_1_2greenlinestimulus6.png,TMTstop-control_1_2redlinestimulus6.png,2,34,1.0,28.66231346130371,28.66231346130371,0.0,,1.0,1.0,0.0,2,0.012965099886059761,28.66231346130371,28.66231346130371,0.0,,8.0
10,['3'],3,TMTstop-control_1_2linestimulus7.png,TMTstop-control_1_2greenlinestimulus7.png,TMTstop-control_1_2redlinestimulus7.png,2,35,1.0,28.745147705078125,28.745147705078125,0.0,,1.0,1.0,0.0,3,-0.02483300003223121,28.745147705078125,28.745147705078125,0.0,,9.0
11,['1'],1,TMTstop-control_1_2linestimulus8.png,TMTstop-control_1_2greenlinestimulus8.png,TMTstop-control_1_2redlinestimulus8.png,2,36,1.0,28.82158088684082,28.82158088684082,0.0,,1.0,1.0,0.0,1,0.04624970001168549,28.82158088684082,28.82158088684082,0.0,,10.0
12,['2'],2,TMTstop-control_1_2linestimulus9.png,TMTstop-control_1_2greenlinestimulus9.png,TMTstop-control_1_2redlinestimulus9.png,2,37,1.0,28.94647789001465,28.94647789001465,0.0,,1.0,1.0,0.0,2,-0.055707700084894896,28.94647789001465,28.94647789001465,0.0,,11.0
13,['3'],3,TMTstop-control_1_2linestimulus10.png,TMTstop-control_1_2greenlinestimulus10.png,TMTstop-control_1_2redlinestimulus10.png,2,38,1.0,29.022825241088867,29.022825241088867,0.0,,1.0,1.0,0.0,3,-0.018015400040894747,29.022825241088867,29.022825241088867,0.0,,12.0
14,['1'],1,TMTstop-control_1_2linestimulus11.png,TMTstop-control_1_2greenlinestimulus11.png,TMTstop-control_1_2redlinestimulus11.png,2,39,1.0,29.092866897583008,29.092866897583008,0.0,,1.0,1.0,0.0,1,0.06282500014640391,29.092866897583008,29.092866897583008,0.0,,13.0
15,['2'],2,TMTstop-control_1_2linestimulus12.png,TMTstop-control_1_2greenlinestimulus12.png,TMTstop-control_1_2redlinestimulus12.png,2,40,1.0,29.231332778930664,29.231332778930664,0.0,,1.0,1.0,0.0,2,-0.050230100052431226,29.231332778930664,29.231332778930664,0.0,,14.0
16,['1'],1,TMTstop-control_1_2linestimulus13.png,TMTstop-control_1_2greenlinestimulus13.png,TMTstop-control_1_2redlinestimulus13.png,2,41,1.0,29.307621002197266,29.307621002197266,0.0,,1.0,1.0,0.0,3,1,-0.02654249989427626,0.1176895999815315,29.307621002197266,29.307621002197266,0.0,,15.0
17,['2'],2,TMTstop-control_1_2linestimulus14.png,TMTstop-control_1_2greenlinestimulus14.png,TMTstop-control_1_2redlinestimulus14.png,2,42,1.0,29.509140014648438,29.509140014648438,0.0,,1.0,1.0,0.0,2,-0.05499219987541437,29.509140014648438,29.509140014648438,0.0,,16.0
18,['1'],1,TMTstop-control_1_2linestimulus15.png,TMTstop-control_1_2greenlinestimulus15.png,TMTstop-control_1_2redlinestimulus15.png,2,43,1.0,29.585264205932617,29.585264205932617,0.0,,1.0,1.0,0.0,3,1,-0.03048809990286827,0.10966409998945892,29.585264205932617,29.585264205932617,0.0,,17.0
19,['3'],3,TMTstop-control_1_2linestimulus16.png,TMTstop-control_1_2greenlinestimulus16.png,TMTstop-control_1_2redlinestimulus16.png,2,44,1.0,29.7800350189209,29.7800350189209,0.0,,1.0,1.0,0.0,2,3,-0.034126700134947896,0.06523319985717535,29.7800350189209,29.7800350189209,0.0,,18.0
20,['1'],1,TMTstop-control_1_2linestimulus17.png,TMTstop-control_1_2greenlinestimulus17.png,TMTstop-control_1_2redlinestimulus17.png,2,45,1.0,29.93989372253418,29.93989372253418,0.0,,1.0,1.0,0.0,1,0.0329243999440223,29.93989372253418,29.93989372253418,0.0,,19.0
21,['2'],2,TMTstop-control_1_2linestimulus18.png,TMTstop-control_1_2greenlinestimulus18.png,TMTstop-control_1_2redlinestimulus18.png,2,46,1.0,30.058385848999023,30.058385848999023,0.0,,1.0,1.0,0.0,2,-0.02517709997482598,30.058385848999023,30.058385848999023,0.0,,20.0
22,['1'],1,TMTstop-control_1_2linestimulus19.png,TMTstop-control_1_2greenlinestimulus19.png,TMTstop-control_1_2redlinestimulus19.png,2,47,1.0,30.134485244750977,30.134485244750977,0.0,,1.0,1.0,0.0,3,1,-0.01838400005362928,0.11369400005787611,30.134485244750977,30.134485244750977,0.0,,21.0
23,['3'],3,TMTstop-control_1_2linestimulus20.png,TMTstop-control_1_2greenlinestimulus20.png,TMTstop-control_1_2redlinestimulus20.png,2,48,1.0,30.350364685058594,30.350364685058594,0.0,,1.0,1.0,0.0,2,3,-0.03867930010892451,0.045392399886623025,30.350364685058594,30.350364685058594,0.0,,22.0
24,['1'],1,TMTstop-control_1_2linestimulus21.png,TMTstop-control_1_2greenlinestimulus21.png,TMTstop-control_1_2redlinestimulus21.png,2,49,1.0,30.50944709777832,30.50944709777832,0.0,,1.0,1.0,0.0,1,0.02325280010700226,30.50944709777832,30.50944709777832,0.0,,23.0
25,['3'],3,TMTstop-control_1_2linestimulus22.png,TMTstop-control_1_2greenlinestimulus22.png,TMTstop-control_1_2redlinestimulus22.png,2,50,1.0,30.613872528076172,30.613872528076172,0.0,,1.0,1.0,0.0,2,3,-0.02144009992480278,0.06444300012663007,30.613872528076172,30.613872528076172,0.0,,24.0
None,None,None,TMTstop-control_1_2linestimulus23.png,TMTstop-control_1_2greenlinestimulus23.png,TMTstop-control_1_2redlinestimulus23.png,2,Feedback_last,1.0,30.773263931274414,30.773263931274414,0.0,,0.0,0.0,0.0,1,2,3,1,0.03858969989232719,0.10239429981447756,0.1959818999748677,0.3247148999944329,30.773263931274414,30.773263931274414,0.0,,25.0

extraInfo
participant,
session,001
date,2022_Feb_02_1703
expName,TMTAstop-A
psychopyVersion,2021.2.3
frameRate,145.11702956511184
﻿NumberLetter,corrAns,Correct,StimFile,Correct_StimFile,False_StimFile,Block,TrialNumber_session,n,Stim.started_mean,Stim.started_raw,Stim.started_std,Stim.stopped_raw,key_resp_2.corr_mean,key_resp_2.corr_raw,key_resp_2.corr_std,key_resp_2.keys_raw,key_resp_2.rt_raw,key_resp_2.started_mean,key_resp_2.started_raw,key_resp_2.started_std,key_resp_2.stopped_raw,order
1,['3'],3,TMTstop-control_1_3.png,TMTstop-control_1_3.png,TMTstop-control_1_3.png,3,51,1.0,34.883419036865234,34.883419036865234,0.0,,1.0,1.0,0.0,1,2,3,0.3767150000203401,0.47294569993391633,0.5327139000874013,34.883419036865234,34.883419036865234,0.0,,0.0
2,['1'],1,TMTstop-control_1_3.png,TMTstop-control_1_3firstgreen.png,TMTstop-control_1_3firstred.png,3,52,1.0,35.502445220947266,35.502445220947266,0.0,,1.0,1.0,0.0,1,0.08796260016970336,35.502445220947266,35.502445220947266,0.0,,1.0
3,['3'],3,TMTstop-control_1_3linestimulus0.png,TMTstop-control_1_3greenlinestimulus0.png,TMTstop-control_1_3redlinestimulus0.png,3,53,1.0,35.661617279052734,35.661617279052734,0.0,,1.0,1.0,0.0,2,3,-0.020938500063493848,0.07656339998356998,35.661617279052734,35.661617279052734,0.0,,2.0
4,['1'],1,TMTstop-control_1_3linestimulus1.png,TMTstop-control_1_3greenlinestimulus1.png,TMTstop-control_1_3redlinestimulus1.png,3,54,1.0,35.8145866394043,35.8145866394043,0.0,,1.0,1.0,0.0,1,0.056699000066146255,35.8145866394043,35.8145866394043,0.0,,3.0
5,['3'],3,TMTstop-control_1_3linestimulus2.png,TMTstop-control_1_3greenlinestimulus2.png,TMTstop-control_1_3redlinestimulus2.png,3,55,1.0,35.93951416015625,35.93951416015625,0.0,,1.0,1.0,0.0,2,3,-0.005532300099730492,0.07405129983089864,35.93951416015625,35.93951416015625,0.0,,4.0
6,['2'],2,TMTstop-control_1_3linestimulus3.png,TMTstop-control_1_3greenlinestimulus3.png,TMTstop-control_1_3redlinestimulus3.png,3,56,1.0,36.099205017089844,36.099205017089844,0.0,,1.0,1.0,0.0,1,2,0.04796100012026727,0.10899890004657209,36.099205017089844,36.099205017089844,0.0,,5.0
7,['1'],1,TMTstop-control_1_3linestimulus4.png,TMTstop-control_1_3greenlinestimulus4.png,TMTstop-control_1_3redlinestimulus4.png,3,57,1.0,36.300968170166016,36.300968170166016,0.0,,1.0,1.0,0.0,3,1,-0.008828999940305948,0.12482540006749332,36.300968170166016,36.300968170166016,0.0,,6.0
8,['3'],3,TMTstop-control_1_3linestimulus4.png,TMTstop-control_1_3greenlinestimulus5.png,TMTstop-control_1_3redlinestimulus5.png,3,58,1.0,36.50324249267578,36.50324249267578,0.0,,1.0,1.0,0.0,2,3,-0.008299299981445074,0.08148140017874539,36.50324249267578,36.50324249267578,0.0,,7.0
9,['2'],2,TMTstop-control_1_3linestimulus6.png,TMTstop-control_1_3greenlinestimulus6.png,TMTstop-control_1_3redlinestimulus6.png,3,59,1.0,36.65550994873047,36.65550994873047,0.0,,1.0,1.0,0.0,1,2,0.10122979991137981,0.11653500003740191,36.65550994873047,36.65550994873047,0.0,,8.0
10,['3'],3,TMTstop-control_1_3linestimulus7.png,TMTstop-control_1_3greenlinestimulus7.png,TMTstop-control_1_3redlinestimulus7.png,3,60,1.0,36.86295700073242,36.86295700073242,0.0,,1.0,1.0,0.0,3,0.04552160017192364,36.86295700073242,36.86295700073242,0.0,,9.0
11,['2'],2,TMTstop-control_1_3linestimulus8.png,TMTstop-control_1_3greenlinestimulus8.png,TMTstop-control_1_3redlinestimulus8.png,3,61,1.0,36.981685638427734,36.981685638427734,0.0,,1.0,1.0,0.0,1,2,0.09763159998692572,0.1279035999905318,36.981685638427734,36.981685638427734,0.0,,10.0
12,['1'],1,TMTstop-control_1_3linestimulus9.png,TMTstop-control_1_3greenlinestimulus9.png,TMTstop-control_1_3redlinestimulus9.png,3,62,1.0,37.19620895385742,37.19620895385742,0.0,,1.0,1.0,0.0,3,1,0.04497389984317124,0.19547209981828928,37.19620895385742,37.19620895385742,0.0,,11.0
13,['2'],2,TMTstop-control_1_3linestimulus10.png,TMTstop-control_1_3greenlinestimulus10.png,TMTstop-control_1_3redlinestimulus10.png,3,63,1.0,37.489295959472656,37.489295959472656,0.0,,1.0,1.0,0.0,2,0.0017695999704301357,37.489295959472656,37.489295959472656,0.0,,12.0
14,['3'],3,TMTstop-control_1_3linestimulus11.png,TMTstop-control_1_3greenlinestimulus11.png,TMTstop-control_1_3redlinestimulus11.png,3,64,1.0,37.58641815185547,37.58641815185547,0.0,,1.0,1.0,0.0,3,-0.02539770002476871,37.58641815185547,37.58641815185547,0.0,,13.0
15,['2'],2,TMTstop-control_1_3linestimulus12.png,TMTstop-control_1_3greenlinestimulus12.png,TMTstop-control_1_3redlinestimulus12.png,3,65,1.0,37.67070007324219,37.67070007324219,0.0,,1.0,1.0,0.0,1,2,0.07945810002274811,0.09480309998616576,37.67070007324219,37.67070007324219,0.0,,14.0
16,['1'],1,TMTstop-control_1_3linestimulus13.png,TMTstop-control_1_3greenlinestimulus13.png,TMTstop-control_1_3redlinestimulus13.png,3,66,1.0,37.8705940246582,37.8705940246582,0.0,,1.0,1.0,0.0,3,1,0.03481639991514385,0.1925158998928964,37.8705940246582,37.8705940246582,0.0,,15.0
17,['2'],2,TMTstop-control_1_3linestimulus14.png,TMTstop-control_1_3greenlinestimulus14.png,TMTstop-control_1_3redlinestimulus14.png,3,67,1.0,38.1479606628418,38.1479606628418,0.0,,1.0,1.0,0.0,2,-0.03148370003327727,38.1479606628418,38.1479606628418,0.0,,16.0
18,['3'],3,TMTstop-control_1_3linestimulus15.png,TMTstop-control_1_3greenlinestimulus15.png,TMTstop-control_1_3redlinestimulus15.png,3,68,1.0,38.22405242919922,38.22405242919922,0.0,,1.0,1.0,0.0,3,0.007473199861124158,38.22405242919922,38.22405242919922,0.0,,17.0
19,['1'],1,TMTstop-control_1_3linestimulus16.png,TMTstop-control_1_3greenlinestimulus16.png,TMTstop-control_1_3redlinestimulus16.png,3,69,1.0,38.31459045410156,38.31459045410156,0.0,,1.0,1.0,0.0,1,0.17390809999778867,38.31459045410156,38.31459045410156,0.0,,18.0
20,['2'],2,TMTstop-control_1_3linestimulus17.png,TMTstop-control_1_3greenlinestimulus17.png,TMTstop-control_1_3redlinestimulus17.png,3,70,1.0,38.56522750854492,38.56522750854492,0.0,,1.0,1.0,0.0,2,-0.0358133998233825,38.56522750854492,38.56522750854492,0.0,,19.0
21,['3'],3,TMTstop-control_1_3linestimulus18.png,TMTstop-control_1_3greenlinestimulus18.png,TMTstop-control_1_3redlinestimulus18.png,3,71,1.0,38.63370895385742,38.63370895385742,0.0,,1.0,1.0,0.0,3,0.022961299866437912,38.63370895385742,38.63370895385742,0.0,,20.0
22,['2'],2,TMTstop-control_1_3linestimulus19.png,TMTstop-control_1_3greenlinestimulus19.png,TMTstop-control_1_3redlinestimulus19.png,3,72,1.0,38.7239875793457,38.7239875793457,0.0,,1.0,1.0,0.0,1,2,0.0821573999710381,0.10804779990576208,38.7239875793457,38.7239875793457,0.0,,21.0
23,['1'],1,TMTstop-control_1_3linestimulus20.png,TMTstop-control_1_3greenlinestimulus20.png,TMTstop-control_1_3redlinestimulus20.png,3,73,1.0,38.92539978027344,38.92539978027344,0.0,,1.0,1.0,0.0,3,1,0.04117460013367236,0.181877400027588,38.92539978027344,38.92539978027344,0.0,,22.0
24,['3'],3,TMTstop-control_1_3linestimulus21.png,TMTstop-control_1_3greenlinestimulus21.png,TMTstop-control_1_3redlinestimulus21.png,3,74,1.0,39.21084976196289,39.21084976196289,0.0,,1.0,1.0,0.0,2,3,-0.0378479000646621,0.05336499982513487,39.21084976196289,39.21084976196289,0.0,,23.0
25,['1'],1,TMTstop-control_1_3linestimulus22.png,TMTstop-control_1_3greenlinestimulus22.png,TMTstop-control_1_3redlinestimulus22.png,3,75,1.0,39.369869232177734,39.369869232177734,0.0,,1.0,1.0,0.0,1,0.022212699986994267,39.369869232177734,39.369869232177734,0.0,,24.0
None,None,None,TMTstop-control_1_3linestimulus23.png,TMTstop-control_1_3greenlinestimulus23.png,TMTstop-control_1_3redlinestimulus23.png,3,Feedback_last,1.0,39.46024703979492,39.46024703979492,0.0,,0.0,0.0,0.0,2,3,1,0.008210700005292892,0.08348889998160303,0.21017699991352856,39.46024703979492,39.46024703979492,0.0,,25.0

extraInfo
participant,
session,001
date,2022_Feb_02_1703
expName,TMTAstop-A
psychopyVersion,2021.2.3
frameRate,145.11702956511184
﻿NumberLetter,corrAns,Correct,StimFile,Correct_StimFile,False_StimFile,Block,TrialNumber_session,n,Stim.started_mean,Stim.started_raw,Stim.started_std,Stim.stopped_raw,key_resp_2.corr_mean,key_resp_2.corr_raw,key_resp_2.corr_std,key_resp_2.keys_raw,key_resp_2.rt_raw,key_resp_2.started_mean,key_resp_2.started_raw,key_resp_2.started_std,key_resp_2.stopped_raw,order
1,['2'],2,TMTstop-control_1_4.png,TMTstop-control_1_4.png,TMTstop-control_1_4.png,4,76,1.0,43.59159851074219,43.59159851074219,0.0,,1.0,1.0,0.0,1,2,0.519388800021261,0.6353541000280529,43.59159851074219,43.59159851074219,0.0,,0.0
2,['1'],1,TMTstop-control_1_4.png,TMTstop-control_1_4firstgreen.png,TMTstop-control_1_4firstred.png,4,77,1.0,44.32859420776367,44.32859420776367,0.0,,1.0,1.0,0.0,3,1,2,3,1,2,3,1,-0.04306300007738173,0.12750039994716644,0.1523117998149246,0.2668835998047143,0.4110755999572575,0.42995429993607104,0.5393532000016421,0.6806616999674588,44.32859420776367,44.32859420776367,0.0,,1.0
3,['3'],3,TMTstop-control_1_4linestimulus0.png,TMTstop-control_1_4greenlinestimulus0.png,TMTstop-control_1_4redlinestimulus0.png,4,78,1.0,45.1060676574707,45.1060676574707,0.0,,1.0,1.0,0.0,2,3,-0.054957899963483214,0.038113600108772516,45.1060676574707,45.1060676574707,0.0,,2.0
4,['1'],1,TMTstop-control_1_4linestimulus1.png,TMTstop-control_1_4greenlinestimulus1.png,TMTstop-control_1_4redlinestimulus1.png,4,79,1.0,45.224998474121094,45.224998474121094,0.0,,1.0,1.0,0.0,1,0.09715840010903776,45.224998474121094,45.224998474121094,0.0,,3.0
5,['2'],2,TMTstop-control_1_4linestimulus2.png,TMTstop-control_1_4greenlinestimulus2.png,TMTstop-control_1_4redlinestimulus2.png,4,80,1.0,45.404449462890625,45.404449462890625,0.0,,1.0,1.0,0.0,2,-0.0679299000184983,45.404449462890625,45.404449462890625,0.0,,4.0
6,['1'],1,TMTstop-control_1_4linestimulus3.png,TMTstop-control_1_4greenlinestimulus3.png,TMTstop-control_1_4redlinestimulus3.png,4,81,1.0,45.473915100097656,45.473915100097656,0.0,,1.0,1.0,0.0,3,1,0.01904299994930625,0.16342579992488027,45.473915100097656,45.473915100097656,0.0,,5.0
7,['3'],3,TMTstop-control_1_4linestimulus4.png,TMTstop-control_1_4greenlinestimulus4.png,TMTstop-control_1_4redlinestimulus4.png,4,82,1.0,45.72484588623047,45.72484588623047,0.0,,1.0,1.0,0.0,2,3,-0.05941099999472499,0.09577989997342229,45.72484588623047,45.72484588623047,0.0,,6.0
8,['1'],1,TMTstop-control_1_4linestimulus4.png,TMTstop-control_1_4greenlinestimulus5.png,TMTstop-control_1_4redlinestimulus5.png,4,83,1.0,45.91838073730469,45.91838073730469,0.0,,1.0,1.0,0.0,1,0.04034300008788705,45.91838073730469,45.91838073730469,0.0,,7.0
9,['2'],2,TMTstop-control_1_4linestimulus6.png,TMTstop-control_1_4greenlinestimulus6.png,TMTstop-control_1_4redlinestimulus6.png,4,84,1.0,46.036746978759766,46.036746978759766,0.0,,1.0,1.0,0.0,2,-0.039612799882888794,46.036746978759766,46.036746978759766,0.0,,8.0
10,['1'],1,TMTstop-control_1_4linestimulus7.png,TMTstop-control_1_4greenlinestimulus7.png,TMTstop-control_1_4redlinestimulus7.png,4,85,1.0,46.10580825805664,46.10580825805664,0.0,,1.0,1.0,0.0,3,1,0.010453299852088094,0.17902169981971383,46.10580825805664,46.10580825805664,0.0,,9.0
11,['2'],2,TMTstop-control_1_4linestimulus8.png,TMTstop-control_1_4greenlinestimulus8.png,TMTstop-control_1_4redlinestimulus8.png,4,86,1.0,46.356998443603516,46.356998443603516,0.0,,1.0,1.0,0.0,2,-0.0028774000238627195,46.356998443603516,46.356998443603516,0.0,,10.0
12,['1'],1,TMTstop-control_1_4linestimulus9.png,TMTstop-control_1_4greenlinestimulus9.png,TMTstop-control_1_4redlinestimulus9.png,4,87,1.0,46.425132751464844,46.425132751464844,0.0,,1.0,1.0,0.0,3,1,0.03792009991593659,0.18685079994611442,46.425132751464844,46.425132751464844,0.0,,11.0
13,['2'],2,TMTstop-control_1_4linestimulus10.png,TMTstop-control_1_4greenlinestimulus10.png,TMTstop-control_1_4redlinestimulus10.png,4,88,1.0,46.696170806884766,46.696170806884766,0.0,,1.0,1.0,0.0,2,-0.019769700011238456,46.696170806884766,46.696170806884766,0.0,,12.0
14,['1'],1,TMTstop-control_1_4linestimulus11.png,TMTstop-control_1_4greenlinestimulus11.png,TMTstop-control_1_4redlinestimulus11.png,4,89,1.0,46.76824188232422,46.76824188232422,0.0,,1.0,1.0,0.0,3,1,0.0022475000005215406,0.1456247998867184,46.76824188232422,46.76824188232422,0.0,,13.0
15,['2'],2,TMTstop-control_1_4linestimulus12.png,TMTstop-control_1_4greenlinestimulus12.png,TMTstop-control_1_4redlinestimulus12.png,4,90,1.0,47.015995025634766,47.015995025634766,0.0,,1.0,1.0,0.0,2,-0.023140500066801906,47.015995025634766,47.015995025634766,0.0,,14.0
16,['3'],3,TMTstop-control_1_4linestimulus13.png,TMTstop-control_1_4greenlinestimulus13.png,TMTstop-control_1_4redlinestimulus13.png,4,91,1.0,47.092185974121094,47.092185974121094,0.0,,1.0,1.0,0.0,3,-0.008910899981856346,47.092185974121094,47.092185974121094,0.0,,15.0
17,['2'],2,TMTstop-control_1_4linestimulus14.png,TMTstop-control_1_4greenlinestimulus14.png,TMTstop-control_1_4redlinestimulus14.png,4,92,1.0,47.16862106323242,47.16862106323242,0.0,,1.0,1.0,0.0,1,2,0.056555200135335326,0.11086390004493296,47.16862106323242,47.16862106323242,0.0,,16.0
18,['3'],3,TMTstop-control_1_4linestimulus15.png,TMTstop-control_1_4greenlinestimulus15.png,TMTstop-control_1_4redlinestimulus15.png,4,93,1.0,47.377403259277344,47.377403259277344,0.0,,1.0,1.0,0.0,3,0.017383099999278784,47.377403259277344,47.377403259277344,0.0,,17.0
19,['1'],1,TMTstop-control_1_4linestimulus16.png,TMTstop-control_1_4greenlinestimulus16.png,TMTstop-control_1_4redlinestimulus16.png,4,94,1.0,47.474456787109375,47.474456787109375,0.0,,1.0,1.0,0.0,1,0.07644660002551973,47.474456787109375,47.474456787109375,0.0,,18.0
20,['3'],3,TMTstop-control_1_4linestimulus17.png,TMTstop-control_1_4greenlinestimulus17.png,TMTstop-control_1_4redlinestimulus17.png,4,95,1.0,47.6268424987793,47.6268424987793,0.0,,1.0,1.0,0.0,2,3,0.0437606000341475,0.14868159987963736,47.6268424987793,47.6268424987793,0.0,,19.0
21,['2'],2,TMTstop-control_1_4linestimulus18.png,TMTstop-control_1_4greenlinestimulus18.png,TMTstop-control_1_4redlinestimulus18.png,4,96,1.0,47.89869689941406,47.89869689941406,0.0,,1.0,1.0,0.0,1,2,0.020428300136700273,0.11943990015424788,47.89869689941406,47.89869689941406,0.0,,20.0
22,['3'],3,TMTstop-control_1_4linestimulus19.png,TMTstop-control_1_4greenlinestimulus19.png,TMTstop-control_1_4redlinestimulus19.png,4,97,1.0,48.156105041503906,48.156105041503906,0.0,,1.0,1.0,0.0,3,-0.04982670000754297,48.156105041503906,48.156105041503906,0.0,,21.0
23,['2'],2,TMTstop-control_1_4linestimulus20.png,TMTstop-control_1_4greenlinestimulus20.png,TMTstop-control_1_4redlinestimulus20.png,4,98,1.0,48.23881912231445,48.23881912231445,0.0,,1.0,1.0,0.0,1,2,0.022693400038406253,0.06390399998053908,48.23881912231445,48.23881912231445,0.0,,22.0
24,['1'],1,TMTstop-control_1_4linestimulus21.png,TMTstop-control_1_4greenlinestimulus21.png,TMTstop-control_1_4redlinestimulus21.png,4,99,1.0,48.384178161621094,48.384178161621094,0.0,,1.0,1.0,0.0,3,1,0.06322130002081394,0.20414060004986823,48.384178161621094,48.384178161621094,0.0,,23.0
25,['3'],3,TMTstop-control_1_4linestimulus22.png,TMTstop-control_1_4greenlinestimulus22.png,TMTstop-control_1_4redlinestimulus22.png,4,100,1.0,48.68278503417969,48.68278503417969,0.0,,1.0,1.0,0.0,2,3,-0.054294400149956346,0.09875649982132018,48.68278503417969,48.68278503417969,0.0,,24.0
None,None,None,TMTstop-control_1_4linestimulus23.png,TMTstop-control_1_4greenlinestimulus23.png,TMTstop-control_1_4redlinestimulus23.png,4,Feedback_last,1.0,48.869659423828125,48.869659423828125,0.0,,0.0,0.0,0.0,1,2,0.15148060000501573,0.5490369000472128,48.869659423828125,48.869659423828125,0.0,,25.0

extraInfo
participant,
session,001
date,2022_Feb_02_1703
expName,TMTAstop-A
psychopyVersion,2021.2.3
frameRate,145.11702956511184
﻿NumberLetter,corrAns,Correct,StimFile,Correct_StimFile,False_StimFile,Block,TrialNumber_session,n,Stim.started_mean,Stim.started_raw,Stim.started_std,Stim.stopped_raw,key_resp_2.corr_mean,key_resp_2.corr_raw,key_resp_2.corr_std,key_resp_2.keys_raw,key_resp_2.rt_raw,key_resp_2.started_mean,key_resp_2.started_raw,key_resp_2.started_std,key_resp_2.stopped_raw,order
1,['1'],1,TMTstop-control_1_5.png,TMTstop-control_1_5.png,TMTstop-control_1_5.png,5,101,1.0,53.02206039428711,53.02206039428711,0.0,,1.0,1.0,0.0,1,0.6057161001954228,53.02206039428711,53.02206039428711,0.0,,0.0
2,['2'],2,TMTstop-control_1_5.png,TMTstop-control_1_5firstgreen.png,TMTstop-control_1_5firstred.png,5,102,1.0,53.710140228271484,53.710140228271484,0.0,,1.0,1.0,0.0,2,-0.0016181000974029303,53.710140228271484,53.710140228271484,0.0,,1.0
3,['3'],3,TMTstop-control_1_5linestimulus0.png,TMTstop-control_1_5greenlinestimulus0.png,TMTstop-control_1_5redlinestimulus0.png,5,103,1.0,53.77946472167969,53.77946472167969,0.0,,1.0,1.0,0.0,3,0.02544820006005466,53.77946472167969,53.77946472167969,0.0,,2.0
4,['1'],1,TMTstop-control_1_5linestimulus1.png,TMTstop-control_1_5greenlinestimulus1.png,TMTstop-control_1_5redlinestimulus1.png,5,104,1.0,53.87698745727539,53.87698745727539,0.0,,1.0,1.0,0.0,1,0.08515900000929832,53.87698745727539,53.87698745727539,0.0,,3.0
5,['2'],2,TMTstop-control_1_5linestimulus2.png,TMTstop-control_1_5greenlinestimulus2.png,TMTstop-control_1_5redlinestimulus2.png,5,105,1.0,54.043514251708984,54.043514251708984,0.0,,1.0,1.0,0.0,2,-0.05718509992584586,54.043514251708984,54.043514251708984,0.0,,4.0
6,['3'],3,TMTstop-control_1_5linestimulus3.png,TMTstop-control_1_5greenlinestimulus3.png,TMTstop-control_1_5redlinestimulus3.png,5,106,1.0,54.112770080566406,54.112770080566406,0.0,,1.0,1.0,0.0,3,-0.01238149986602366,54.112770080566406,54.112770080566406,0.0,,5.0
7,['2'],2,TMTstop-control_1_5linestimulus4.png,TMTstop-control_1_5greenlinestimulus4.png,TMTstop-control_1_5redlinestimulus4.png,5,107,1.0,54.182647705078125,54.182647705078125,0.0,,1.0,1.0,0.0,1,2,0.05256819981150329,0.10281579988077283,54.182647705078125,54.182647705078125,0.0,,6.0
8,['3'],3,TMTstop-control_1_5linestimulus4.png,TMTstop-control_1_5greenlinestimulus5.png,TMTstop-control_1_5redlinestimulus5.png,5,108,1.0,54.35565185546875,54.35565185546875,0.0,,1.0,1.0,0.0,3,0.028367900056764483,54.35565185546875,54.35565185546875,0.0,,7.0
9,['2'],2,TMTstop-control_1_5linestimulus6.png,TMTstop-control_1_5greenlinestimulus6.png,TMTstop-control_1_5redlinestimulus6.png,5,109,1.0,54.45294952392578,54.45294952392578,0.0,,1.0,1.0,0.0,1,2,0.06551730004139245,0.14409069996327162,54.45294952392578,54.45294952392578,0.0,,8.0
10,['3'],3,TMTstop-control_1_5linestimulus7.png,TMTstop-control_1_5greenlinestimulus7.png,TMTstop-control_1_5redlinestimulus7.png,5,110,1.0,54.68202590942383,54.68202590942383,0.0,,1.0,1.0,0.0,3,0.00137039995752275,54.68202590942383,54.68202590942383,0.0,,9.0
11,['1'],1,TMTstop-control_1_5linestimulus8.png,TMTstop-control_1_5greenlinestimulus8.png,TMTstop-control_1_5redlinestimulus8.png,5,111,1.0,54.7586669921875,54.7586669921875,0.0,,1.0,1.0,0.0,1,2,3,1,0.08410380012355745,0.08927350002340972,0.24009279999881983,0.36420880001969635,54.7586669921875,54.7586669921875,0.0,,10.0
12,['2'],2,TMTstop-control_1_5linestimulus9.png,TMTstop-control_1_5greenlinestimulus9.png,TMTstop-control_1_5redlinestimulus9.png,5,112,1.0,55.223628997802734,55.223628997802734,0.0,,1.0,1.0,0.0,2,-0.027066099923104048,55.223628997802734,55.223628997802734,0.0,,11.0
13,['1'],1,TMTstop-control_1_5linestimulus10.png,TMTstop-control_1_5greenlinestimulus10.png,TMTstop-control_1_5redlinestimulus10.png,5,113,1.0,55.300045013427734,55.300045013427734,0.0,,1.0,1.0,0.0,2,1,2,3,1,0.11331679997965693,0.3844890999607742,0.392219299916178,0.6016623999457806,0.7153677998576313,55.300045013427734,55.300045013427734,0.0,,12.0
14,['2'],2,TMTstop-control_1_5linestimulus11.png,TMTstop-control_1_5greenlinestimulus11.png,TMTstop-control_1_5redlinestimulus11.png,5,114,1.0,56.133262634277344,56.133262634277344,0.0,,1.0,1.0,0.0,2,-0.05806969990953803,56.133262634277344,56.133262634277344,0.0,,13.0
15,['1'],1,TMTstop-control_1_5linestimulus12.png,TMTstop-control_1_5greenlinestimulus12.png,TMTstop-control_1_5redlinestimulus12.png,5,115,1.0,56.20292282104492,56.20292282104492,0.0,,1.0,1.0,0.0,1,0.18708820012398064,56.20292282104492,56.20292282104492,0.0,,14.0
16,['3'],3,TMTstop-control_1_5linestimulus13.png,TMTstop-control_1_5greenlinestimulus13.png,TMTstop-control_1_5redlinestimulus13.png,5,116,1.0,56.469825744628906,56.469825744628906,0.0,,1.0,1.0,0.0,2,3,-0.070896300021559,0.1308887000195682,56.469825744628906,56.469825744628906,0.0,,15.0
17,['2'],2,TMTstop-control_1_5linestimulus14.png,TMTstop-control_1_5greenlinestimulus14.png,TMTstop-control_1_5redlinestimulus14.png,5,117,1.0,56.7103271484375,56.7103271484375,0.0,,1.0,1.0,0.0,1,2,0.026559700025245547,0.0567977000027895,56.7103271484375,56.7103271484375,0.0,,16.0
18,['1'],1,TMTstop-control_1_5linestimulus15.png,TMTstop-control_1_5greenlinestimulus15.png,TMTstop-control_1_5redlinestimulus15.png,5,118,1.0,56.85243225097656,56.85243225097656,0.0,,1.0,1.0,0.0,3,1,2,3,1,0.08164340001530945,0.21823029988445342,0.2228888999670744,0.3754229999613017,0.5474282000213861,56.85243225097656,56.85243225097656,0.0,,17.0
19,['3'],3,TMTstop-control_1_5linestimulus16.png,TMTstop-control_1_5greenlinestimulus16.png,TMTstop-control_1_5redlinestimulus16.png,5,119,1.0,57.50823974609375,57.50823974609375,0.0,,1.0,1.0,0.0,2,1,2,3,0.08247939986176789,0.26309299981221557,0.34558919980190694,0.4613218999002129,57.50823974609375,57.50823974609375,0.0,,18.0
20,['2'],2,TMTstop-control_1_5linestimulus17.png,TMTstop-control_1_5greenlinestimulus17.png,TMTstop-control_1_5redlinestimulus17.png,5,120,1.0,58.043331146240234,58.043331146240234,0.0,,1.0,1.0,0.0,1,2,0.0684507000260055,0.13733129994943738,58.043331146240234,58.043331146240234,0.0,,19.0
21,['3'],3,TMTstop-control_1_5linestimulus18.png,TMTstop-control_1_5greenlinestimulus18.png,TMTstop-control_1_5redlinestimulus18.png,5,121,1.0,58.266151428222656,58.266151428222656,0.0,,1.0,1.0,0.0,3,0.02423139987513423,58.266151428222656,58.266151428222656,0.0,,20.0
22,['2'],2,TMTstop-control_1_5linestimulus19.png,TMTstop-control_1_5greenlinestimulus19.png,TMTstop-control_1_5redlinestimulus19.png,5,122,1.0,58.380584716796875,58.380584716796875,0.0,,1.0,1.0,0.0,1,2,0.0425694000441581,0.06658109999261796,58.380584716796875,58.380584716796875,0.0,,21.0
23,['3'],3,TMTstop-control_1_5linestimulus20.png,TMTstop-control_1_5greenlinestimulus20.png,TMTstop-control_1_5redlinestimulus20.png,5,123,1.0,58.565635681152344,58.565635681152344,0.0,,1.0,1.0,0.0,3,0.014699900057166815,58.565635681152344,58.565635681152344,0.0,,22.0
24,['2'],2,TMTstop-control_1_5linestimulus21.png,TMTstop-control_1_5greenlinestimulus21.png,TMTstop-control_1_5redlinestimulus21.png,5,124,1.0,58.67655563354492,58.67655563354492,0.0,,1.0,1.0,0.0,1,2,0.045481800101697445,0.12270610011182725,58.67655563354492,58.67655563354492,0.0,,23.0
25,['3'],3,TMTstop-control_1_5linestimulus22.png,TMTstop-control_1_5greenlinestimulus22.png,TMTstop-control_1_5redlinestimulus22.png,5,125,1.0,58.89734649658203,58.89734649658203,0.0,,1.0,1.0,0.0,3,0.00899340002797544,58.89734649658203,58.89734649658203,0.0,,24.0
None,None,None,TMTstop-control_1_5linestimulus23.png,TMTstop-control_1_5greenlinestimulus23.png,TMTstop-control_1_5redlinestimulus23.png,5,Feedback_last,1.0,58.98085021972656,58.98085021972656,0.0,,0.0,0.0,0.0,1,2,3,0.06998919998295605,0.115876599913463,0.24695609998889267,58.98085021972656,58.98085021972656,0.0,,25.0

extraInfo
participant,
session,001
date,2022_Feb_02_1703
expName,TMTAstop-A
psychopyVersion,2021.2.3
frameRate,145.11702956511184
﻿NumberLetter,corrAns,Correct,StimFile,Correct_StimFile,False_StimFile,Block,TrialNumber_session,n,Stim.started_mean,Stim.started_raw,Stim.started_std,Stim.stopped_raw,key_resp_2.corr_mean,key_resp_2.corr_raw,key_resp_2.corr_std,key_resp_2.keys_raw,key_resp_2.rt_raw,key_resp_2.started_mean,key_resp_2.started_raw,key_resp_2.started_std,key_resp_2.stopped_raw,order
1,['1'],1,TMTstop-control_1_6.png,TMTstop-control_1_6.png,TMTstop-control_1_6.png,6,126,1.0,63.091529846191406,63.091529846191406,0.0,,1.0,1.0,0.0,1,0.3519597998820245,63.091529846191406,63.091529846191406,0.0,,0.0
2,['3'],3,TMTstop-control_1_6.png,TMTstop-control_1_6firstgreen.png,TMTstop-control_1_6firstred.png,6,127,1.0,63.51519012451172,63.51519012451172,0.0,,1.0,1.0,0.0,2,3,0.023371400078758597,0.10519449994899333,63.51519012451172,63.51519012451172,0.0,,1.0
3,['2'],2,TMTstop-control_1_6linestimulus0.png,TMTstop-control_1_6greenlinestimulus0.png,TMTstop-control_1_6redlinestimulus0.png,6,128,1.0,63.69576644897461,63.69576644897461,0.0,,1.0,1.0,0.0,1,2,0.07428159983828664,0.12657870003022254,63.69576644897461,63.69576644897461,0.0,,2.0
4,['1'],1,TMTstop-control_1_6linestimulus1.png,TMTstop-control_1_6greenlinestimulus1.png,TMTstop-control_1_6redlinestimulus1.png,6,129,1.0,63.924713134765625,63.924713134765625,0.0,,1.0,1.0,0.0,3,1,-0.005332800094038248,0.11749229999259114,63.924713134765625,63.924713134765625,0.0,,3.0
5,['3'],3,TMTstop-control_1_6linestimulus2.png,TMTstop-control_1_6greenlinestimulus2.png,TMTstop-control_1_6redlinestimulus2.png,6,130,1.0,64.12126159667969,64.12126159667969,0.0,,1.0,1.0,0.0,2,3,-0.01744129997678101,0.0739139998331666,64.12126159667969,64.12126159667969,0.0,,4.0
6,['2'],2,TMTstop-control_1_6linestimulus3.png,TMTstop-control_1_6greenlinestimulus3.png,TMTstop-control_1_6redlinestimulus3.png,6,131,1.0,64.27318572998047,64.27318572998047,0.0,,1.0,1.0,0.0,1,2,0.06250649993307889,0.10881310002878308,64.27318572998047,64.27318572998047,0.0,,5.0
7,['1'],1,TMTstop-control_1_6linestimulus4.png,TMTstop-control_1_6greenlinestimulus4.png,TMTstop-control_1_6redlinestimulus4.png,6,132,1.0,64.45252990722656,64.45252990722656,0.0,,1.0,1.0,0.0,3,1,2,3,1,0.12440410000272095,0.21922180010005832,0.2230732999742031,0.3759991000406444,0.5001825999934226,64.45252990722656,64.45252990722656,0.0,,6.0
8,['2'],2,TMTstop-control_1_6linestimulus4.png,TMTstop-control_1_6greenlinestimulus5.png,TMTstop-control_1_6redlinestimulus5.png,6,133,1.0,65.0247802734375,65.0247802734375,0.0,,1.0,1.0,0.0,2,-0.03272420004941523,65.0247802734375,65.0247802734375,0.0,,7.0
9,['3'],3,TMTstop-control_1_6linestimulus6.png,TMTstop-control_1_6greenlinestimulus6.png,TMTstop-control_1_6redlinestimulus6.png,6,134,1.0,65.10049438476562,65.10049438476562,0.0,,1.0,1.0,0.0,2,1,3,0.13871369999833405,0.14276920002885163,0.3631581999361515,65.10049438476562,65.10049438476562,0.0,,8.0
10,['1'],1,TMTstop-control_1_6linestimulus7.png,TMTstop-control_1_6greenlinestimulus7.png,TMTstop-control_1_6redlinestimulus7.png,6,135,1.0,65.54335021972656,65.54335021972656,0.0,,1.0,1.0,0.0,1,2,3,1,0.08669469994492829,0.0905144999269396,0.24609889998100698,0.39853709982708097,65.54335021972656,65.54335021972656,0.0,,9.0
11,['3'],3,TMTstop-control_1_6linestimulus8.png,TMTstop-control_1_6greenlinestimulus8.png,TMTstop-control_1_6redlinestimulus8.png,6,136,1.0,66.0083999633789,66.0083999633789,0.0,,1.0,1.0,0.0,2,3,0.03394820005632937,0.11643060017377138,66.0083999633789,66.0083999633789,0.0,,10.0
12,['1'],1,TMTstop-control_1_6linestimulus9.png,TMTstop-control_1_6greenlinestimulus9.png,TMTstop-control_1_6redlinestimulus9.png,6,137,1.0,66.19624328613281,66.19624328613281,0.0,,1.0,1.0,0.0,1,0.11790749989449978,66.19624328613281,66.19624328613281,0.0,,11.0
13,['3'],3,TMTstop-control_1_6linestimulus10.png,TMTstop-control_1_6greenlinestimulus10.png,TMTstop-control_1_6redlinestimulus10.png,6,138,1.0,66.38340759277344,66.38340759277344,0.0,,1.0,1.0,0.0,2,3,-0.044286300195381045,0.10386069980449975,66.38340759277344,66.38340759277344,0.0,,12.0
14,['1'],1,TMTstop-control_1_6linestimulus11.png,TMTstop-control_1_6greenlinestimulus11.png,TMTstop-control_1_6redlinestimulus11.png,6,139,1.0,66.5779037475586,66.5779037475586,0.0,,1.0,1.0,0.0,1,0.06121199997141957,66.5779037475586,66.5779037475586,0.0,,13.0
15,['3'],3,TMTstop-control_1_6linestimulus12.png,TMTstop-control_1_6greenlinestimulus12.png,TMTstop-control_1_6redlinestimulus12.png,6,140,1.0,66.71698760986328,66.71698760986328,0.0,,1.0,1.0,0.0,2,3,-0.03798910020850599,0.10467509995214641,66.71698760986328,66.71698760986328,0.0,,14.0
16,['1'],1,TMTstop-control_1_6linestimulus13.png,TMTstop-control_1_6greenlinestimulus13.png,TMTstop-control_1_6redlinestimulus13.png,6,141,1.0,66.91093444824219,66.91093444824219,0.0,,1.0,1.0,0.0,1,0.056471000192686915,66.91093444824219,66.91093444824219,0.0,,15.0
17,['2'],2,TMTstop-control_1_6linestimulus14.png,TMTstop-control_1_6greenlinestimulus14.png,TMTstop-control_1_6redlinestimulus14.png,6,142,1.0,67.04285430908203,67.04285430908203,0.0,,1.0,1.0,0.0,2,-0.012836500070989132,67.04285430908203,67.04285430908203,0.0,,16.0
18,['1'],1,TMTstop-control_1_6linestimulus15.png,TMTstop-control_1_6greenlinestimulus15.png,TMTstop-control_1_6redlinestimulus15.png,6,143,1.0,67.11945343017578,67.11945343017578,0.0,,1.0,1.0,0.0,3,1,0.028298899997025728,0.1791850000154227,67.11945343017578,67.11945343017578,0.0,,17.0
19,['3'],3,TMTstop-control_1_6linestimulus16.png,TMTstop-control_1_6greenlinestimulus16.png,TMTstop-control_1_6redlinestimulus16.png,6,144,1.0,67.39793395996094,67.39793395996094,0.0,,1.0,1.0,0.0,2,3,0.0015477000270038843,0.061715800082311034,67.39793395996094,67.39793395996094,0.0,,18.0
20,['1'],1,TMTstop-control_1_6linestimulus17.png,TMTstop-control_1_6greenlinestimulus17.png,TMTstop-control_1_6redlinestimulus17.png,6,145,1.0,67.55692291259766,67.55692291259766,0.0,,1.0,1.0,0.0,1,0.07824559998698533,67.55692291259766,67.55692291259766,0.0,,19.0
21,['3'],3,TMTstop-control_1_6linestimulus18.png,TMTstop-control_1_6greenlinestimulus18.png,TMTstop-control_1_6redlinestimulus18.png,6,146,1.0,67.7171401977539,67.7171401977539,0.0,,1.0,1.0,0.0,2,3,0.013233899837359786,0.13087219977751374,67.7171401977539,67.7171401977539,0.0,,20.0
22,['1'],1,TMTstop-control_1_6linestimulus19.png,TMTstop-control_1_6greenlinestimulus19.png,TMTstop-control_1_6redlinestimulus19.png,6,147,1.0,67.93206787109375,67.93206787109375,0.0,,1.0,1.0,0.0,1,0.03221570001915097,67.93206787109375,67.93206787109375,0.0,,21.0
23,['3'],3,TMTstop-control_1_6linestimulus20.png,TMTstop-control_1_6greenlinestimulus20.png,TMTstop-control_1_6redlinestimulus20.png,6,148,1.0,68.03620147705078,68.03620147705078,0.0,,1.0,1.0,0.0,2,3,0.004476299975067377,0.114452000008896,68.03620147705078,68.03620147705078,0.0,,22.0
24,['2'],2,TMTstop-control_1_6linestimulus21.png,TMTstop-control_1_6greenlinestimulus21.png,TMTstop-control_1_6redlinestimulus21.png,6,149,1.0,68.25116729736328,68.25116729736328,0.0,,1.0,1.0,0.0,1,2,0.04214009991846979,0.131521699950099,68.25116729736328,68.25116729736328,0.0,,23.0
25,['1'],1,TMTstop-control_1_6linestimulus22.png,TMTstop-control_1_6greenlinestimulus22.png,TMTstop-control_1_6redlinestimulus22.png,6,150,1.0,68.45335388183594,68.45335388183594,0.0,,1.0,1.0,0.0,3,1,0.02758429991081357,0.17043149983510375,68.45335388183594,68.45335388183594,0.0,,24.0
None,None,None,TMTstop-control_1_6linestimulus23.png,TMTstop-control_1_6greenlinestimulus23.png,TMTstop-control_1_6redlinestimulus23.png,6,Feedback_last,1.0,68.7234878540039,68.7234878540039,0.0,,0.0,0.0,0.0,2,3,-0.04982749978080392,0.17132580000907183,68.7234878540039,68.7234878540039,0.0,,25.0

extraInfo
participant,
session,001
date,2022_Feb_02_1703
expName,TMTAstop-A
psychopyVersion,2021.2.3
frameRate,145.11702956511184
﻿NumberLetter,corrAns,Correct,StimFile,Correct_StimFile,False_StimFile,Block,TrialNumber_session,n,Stim.started_mean,Stim.started_raw,Stim.started_std,Stim.stopped_raw,key_resp_2.corr_mean,key_resp_2.corr_raw,key_resp_2.corr_std,key_resp_2.keys_raw,key_resp_2.rt_raw,key_resp_2.started_mean,key_resp_2.started_raw,key_resp_2.started_std,key_resp_2.stopped_raw,order
1,['1'],1,TMTstop-control_1_7.png,TMTstop-control_1_7.png,TMTstop-control_1_7.png,7,151,1.0,72.84070587158203,72.84070587158203,0.0,,1.0,1.0,0.0,1,0.468168499879539,72.84070587158203,72.84070587158203,0.0,,0.0
2,['2'],2,TMTstop-control_1_7.png,TMTstop-control_1_7firstgreen.png,TMTstop-control_1_7firstred.png,7,152,1.0,73.38359069824219,73.38359069824219,0.0,,1.0,1.0,0.0,2,0.04604050004854798,73.38359069824219,73.38359069824219,0.0,,1.0
3,['3'],3,TMTstop-control_1_7linestimulus0.png,TMTstop-control_1_7greenlinestimulus0.png,TMTstop-control_1_7redlinestimulus0.png,7,153,1.0,73.50381469726562,73.50381469726562,0.0,,1.0,1.0,0.0,3,-0.0157105999533087,73.50381469726562,73.50381469726562,0.0,,2.0
4,['2'],2,TMTstop-control_1_7linestimulus1.png,TMTstop-control_1_7greenlinestimulus1.png,TMTstop-control_1_7redlinestimulus1.png,7,154,1.0,73.57044982910156,73.57044982910156,0.0,,1.0,1.0,0.0,1,2,0.07008059998042881,0.11414909991435707,73.57044982910156,73.57044982910156,0.0,,3.0
5,['3'],3,TMTstop-control_1_7linestimulus2.png,TMTstop-control_1_7greenlinestimulus2.png,TMTstop-control_1_7redlinestimulus2.png,7,155,1.0,73.79393768310547,73.79393768310547,0.0,,1.0,1.0,0.0,3,0.007349400082603097,73.79393768310547,73.79393768310547,0.0,,4.0
6,['2'],2,TMTstop-control_1_7linestimulus3.png,TMTstop-control_1_7greenlinestimulus3.png,TMTstop-control_1_7redlinestimulus3.png,7,156,1.0,73.8759536743164,73.8759536743164,0.0,,1.0,1.0,0.0,1,2,0.05875619989819825,0.11120899999514222,73.8759536743164,73.8759536743164,0.0,,5.0
7,['1'],1,TMTstop-control_1_7linestimulus4.png,TMTstop-control_1_7greenlinestimulus4.png,TMTstop-control_1_7redlinestimulus4.png,7,157,1.0,74.05691528320312,74.05691528320312,0.0,,1.0,1.0,0.0,3,1,0.04182069981470704,0.1970976998563856,74.05691528320312,74.05691528320312,0.0,,6.0
8,['3'],3,TMTstop-control_1_7linestimulus4.png,TMTstop-control_1_7greenlinestimulus5.png,TMTstop-control_1_7redlinestimulus5.png,7,158,1.0,74.34329986572266,74.34329986572266,0.0,,1.0,1.0,0.0,2,3,-0.05354780005291104,0.09957679989747703,74.34329986572266,74.34329986572266,0.0,,7.0
9,['2'],2,TMTstop-control_1_7linestimulus6.png,TMTstop-control_1_7greenlinestimulus6.png,TMTstop-control_1_7redlinestimulus6.png,7,159,1.0,74.54259490966797,74.54259490966797,0.0,,1.0,1.0,0.0,1,2,0.038265899987891316,0.07340450002811849,74.54259490966797,74.54259490966797,0.0,,8.0
10,['3'],3,TMTstop-control_1_7linestimulus7.png,TMTstop-control_1_7greenlinestimulus7.png,TMTstop-control_1_7redlinestimulus7.png,7,160,1.0,74.7029037475586,74.7029037475586,0.0,,1.0,1.0,0.0,3,0.051506000105291605,74.7029037475586,74.7029037475586,0.0,,9.0
11,['2'],2,TMTstop-control_1_7linestimulus8.png,TMTstop-control_1_7greenlinestimulus8.png,TMTstop-control_1_7redlinestimulus8.png,7,161,1.0,74.83445739746094,74.83445739746094,0.0,,1.0,1.0,0.0,1,2,0.05873730010353029,0.0937231001444161,74.83445739746094,74.83445739746094,0.0,,10.0
12,['1'],1,TMTstop-control_1_7linestimulus9.png,TMTstop-control_1_7greenlinestimulus9.png,TMTstop-control_1_7redlinestimulus9.png,7,162,1.0,75.014892578125,75.014892578125,0.0,,1.0,1.0,0.0,3,1,0.07022659992799163,0.1983793000690639,75.014892578125,75.014892578125,0.0,,11.0
13,['2'],2,TMTstop-control_1_7linestimulus10.png,TMTstop-control_1_7greenlinestimulus10.png,TMTstop-control_1_7redlinestimulus10.png,7,163,1.0,75.29288482666016,75.29288482666016,0.0,,1.0,1.0,0.0,2,-0.04349300009198487,75.29288482666016,75.29288482666016,0.0,,12.0
14,['3'],3,TMTstop-control_1_7linestimulus11.png,TMTstop-control_1_7greenlinestimulus11.png,TMTstop-control_1_7redlinestimulus11.png,7,164,1.0,75.36268615722656,75.36268615722656,0.0,,1.0,1.0,0.0,3,0.02888830006122589,75.36268615722656,75.36268615722656,0.0,,13.0
15,['2'],2,TMTstop-control_1_7linestimulus12.png,TMTstop-control_1_7greenlinestimulus12.png,TMTstop-control_1_7redlinestimulus12.png,7,165,1.0,75.46634674072266,75.46634674072266,0.0,,1.0,1.0,0.0,1,2,0.09485320001840591,0.13117439998313785,75.46634674072266,75.46634674072266,0.0,,14.0
16,['3'],3,TMTstop-control_1_7linestimulus13.png,TMTstop-control_1_7greenlinestimulus13.png,TMTstop-control_1_7redlinestimulus13.png,7,166,1.0,75.68174743652344,75.68174743652344,0.0,,1.0,1.0,0.0,3,0.06431700009852648,75.68174743652344,75.68174743652344,0.0,,15.0
17,['1'],1,TMTstop-control_1_7linestimulus14.png,TMTstop-control_1_7greenlinestimulus14.png,TMTstop-control_1_7redlinestimulus14.png,7,167,1.0,75.82034301757812,75.82034301757812,0.0,,1.0,1.0,0.0,1,0.06426519993692636,75.82034301757812,75.82034301757812,0.0,,16.0
18,['3'],3,TMTstop-control_1_7linestimulus15.png,TMTstop-control_1_7greenlinestimulus15.png,TMTstop-control_1_7redlinestimulus15.png,7,168,1.0,75.95960998535156,75.95960998535156,0.0,,1.0,1.0,0.0,2,3,-0.017439000075682998,0.09397759987041354,75.95960998535156,75.95960998535156,0.0,,17.0
19,['2'],2,TMTstop-control_1_7linestimulus16.png,TMTstop-control_1_7greenlinestimulus16.png,TMTstop-control_1_7redlinestimulus16.png,7,169,1.0,76.15399932861328,76.15399932861328,0.0,,1.0,1.0,0.0,1,2,0.03693139995448291,0.09470000001601875,76.15399932861328,76.15399932861328,0.0,,18.0
20,['3'],3,TMTstop-control_1_7linestimulus17.png,TMTstop-control_1_7greenlinestimulus17.png,TMTstop-control_1_7redlinestimulus17.png,7,170,1.0,76.35539245605469,76.35539245605469,0.0,,1.0,1.0,0.0,3,0.005119799869135022,76.35539245605469,76.35539245605469,0.0,,19.0
21,['1'],1,TMTstop-control_1_7linestimulus18.png,TMTstop-control_1_7greenlinestimulus18.png,TMTstop-control_1_7redlinestimulus18.png,7,171,1.0,76.43865203857422,76.43865203857422,0.0,,1.0,1.0,0.0,1,0.06459120009094477,76.43865203857422,76.43865203857422,0.0,,20.0
22,['3'],3,TMTstop-control_1_7linestimulus19.png,TMTstop-control_1_7greenlinestimulus19.png,TMTstop-control_1_7redlinestimulus19.png,7,172,1.0,76.57780456542969,76.57780456542969,0.0,,1.0,1.0,0.0,2,3,-0.010160599835216999,0.10704760020598769,76.57780456542969,76.57780456542969,0.0,,21.0
23,['2'],2,TMTstop-control_1_7linestimulus20.png,TMTstop-control_1_7greenlinestimulus20.png,TMTstop-control_1_7redlinestimulus20.png,7,173,1.0,76.77172088623047,76.77172088623047,0.0,,1.0,1.0,0.0,1,2,0.04931799997575581,0.12213769997470081,76.77172088623047,76.77172088623047,0.0,,22.0
24,['1'],1,TMTstop-control_1_7linestimulus21.png,TMTstop-control_1_7greenlinestimulus21.png,TMTstop-control_1_7redlinestimulus21.png,7,174,1.0,76.97981262207031,76.97981262207031,0.0,,1.0,1.0,0.0,3,1,0.04891519993543625,0.19595479988493025,76.97981262207031,76.97981262207031,0.0,,23.0
25,['2'],2,TMTstop-control_1_7linestimulus22.png,TMTstop-control_1_7greenlinestimulus22.png,TMTstop-control_1_7redlinestimulus22.png,7,175,1.0,77.26568603515625,77.26568603515625,0.0,,1.0,1.0,0.0,2,-0.05058639985509217,77.26568603515625,77.26568603515625,0.0,,24.0
None,None,None,TMTstop-control_1_7linestimulus23.png,TMTstop-control_1_7greenlinestimulus23.png,TMTstop-control_1_7redlinestimulus23.png,7,Feedback_last,1.0,77.3420181274414,77.3420181274414,0.0,,0.0,0.0,0.0,3,1,2,3,0.013877800200134516,0.16506530018523335,0.2099300001282245,0.3628963001538068,77.3420181274414,77.3420181274414,0.0,,25.0

extraInfo
participant,
session,001
date,2022_Feb_02_1703
expName,TMTAstop-A
psychopyVersion,2021.2.3
frameRate,145.11702956511184
﻿NumberLetter,corrAns,Correct,StimFile,Correct_StimFile,False_StimFile,Block,TrialNumber_session,n,Stim.started_mean,Stim.started_raw,Stim.started_std,Stim.stopped_raw,key_resp_2.corr_mean,key_resp_2.corr_raw,key_resp_2.corr_std,key_resp_2.keys_raw,key_resp_2.rt_raw,key_resp_2.started_mean,key_resp_2.started_raw,key_resp_2.started_std,key_resp_2.stopped_raw,order
1,['3'],3,TMTstop-control_1_8.png,TMTstop-control_1_8.png,TMTstop-control_1_8.png,8,176,1.0,81.48646545410156,81.48646545410156,0.0,,1.0,1.0,0.0,1,2,3,0.44459540001116693,0.5213604001328349,0.6042852001264691,81.48646545410156,81.48646545410156,0.0,,0.0
2,['1'],1,TMTstop-control_1_8.png,TMTstop-control_1_8firstgreen.png,TMTstop-control_1_8firstred.png,8,177,1.0,82.17601013183594,82.17601013183594,0.0,,1.0,1.0,0.0,1,0.0800988997798413,82.17601013183594,82.17601013183594,0.0,,1.0
3,['3'],3,TMTstop-control_1_8linestimulus0.png,TMTstop-control_1_8greenlinestimulus0.png,TMTstop-control_1_8redlinestimulus0.png,8,178,1.0,82.33416748046875,82.33416748046875,0.0,,1.0,1.0,0.0,2,3,-0.0290975000243634,0.07905609998852015,82.33416748046875,82.33416748046875,0.0,,2.0
4,['1'],1,TMTstop-control_1_8linestimulus1.png,TMTstop-control_1_8greenlinestimulus1.png,TMTstop-control_1_8redlinestimulus1.png,8,179,1.0,82.49398803710938,82.49398803710938,0.0,,1.0,1.0,0.0,1,0.05646410002373159,82.49398803710938,82.49398803710938,0.0,,3.0
5,['3'],3,TMTstop-control_1_8linestimulus2.png,TMTstop-control_1_8greenlinestimulus2.png,TMTstop-control_1_8redlinestimulus2.png,8,180,1.0,82.62586212158203,82.62586212158203,0.0,,1.0,1.0,0.0,2,3,-0.04533279989846051,0.08446049992926419,82.62586212158203,82.62586212158203,0.0,,4.0
6,['2'],2,TMTstop-control_1_8linestimulus3.png,TMTstop-control_1_8greenlinestimulus3.png,TMTstop-control_1_8redlinestimulus3.png,8,181,1.0,82.77877807617188,82.77877807617188,0.0,,1.0,1.0,0.0,1,2,0.07407320011407137,0.10425760014913976,82.77877807617188,82.77877807617188,0.0,,5.0
7,['3'],3,TMTstop-control_1_8linestimulus4.png,TMTstop-control_1_8greenlinestimulus4.png,TMTstop-control_1_8redlinestimulus4.png,8,182,1.0,82.97361755371094,82.97361755371094,0.0,,1.0,1.0,0.0,3,0.04004990006797016,82.97361755371094,82.97361755371094,0.0,,6.0
8,['2'],2,TMTstop-control_1_8linestimulus4.png,TMTstop-control_1_8greenlinestimulus5.png,TMTstop-control_1_8redlinestimulus5.png,8,183,1.0,83.08418273925781,83.08418273925781,0.0,,1.0,1.0,0.0,1,2,0.09048749995417893,0.11781129986047745,83.08418273925781,83.08418273925781,0.0,,7.0
9,['3'],3,TMTstop-control_1_8linestimulus6.png,TMTstop-control_1_8greenlinestimulus6.png,TMTstop-control_1_8redlinestimulus6.png,8,184,1.0,83.28936767578125,83.28936767578125,0.0,,1.0,1.0,0.0,3,0.04610930010676384,83.28936767578125,83.28936767578125,0.0,,8.0
10,['1'],1,TMTstop-control_1_8linestimulus7.png,TMTstop-control_1_8greenlinestimulus7.png,TMTstop-control_1_8redlinestimulus7.png,8,185,1.0,83.41049194335938,83.41049194335938,0.0,,1.0,1.0,0.0,1,0.07850080006755888,83.41049194335938,83.41049194335938,0.0,,9.0
11,['2'],2,TMTstop-control_1_8linestimulus8.png,TMTstop-control_1_8greenlinestimulus8.png,TMTstop-control_1_8redlinestimulus8.png,8,186,1.0,83.56336975097656,83.56336975097656,0.0,,1.0,1.0,0.0,2,-0.02725300006568432,83.56336975097656,83.56336975097656,0.0,,10.0
12,['3'],3,TMTstop-control_1_8linestimulus9.png,TMTstop-control_1_8greenlinestimulus9.png,TMTstop-control_1_8redlinestimulus9.png,8,187,1.0,83.63308715820312,83.63308715820312,0.0,,1.0,1.0,0.0,3,0.023164500016719103,83.63308715820312,83.63308715820312,0.0,,11.0
13,['2'],2,TMTstop-control_1_8linestimulus10.png,TMTstop-control_1_8greenlinestimulus10.png,TMTstop-control_1_8redlinestimulus10.png,8,188,1.0,83.7370376586914,83.7370376586914,0.0,,1.0,1.0,0.0,1,2,0.0699344000313431,0.1147225999739021,83.7370376586914,83.7370376586914,0.0,,12.0
14,['3'],3,TMTstop-control_1_8linestimulus11.png,TMTstop-control_1_8greenlinestimulus11.png,TMTstop-control_1_8redlinestimulus11.png,8,189,1.0,83.92505645751953,83.92505645751953,0.0,,1.0,1.0,0.0,3,0.05631459993310273,83.92505645751953,83.92505645751953,0.0,,13.0
15,['2'],2,TMTstop-control_1_8linestimulus12.png,TMTstop-control_1_8greenlinestimulus12.png,TMTstop-control_1_8redlinestimulus12.png,8,190,1.0,84.05642700195312,84.05642700195312,0.0,,1.0,1.0,0.0,1,2,0.07527909986674786,0.11204819986596704,84.05642700195312,84.05642700195312,0.0,,14.0
16,['1'],1,TMTstop-control_1_8linestimulus13.png,TMTstop-control_1_8greenlinestimulus13.png,TMTstop-control_1_8redlinestimulus13.png,8,191,1.0,84.25203704833984,84.25203704833984,0.0,,1.0,1.0,0.0,3,1,0.04528669989667833,0.20570189994759858,84.25203704833984,84.25203704833984,0.0,,15.0
17,['2'],2,TMTstop-control_1_8linestimulus14.png,TMTstop-control_1_8greenlinestimulus14.png,TMTstop-control_1_8redlinestimulus14.png,8,192,1.0,84.53562927246094,84.53562927246094,0.0,,1.0,1.0,0.0,2,-0.02196500007994473,84.53562927246094,84.53562927246094,0.0,,16.0
18,['1'],1,TMTstop-control_1_8linestimulus15.png,TMTstop-control_1_8greenlinestimulus15.png,TMTstop-control_1_8redlinestimulus15.png,8,193,1.0,84.61165618896484,84.61165618896484,0.0,,1.0,1.0,0.0,3,1,0.03789570019580424,0.1932665000203997,84.61165618896484,84.61165618896484,0.0,,17.0
19,['2'],2,TMTstop-control_1_8linestimulus16.png,TMTstop-control_1_8greenlinestimulus16.png,TMTstop-control_1_8redlinestimulus16.png,8,194,1.0,84.9035873413086,84.9035873413086,0.0,,1.0,1.0,0.0,2,-0.0389334000647068,84.9035873413086,84.9035873413086,0.0,,18.0
20,['3'],3,TMTstop-control_1_8linestimulus17.png,TMTstop-control_1_8greenlinestimulus17.png,TMTstop-control_1_8redlinestimulus17.png,8,195,1.0,84.97396850585938,84.97396850585938,0.0,,1.0,1.0,0.0,3,0.011544900014996529,84.97396850585938,84.97396850585938,0.0,,19.0
21,['2'],2,TMTstop-control_1_8linestimulus18.png,TMTstop-control_1_8greenlinestimulus18.png,TMTstop-control_1_8redlinestimulus18.png,8,196,1.0,85.0565414428711,85.0565414428711,0.0,,1.0,1.0,0.0,1,2,0.07925259997136891,0.11405159998685122,85.0565414428711,85.0565414428711,0.0,,20.0
22,['1'],1,TMTstop-control_1_8linestimulus19.png,TMTstop-control_1_8greenlinestimulus19.png,TMTstop-control_1_8redlinestimulus19.png,8,197,1.0,85.25126647949219,85.25126647949219,0.0,,1.0,1.0,0.0,3,1,0.07445869990624487,0.19596939999610186,85.25126647949219,85.25126647949219,0.0,,21.0
23,['2'],2,TMTstop-control_1_8linestimulus20.png,TMTstop-control_1_8greenlinestimulus20.png,TMTstop-control_1_8redlinestimulus20.png,8,198,1.0,85.52873992919922,85.52873992919922,0.0,,1.0,1.0,0.0,2,-0.003136900020763278,85.52873992919922,85.52873992919922,0.0,,22.0
24,['1'],1,TMTstop-control_1_8linestimulus21.png,TMTstop-control_1_8greenlinestimulus21.png,TMTstop-control_1_8redlinestimulus21.png,8,199,1.0,85.5979995727539,85.5979995727539,0.0,,1.0,1.0,0.0,3,1,0.043772999895736575,0.19051859993487597,85.5979995727539,85.5979995727539,0.0,,23.0
25,['3'],3,TMTstop-control_1_8linestimulus22.png,TMTstop-control_1_8greenlinestimulus22.png,TMTstop-control_1_8redlinestimulus22.png,8,200,1.0,85.88699340820312,85.88699340820312,0.0,,1.0,1.0,0.0,2,3,-0.025548300007358193,0.08412140002474189,85.88699340820312,85.88699340820312,0.0,,24.0
None,None,None,TMTstop-control_1_8linestimulus23.png,TMTstop-control_1_8greenlinestimulus23.png,TMTstop-control_1_8redlinestimulus23.png,8,Feedback_last,1.0,86.07803344726562,86.07803344726562,0.0,,0.0,0.0,0.0,1,0.16829679999500513,86.07803344726562,86.07803344726562,0.0,,25.0

extraInfo
participant,
session,001
date,2022_Feb_02_1703
expName,TMTAstop-A
psychopyVersion,2021.2.3
frameRate,145.11702956511184
