NumberLetter,corrAns,Correct,StimFile,Correct_StimFile,False_StimFile,Version,Paper,TrialNumber_Version,Round,Block,n,Stim.started_mean,Stim.started_raw,Stim.started_std,Stim.stopped_raw,key_resp_2.corr_mean,key_resp_2.corr_raw,key_resp_2.corr_std,key_resp_2.keys_raw,key_resp_2.rt_raw,key_resp_2.started_mean,key_resp_2.started_raw,key_resp_2.started_std,key_resp_2.stopped_raw,order
1,['1'],1,TMTstop-A_1_1.png,TMTstop-A_1_1.png,TMTstop-A_1_1.png,TMT_A,1,1,1,2,1.0,87.4593505859375,87.4593505859375,0.0,,1.0,1.0,0.0,1,2.5774488000024576,87.4593505859375,87.4593505859375,0.0,,0.0
2,['3'],3,TMTstop-A_1_1.png,TMTstop-A_1_1firstgreen.png,TMTstop-A_1_1firstred.png,TMT_A,1,2,None,2,1.0,90.07495880126953,90.07495880126953,0.0,,1.0,1.0,0.0,2,1,3,3.077851300004113,5.288642100000288,6.452187100003357,90.07495880126953,90.07495880126953,0.0,,1.0
3,['1'],1,TMTstop-A_1_1linestimulus0.png,TMTstop-A_1_1greenlinestimulus0.png,TMTstop-A_1_1redlinestimulus0.png,TMT_A,1,3,None,2,1.0,96.5761947631836,96.5761947631836,0.0,,1.0,1.0,0.0,2,1,1.1318138999995426,2.140393400004541,96.5761947631836,96.5761947631836,0.0,,2.0
4,['3'],3,TMTstop-A_1_1linestimulus1.png,TMTstop-A_1_1greenlinestimulus1.png,TMTstop-A_1_1redlinestimulus1.png,TMT_A,1,4,None,2,1.0,98.7695083618164,98.7695083618164,0.0,,1.0,1.0,0.0,3,2.3021556999956374,98.7695083618164,98.7695083618164,0.0,,3.0
5,['1'],1,TMTstop-A_1_1linestimulus2.png,TMTstop-A_1_1greenlinestimulus2.png,TMTstop-A_1_1redlinestimulus2.png,TMT_A,1,5,None,2,1.0,101.11539459228516,101.11539459228516,0.0,,1.0,1.0,0.0,3,1,0.9986515000055078,1.9147205000044778,101.11539459228516,101.11539459228516,0.0,,4.0
6,['3'],3,TMTstop-A_1_1linestimulus3.png,TMTstop-A_1_1greenlinestimulus3.png,TMTstop-A_1_1redlinestimulus3.png,TMT_A,1,6,None,2,1.0,103.0699462890625,103.0699462890625,0.0,,1.0,1.0,0.0,1,2,2,3,0.9307845999937854,1.3753704999980982,1.745514499998535,2.068985199999588,103.0699462890625,103.0699462890625,0.0,,5.0
7,['1'],1,TMTstop-A_1_1linestimulus4.png,TMTstop-A_1_1greenlinestimulus4.png,TMTstop-A_1_1redlinestimulus4.png,TMT_A,1,7,None,2,1.0,105.20635223388672,105.20635223388672,0.0,,1.0,1.0,0.0,2,1,0.2889491999958409,0.42386899999837624,105.20635223388672,105.20635223388672,0.0,,6.0
8,['2'],2,TMTstop-A_1_1linestimulus5.png,TMTstop-A_1_1greenlinestimulus5.png,TMTstop-A_1_1redlinestimulus5.png,TMT_A,1,8,None,2,1.0,105.69119262695312,105.69119262695312,0.0,,1.0,1.0,0.0,2,0.20755869999993593,105.69119262695312,105.69119262695312,0.0,,7.0
9,['3'],3,TMTstop-A_1_1linestimulus6.png,TMTstop-A_1_1greenlinestimulus6.png,TMTstop-A_1_1redlinestimulus6.png,TMT_A,1,9,None,2,1.0,105.94004821777344,105.94004821777344,0.0,,1.0,1.0,0.0,1,3,0.11841000000276836,0.2932795000015176,105.94004821777344,105.94004821777344,0.0,,8.0
10,['1'],1,TMTstop-A_1_1linestimulus7.png,TMTstop-A_1_1greenlinestimulus7.png,TMTstop-A_1_1redlinestimulus7.png,TMT_A,1,10,None,2,1.0,106.29021453857422,106.29021453857422,0.0,,1.0,1.0,0.0,2,1,-0.018374500003119465,0.15121240000007674,106.29021453857422,106.29021453857422,0.0,,9.0
11,['3'],3,TMTstop-A_1_1linestimulus8.png,TMTstop-A_1_1greenlinestimulus8.png,TMTstop-A_1_1redlinestimulus8.png,TMT_A,1,11,None,2,1.0,106.48050689697266,106.48050689697266,0.0,,1.0,1.0,0.0,2,3,0.15194239999982528,0.1562389999962761,106.48050689697266,106.48050689697266,0.0,,10.0
12,['2'],2,TMTstop-A_1_1linestimulus9.png,TMTstop-A_1_1greenlinestimulus9.png,TMTstop-A_1_1redlinestimulus9.png,TMT_A,1,12,None,2,1.0,106.71282196044922,106.71282196044922,0.0,,1.0,1.0,0.0,1,2,3.7593027000039,4.1707328999982565,106.71282196044922,106.71282196044922,0.0,,11.0
13,['1'],1,TMTstop-A_1_1linestimulus10.png,TMTstop-A_1_1greenlinestimulus10.png,TMTstop-A_1_1redlinestimulus10.png,TMT_A,1,13,None,2,1.0,110.9379653930664,110.9379653930664,0.0,,1.0,1.0,0.0,1,0.14557879999483703,110.9379653930664,110.9379653930664,0.0,,12.0
14,['2'],2,TMTstop-A_1_1linestimulus11.png,TMTstop-A_1_1greenlinestimulus11.png,TMTstop-A_1_1redlinestimulus11.png,TMT_A,1,14,None,2,1.0,111.12290954589844,111.12290954589844,0.0,,1.0,1.0,0.0,3,2,0.10139229999913368,0.15688959999533836,111.12290954589844,111.12290954589844,0.0,,13.0
15,['1'],1,TMTstop-A_1_1linestimulus12.png,TMTstop-A_1_1greenlinestimulus12.png,TMTstop-A_1_1redlinestimulus12.png,TMT_A,1,15,None,2,1.0,111.3414077758789,111.3414077758789,0.0,,1.0,1.0,0.0,1,0.06828139999561245,111.3414077758789,111.3414077758789,0.0,,14.0
16,['2'],2,TMTstop-A_1_1linestimulus13.png,TMTstop-A_1_1greenlinestimulus13.png,TMTstop-A_1_1redlinestimulus13.png,TMT_A,1,16,None,2,1.0,111.45499420166016,111.45499420166016,0.0,,1.0,1.0,0.0,3,2,0.06452310000167927,0.08777030000055674,111.45499420166016,111.45499420166016,0.0,,15.0
17,['1'],1,TMTstop-A_1_1linestimulus14.png,TMTstop-A_1_1greenlinestimulus14.png,TMTstop-A_1_1redlinestimulus14.png,TMT_A,1,17,None,2,1.0,111.60104370117188,111.60104370117188,0.0,,1.0,1.0,0.0,1,0.08552140000392683,111.60104370117188,111.60104370117188,0.0,,16.0
18,['3'],3,TMTstop-A_1_1linestimulus15.png,TMTstop-A_1_1greenlinestimulus15.png,TMTstop-A_1_1redlinestimulus15.png,TMT_A,1,18,None,2,1.0,111.72931671142578,111.72931671142578,0.0,,1.0,1.0,0.0,3,0.04594380000344245,111.72931671142578,111.72931671142578,0.0,,17.0
19,['2'],2,TMTstop-A_1_1linestimulus16.png,TMTstop-A_1_1greenlinestimulus16.png,TMTstop-A_1_1redlinestimulus16.png,TMT_A,1,19,None,2,1.0,111.81965637207031,111.81965637207031,0.0,,1.0,1.0,0.0,2,-0.007076099995174445,111.81965637207031,111.81965637207031,0.0,,18.0
20,['3'],3,TMTstop-A_1_1linestimulus17.png,TMTstop-A_1_1greenlinestimulus17.png,TMTstop-A_1_1redlinestimulus17.png,TMT_A,1,20,None,2,1.0,111.86022186279297,111.86022186279297,0.0,,1.0,1.0,0.0,1,3,0.08600840000144672,0.196313000000373,111.86022186279297,111.86022186279297,0.0,,19.0
21,['1'],1,TMTstop-A_1_1linestimulus18.png,TMTstop-A_1_1greenlinestimulus18.png,TMTstop-A_1_1redlinestimulus18.png,TMT_A,1,21,None,2,1.0,112.10621643066406,112.10621643066406,0.0,,1.0,1.0,0.0,2,1,-0.02170549999573268,0.11942040000576526,112.10621643066406,112.10621643066406,0.0,,20.0
22,['3'],3,TMTstop-A_1_1linestimulus19.png,TMTstop-A_1_1greenlinestimulus19.png,TMTstop-A_1_1redlinestimulus19.png,TMT_A,1,22,None,2,1.0,112.30016326904297,112.30016326904297,0.0,,1.0,1.0,0.0,2,1,3,0.07688990000315243,0.21518210000067484,0.3287211999995634,112.30016326904297,112.30016326904297,0.0,,21.0
23,['1'],1,TMTstop-A_1_1linestimulus20.png,TMTstop-A_1_1greenlinestimulus20.png,TMTstop-A_1_1redlinestimulus20.png,TMT_A,1,23,None,2,1.0,112.68556213378906,112.68556213378906,0.0,,1.0,1.0,0.0,2,1,-0.015947500003676396,0.1310786999965785,112.68556213378906,112.68556213378906,0.0,,22.0
24,['3'],3,TMTstop-A_1_1linestimulus21.png,TMTstop-A_1_1greenlinestimulus21.png,TMTstop-A_1_1redlinestimulus21.png,TMT_A,1,24,None,2,1.0,112.88184356689453,112.88184356689453,0.0,,1.0,1.0,0.0,3,0.06467759999941336,112.88184356689453,112.88184356689453,0.0,,23.0
25,['1'],1,TMTstop-A_1_1linestimulus22.png,TMTstop-A_1_1greenlinestimulus22.png,TMTstop-A_1_1redlinestimulus22.png,TMT_A,1,25,None,2,1.0,112.9877700805664,112.9877700805664,0.0,,1.0,1.0,0.0,2,1,-0.010199800002737902,0.1398304999966058,112.9877700805664,112.9877700805664,0.0,,24.0
None,None,None,TMTstop-A_1_1linestimulus23.png,TMTstop-A_1_1greenlinestimulus23.png,TMTstop-A_1_1redlinestimulus23.png,TMT_A,1,Feedback_last,None,2,1.0,113.17830657958984,113.17830657958984,0.0,,0.0,0.0,0.0,3,2,1,3,2,1,0.08008289999997942,0.13086440000188304,0.27239530000224477,0.3927328999998281,0.4302144999965094,0.603805899998406,113.17830657958984,113.17830657958984,0.0,,25.0

extraInfo
participant,
session,001
date,2022_Nov_17_1338
expName,TMT_fmri
psychopyVersion,2021.2.3
frameRate,143.87661141982346
﻿NumberLetter,corrAns,Correct,StimFile,Correct_StimFile,False_StimFile,Version,Paper,TrialNumber_Version,Round,Block,n,Stim.started_mean,Stim.started_raw,Stim.started_std,Stim.stopped_raw,key_resp_2.corr_mean,key_resp_2.corr_raw,key_resp_2.corr_std,key_resp_2.keys_raw,key_resp_2.rt_raw,key_resp_2.started_mean,key_resp_2.started_raw,key_resp_2.started_std,key_resp_2.stopped_raw,order
1,['1'],1,TMTstop-A_1_2.png,TMTstop-A_1_2.png,TMTstop-A_1_2.png,TMT_A,2,26,None,2,1.0,117.34210205078125,117.34210205078125,0.0,,1.0,1.0,0.0,2,3,1,0.3774122000031639,0.38210370000160765,0.5015870999995968,117.34210205078125,117.34210205078125,0.0,,0.0
2,['3'],3,TMTstop-A_1_2.png,TMTstop-A_1_2firstgreen.png,TMTstop-A_1_2firstred.png,TMT_A,2,27,None,2,1.0,117.9126968383789,117.9126968383789,0.0,,1.0,1.0,0.0,3,0.04648829999496229,117.9126968383789,117.9126968383789,0.0,,1.0
3,['1'],1,TMTstop-A_1_2linestimulus0.png,TMTstop-A_1_2greenlinestimulus0.png,TMTstop-A_1_2redlinestimulus0.png,TMT_A,2,28,None,2,1.0,117.9999008178711,117.9999008178711,0.0,,1.0,1.0,0.0,2,1,-0.005935699999099597,0.11941530000331113,117.9999008178711,117.9999008178711,0.0,,2.0
4,['2'],2,TMTstop-A_1_2linestimulus1.png,TMTstop-A_1_2greenlinestimulus1.png,TMTstop-A_1_2redlinestimulus1.png,TMT_A,2,29,None,2,1.0,118.19843292236328,118.19843292236328,0.0,,1.0,1.0,0.0,3,2,0.023463799996534362,0.045782699999108445,118.19843292236328,118.19843292236328,0.0,,3.0
5,['1'],1,TMTstop-A_1_2linestimulus2.png,TMTstop-A_1_2greenlinestimulus2.png,TMTstop-A_1_2redlinestimulus2.png,TMT_A,2,30,None,2,1.0,118.30763244628906,118.30763244628906,0.0,,1.0,1.0,0.0,1,0.06056420000095386,118.30763244628906,118.30763244628906,0.0,,4.0
6,['3'],3,TMTstop-A_1_2linestimulus3.png,TMTstop-A_1_2greenlinestimulus3.png,TMTstop-A_1_2redlinestimulus3.png,TMT_A,2,31,None,2,1.0,118.41349029541016,118.41349029541016,0.0,,1.0,1.0,0.0,3,0.06541080000170041,118.41349029541016,118.41349029541016,0.0,,5.0
7,['2'],2,TMTstop-A_1_2linestimulus4.png,TMTstop-A_1_2greenlinestimulus4.png,TMTstop-A_1_2redlinestimulus4.png,TMT_A,2,32,None,2,1.0,118.52460479736328,118.52460479736328,0.0,,1.0,1.0,0.0,2,-0.010037599997303914,118.52460479736328,118.52460479736328,0.0,,6.0
8,['1'],1,TMTstop-A_1_2linestimulus5.png,TMTstop-A_1_2greenlinestimulus5.png,TMTstop-A_1_2redlinestimulus5.png,TMT_A,2,33,None,2,1.0,118.56632995605469,118.56632995605469,0.0,,1.0,1.0,0.0,1,0.07257050000043819,118.56632995605469,118.56632995605469,0.0,,7.0
9,['3'],3,TMTstop-A_1_2linestimulus6.png,TMTstop-A_1_2greenlinestimulus6.png,TMTstop-A_1_2redlinestimulus6.png,TMT_A,2,34,None,2,1.0,118.67646789550781,118.67646789550781,0.0,,1.0,1.0,0.0,3,0.08357600000454113,118.67646789550781,118.67646789550781,0.0,,8.0
10,['2'],2,TMTstop-A_1_2linestimulus7.png,TMTstop-A_1_2greenlinestimulus7.png,TMTstop-A_1_2redlinestimulus7.png,TMT_A,2,35,None,2,1.0,118.7999267578125,118.7999267578125,0.0,,1.0,1.0,0.0,2,-0.009589199995389208,118.7999267578125,118.7999267578125,0.0,,9.0
11,['1'],1,TMTstop-A_1_2linestimulus8.png,TMTstop-A_1_2greenlinestimulus8.png,TMTstop-A_1_2redlinestimulus8.png,TMT_A,2,36,None,2,1.0,118.83963012695312,118.83963012695312,0.0,,1.0,1.0,0.0,1,0.07072519999928772,118.83963012695312,118.83963012695312,0.0,,10.0
12,['2'],2,TMTstop-A_1_2linestimulus9.png,TMTstop-A_1_2greenlinestimulus9.png,TMTstop-A_1_2redlinestimulus9.png,TMT_A,2,37,None,2,1.0,118.95703125,118.95703125,0.0,,1.0,1.0,0.0,3,2,0.07889979999890784,0.10771229999954812,118.95703125,118.95703125,0.0,,11.0
13,['1'],1,TMTstop-A_1_2linestimulus10.png,TMTstop-A_1_2greenlinestimulus10.png,TMTstop-A_1_2redlinestimulus10.png,TMT_A,2,38,None,2,1.0,119.12161254882812,119.12161254882812,0.0,,1.0,1.0,0.0,1,0.06687280000187457,119.12161254882812,119.12161254882812,0.0,,12.0
14,['3'],3,TMTstop-A_1_2linestimulus11.png,TMTstop-A_1_2greenlinestimulus11.png,TMTstop-A_1_2redlinestimulus11.png,TMT_A,2,39,None,2,1.0,119.23125457763672,119.23125457763672,0.0,,1.0,1.0,0.0,3,0.09939009999652626,119.23125457763672,119.23125457763672,0.0,,13.0
15,['1'],1,TMTstop-A_1_2linestimulus12.png,TMTstop-A_1_2greenlinestimulus12.png,TMTstop-A_1_2redlinestimulus12.png,TMT_A,2,40,None,2,1.0,119.36946105957031,119.36946105957031,0.0,,1.0,1.0,0.0,2,1,0.0029279999944265,0.1305556000006618,119.36946105957031,119.36946105957031,0.0,,14.0
16,['3'],3,TMTstop-A_1_2linestimulus13.png,TMTstop-A_1_2greenlinestimulus13.png,TMTstop-A_1_2redlinestimulus13.png,TMT_A,2,41,None,2,1.0,119.56828308105469,119.56828308105469,0.0,,1.0,1.0,0.0,3,0.03369160000147531,119.56828308105469,119.56828308105469,0.0,,15.0
17,['1'],1,TMTstop-A_1_2linestimulus14.png,TMTstop-A_1_2greenlinestimulus14.png,TMTstop-A_1_2redlinestimulus14.png,TMT_A,2,42,None,2,1.0,119.64720153808594,119.64720153808594,0.0,,1.0,1.0,0.0,2,1,0.020024699995701667,0.16044639999745414,119.64720153808594,119.64720153808594,0.0,,16.0
18,['2'],2,TMTstop-A_1_2linestimulus15.png,TMTstop-A_1_2greenlinestimulus15.png,TMTstop-A_1_2redlinestimulus15.png,TMT_A,2,43,None,2,1.0,119.85743713378906,119.85743713378906,0.0,,1.0,1.0,0.0,3,2,0.07644669999717735,0.10239410000212956,119.85743713378906,119.85743713378906,0.0,,17.0
19,['1'],1,TMTstop-A_1_2linestimulus16.png,TMTstop-A_1_2greenlinestimulus16.png,TMTstop-A_1_2redlinestimulus16.png,TMT_A,2,44,None,2,1.0,120.01438903808594,120.01438903808594,0.0,,1.0,1.0,0.0,1,0.09777400000166381,120.01438903808594,120.01438903808594,0.0,,18.0
20,['2'],2,TMTstop-A_1_2linestimulus17.png,TMTstop-A_1_2greenlinestimulus17.png,TMTstop-A_1_2redlinestimulus17.png,TMT_A,2,45,None,2,1.0,120.1549072265625,120.1549072265625,0.0,,1.0,1.0,0.0,3,2,0.07572720000462141,0.12469700000656303,120.1549072265625,120.1549072265625,0.0,,19.0
21,['3'],3,TMTstop-A_1_2linestimulus18.png,TMTstop-A_1_2greenlinestimulus18.png,TMTstop-A_1_2redlinestimulus18.png,TMT_A,2,46,None,2,1.0,120.35741424560547,120.35741424560547,0.0,,1.0,1.0,0.0,1,3,0.05682899999374058,0.18997680000029504,120.35741424560547,120.35741424560547,0.0,,20.0
22,['2'],2,TMTstop-A_1_2linestimulus19.png,TMTstop-A_1_2greenlinestimulus19.png,TMTstop-A_1_2redlinestimulus19.png,TMT_A,2,47,None,2,1.0,120.60189819335938,120.60189819335938,0.0,,1.0,1.0,0.0,2,-0.026283999999577645,120.60189819335938,120.60189819335938,0.0,,21.0
23,['3'],3,TMTstop-A_1_2linestimulus20.png,TMTstop-A_1_2greenlinestimulus20.png,TMTstop-A_1_2redlinestimulus20.png,TMT_A,2,48,None,2,1.0,120.6444091796875,120.6444091796875,0.0,,1.0,1.0,0.0,1,3,2,1,2,1,2,1,3,0.049518200001330115,0.16970259999652626,0.20654199999989942,0.3446318999995128,0.4953949999980978,0.6331150999976671,0.7856183999974746,0.9539116000014474,1.022683399998641,120.6444091796875,120.6444091796875,0.0,,22.0
24,['2'],2,TMTstop-A_1_2linestimulus21.png,TMTstop-A_1_2greenlinestimulus21.png,TMTstop-A_1_2redlinestimulus21.png,TMT_A,2,49,None,2,1.0,121.72442626953125,121.72442626953125,0.0,,1.0,1.0,0.0,1,3,2,0.172625600003812,0.33695950000401353,0.360734500005492,121.72442626953125,121.72442626953125,0.0,,23.0
25,['3'],3,TMTstop-A_1_2linestimulus22.png,TMTstop-A_1_2greenlinestimulus22.png,TMTstop-A_1_2redlinestimulus22.png,TMT_A,2,50,None,2,1.0,122.13274383544922,122.13274383544922,0.0,,1.0,1.0,0.0,1,3,0.10371499999746447,0.22359799999685492,122.13274383544922,122.13274383544922,0.0,,24.0
None,None,None,TMTstop-A_1_2linestimulus23.png,TMTstop-A_1_2greenlinestimulus23.png,TMTstop-A_1_2redlinestimulus23.png,TMT_A,2,Feedback_last,None,2,1.0,122.42961883544922,122.42961883544922,0.0,,0.0,0.0,0.0,2,1,3,2,0.0033279999988735653,0.11302900000009686,0.23213959999702638,0.27642670000204816,122.42961883544922,122.42961883544922,0.0,,25.0

extraInfo
participant,
session,001
date,2022_Nov_17_1338
expName,TMT_fmri
psychopyVersion,2021.2.3
frameRate,143.87661141982346
﻿NumberLetter,corrAns,Correct,StimFile,Correct_StimFile,False_StimFile,Version,Paper,TrialNumber_Version,Round,Block,n,Stim.started_mean,Stim.started_raw,Stim.started_std,Stim.stopped_raw,key_resp_2.corr_mean,key_resp_2.corr_raw,key_resp_2.corr_std,key_resp_2.keys_raw,key_resp_2.rt_raw,key_resp_2.started_mean,key_resp_2.started_raw,key_resp_2.started_std,key_resp_2.stopped_raw,order
1,['1'],1,TMTstop-A_1_3.png,TMTstop-A_1_3.png,TMTstop-A_1_3.png,TMT_A,3,51,None,2,1.0,126.54946899414062,126.54946899414062,0.0,,1.0,1.0,0.0,3,2,1,1.075606999998854,1.0937550000016927,1.2167399999962072,126.54946899414062,126.54946899414062,0.0,,0.0
2,['3'],3,TMTstop-A_1_3.png,TMTstop-A_1_3firstgreen.png,TMTstop-A_1_3firstred.png,TMT_A,3,52,None,2,1.0,127.81373596191406,127.81373596191406,0.0,,1.0,1.0,0.0,3,0.0731350000060047,127.81373596191406,127.81373596191406,0.0,,1.0
3,['2'],2,TMTstop-A_1_3linestimulus0.png,TMTstop-A_1_3greenlinestimulus0.png,TMTstop-A_1_3redlinestimulus0.png,TMT_A,3,53,None,2,1.0,127.92545318603516,127.92545318603516,0.0,,1.0,1.0,0.0,2,-0.007270299996889662,127.92545318603516,127.92545318603516,0.0,,2.0
4,['3'],3,TMTstop-A_1_3linestimulus1.png,TMTstop-A_1_3greenlinestimulus1.png,TMTstop-A_1_3redlinestimulus1.png,TMT_A,3,54,None,2,1.0,127.9654312133789,127.9654312133789,0.0,,1.0,1.0,0.0,1,3,0.07895279999502236,0.18154819999472238,127.9654312133789,127.9654312133789,0.0,,3.0
5,['2'],2,TMTstop-A_1_3linestimulus2.png,TMTstop-A_1_3greenlinestimulus2.png,TMTstop-A_1_3redlinestimulus2.png,TMT_A,3,55,None,2,1.0,128.21188354492188,128.21188354492188,0.0,,1.0,1.0,0.0,1,3,2,0.08006109999405453,0.2061184999984107,0.25858019999577664,128.21188354492188,128.21188354492188,0.0,,4.0
6,['1'],1,TMTstop-A_1_3linestimulus3.png,TMTstop-A_1_3greenlinestimulus3.png,TMTstop-A_1_3redlinestimulus3.png,TMT_A,3,56,None,2,1.0,128.5202178955078,128.5202178955078,0.0,,1.0,1.0,0.0,1,0.049530199998116586,128.5202178955078,128.5202178955078,0.0,,5.0
7,['3'],3,TMTstop-A_1_3linestimulus4.png,TMTstop-A_1_3greenlinestimulus4.png,TMTstop-A_1_3redlinestimulus4.png,TMT_A,3,57,None,2,1.0,128.60975646972656,128.60975646972656,0.0,,1.0,1.0,0.0,3,0.0753748999995878,128.60975646972656,128.60975646972656,0.0,,6.0
8,['1'],1,TMTstop-A_1_3linestimulus5.png,TMTstop-A_1_3greenlinestimulus5.png,TMTstop-A_1_3redlinestimulus5.png,TMT_A,3,58,None,2,1.0,128.73338317871094,128.73338317871094,0.0,,1.0,1.0,0.0,2,1,-0.010463400001754053,0.09054509999987204,128.73338317871094,128.73338317871094,0.0,,7.0
9,['3'],3,TMTstop-A_1_3linestimulus6.png,TMTstop-A_1_3greenlinestimulus6.png,TMTstop-A_1_3redlinestimulus6.png,TMT_A,3,59,None,2,1.0,128.8907928466797,128.8907928466797,0.0,,1.0,1.0,0.0,3,0.07626300000265473,128.8907928466797,128.8907928466797,0.0,,8.0
10,['2'],2,TMTstop-A_1_3linestimulus7.png,TMTstop-A_1_3greenlinestimulus7.png,TMTstop-A_1_3redlinestimulus7.png,TMT_A,3,60,None,2,1.0,129.0095672607422,129.0095672607422,0.0,,1.0,1.0,0.0,2,-0.007292800000868738,129.0095672607422,129.0095672607422,0.0,,9.0
11,['3'],3,TMTstop-A_1_3linestimulus8.png,TMTstop-A_1_3greenlinestimulus8.png,TMTstop-A_1_3redlinestimulus8.png,TMT_A,3,61,None,2,1.0,129.05079650878906,129.05079650878906,0.0,,1.0,1.0,0.0,1,3,2,1,3,0.05724539999937406,0.1888976999980514,0.2137153000003309,0.343265399998927,0.47096659999806434,129.05079650878906,129.05079650878906,0.0,,10.0
12,['2'],2,TMTstop-A_1_3linestimulus9.png,TMTstop-A_1_3greenlinestimulus9.png,TMTstop-A_1_3redlinestimulus9.png,TMT_A,3,62,None,2,1.0,129.5806884765625,129.5806884765625,0.0,,1.0,1.0,0.0,2,-0.03647810000256868,129.5806884765625,129.5806884765625,0.0,,11.0
13,['1'],1,TMTstop-A_1_3linestimulus10.png,TMTstop-A_1_3greenlinestimulus10.png,TMTstop-A_1_3redlinestimulus10.png,TMT_A,3,63,None,2,1.0,129.62123107910156,129.62123107910156,0.0,,1.0,1.0,0.0,1,0.043028700005379505,129.62123107910156,129.62123107910156,0.0,,12.0
14,['2'],2,TMTstop-A_1_3linestimulus11.png,TMTstop-A_1_3greenlinestimulus11.png,TMTstop-A_1_3redlinestimulus11.png,TMT_A,3,64,None,2,1.0,129.710693359375,129.710693359375,0.0,,1.0,1.0,0.0,3,2,0.07742159999907017,0.13222420000238344,129.710693359375,129.710693359375,0.0,,13.0
15,['3'],3,TMTstop-A_1_3linestimulus12.png,TMTstop-A_1_3greenlinestimulus12.png,TMTstop-A_1_3redlinestimulus12.png,TMT_A,3,65,None,2,1.0,129.90811157226562,129.90811157226562,0.0,,1.0,1.0,0.0,1,3,0.052424399997107685,0.16274519999569748,129.90811157226562,129.90811157226562,0.0,,14.0
16,['2'],2,TMTstop-A_1_3linestimulus13.png,TMTstop-A_1_3greenlinestimulus13.png,TMTstop-A_1_3redlinestimulus13.png,TMT_A,3,66,None,2,1.0,130.11949157714844,130.11949157714844,0.0,,1.0,1.0,0.0,2,-0.023153199996158946,130.11949157714844,130.11949157714844,0.0,,15.0
17,['3'],3,TMTstop-A_1_3linestimulus14.png,TMTstop-A_1_3greenlinestimulus14.png,TMTstop-A_1_3redlinestimulus14.png,TMT_A,3,67,None,2,1.0,130.1593475341797,130.1593475341797,0.0,,1.0,1.0,0.0,1,3,0.05918820000078995,0.20492440000089118,130.1593475341797,130.1593475341797,0.0,,16.0
18,['2'],2,TMTstop-A_1_3linestimulus15.png,TMTstop-A_1_3greenlinestimulus15.png,TMTstop-A_1_3redlinestimulus15.png,TMT_A,3,68,None,2,1.0,130.4229278564453,130.4229278564453,0.0,,1.0,1.0,0.0,2,-0.015970499996910803,130.4229278564453,130.4229278564453,0.0,,17.0
19,['3'],3,TMTstop-A_1_3linestimulus16.png,TMTstop-A_1_3greenlinestimulus16.png,TMTstop-A_1_3redlinestimulus16.png,TMT_A,3,69,None,2,1.0,130.46377563476562,130.46377563476562,0.0,,1.0,1.0,0.0,1,3,0.04701589999604039,0.19417869999597315,130.46377563476562,130.46377563476562,0.0,,18.0
20,['1'],1,TMTstop-A_1_3linestimulus17.png,TMTstop-A_1_3greenlinestimulus17.png,TMTstop-A_1_3redlinestimulus17.png,TMT_A,3,70,None,2,1.0,130.70582580566406,130.70582580566406,0.0,,1.0,1.0,0.0,2,1,0.025795299996389076,0.10991069999727188,130.70582580566406,130.70582580566406,0.0,,19.0
21,['2'],2,TMTstop-A_1_3linestimulus18.png,TMTstop-A_1_3greenlinestimulus18.png,TMTstop-A_1_3redlinestimulus18.png,TMT_A,3,71,None,2,1.0,130.85630798339844,130.85630798339844,0.0,,1.0,1.0,0.0,3,2,0.0962913999974262,0.12034999999741558,130.85630798339844,130.85630798339844,0.0,,20.0
22,['3'],3,TMTstop-A_1_3linestimulus19.png,TMTstop-A_1_3greenlinestimulus19.png,TMTstop-A_1_3redlinestimulus19.png,TMT_A,3,72,None,2,1.0,131.03660583496094,131.03660583496094,0.0,,1.0,1.0,0.0,1,3,2,1,3,2,1,3,0.07613420000416227,0.20610320000560023,0.2286212000035448,0.3652741000041715,0.49014980000356445,0.5039237000019057,0.6583984000026248,0.7944109000018216,131.03660583496094,131.03660583496094,0.0,,21.0
23,['2'],2,TMTstop-A_1_3linestimulus20.png,TMTstop-A_1_3greenlinestimulus20.png,TMTstop-A_1_3redlinestimulus20.png,TMT_A,3,73,None,2,1.0,131.8815460205078,131.8815460205078,0.0,,1.0,1.0,0.0,2,-0.0193991999985883,131.8815460205078,131.8815460205078,0.0,,22.0
24,['1'],1,TMTstop-A_1_3linestimulus21.png,TMTstop-A_1_3greenlinestimulus21.png,TMTstop-A_1_3redlinestimulus21.png,TMT_A,3,74,None,2,1.0,131.92257690429688,131.92257690429688,0.0,,1.0,1.0,0.0,1,0.10047689999919385,131.92257690429688,131.92257690429688,0.0,,23.0
25,['2'],2,TMTstop-A_1_3linestimulus22.png,TMTstop-A_1_3greenlinestimulus22.png,TMTstop-A_1_3redlinestimulus22.png,TMT_A,3,75,None,2,1.0,132.06373596191406,132.06373596191406,0.0,,1.0,1.0,0.0,3,2,0.09174209999764571,0.1240722000002279,132.06373596191406,132.06373596191406,0.0,,24.0
None,None,None,TMTstop-A_1_3linestimulus23.png,TMTstop-A_1_3greenlinestimulus23.png,TMTstop-A_1_3redlinestimulus23.png,TMT_A,3,Feedback_last,None,2,1.0,132.2373809814453,132.2373809814453,0.0,,0.0,0.0,0.0,1,3,2,1,0.1016003000040655,0.22707739999896148,0.25315019999834476,0.3859775000018999,132.2373809814453,132.2373809814453,0.0,,25.0

extraInfo
participant,
session,001
date,2022_Nov_17_1338
expName,TMT_fmri
psychopyVersion,2021.2.3
frameRate,143.87661141982346
