NumberLetter,corrAns,StimFile,Correct_StimFile,False_StimFile,DurationTrial,Block_file,Condition_rows,Correct,restartpractice.thisRepN,restartpractice.thisTrialN,restartpractice.thisN,restartpractice.thisIndex,trials_practice.thisRepN,trials_practice.thisTrialN,trials_practice.thisN,trials_practice.thisIndex,Blocks_loop.thisRepN,Blocks_loop.thisTrialN,Blocks_loop.thisN,Blocks_loop.thisIndex,trials.thisRepN,trials.thisTrialN,trials.thisN,trials.thisIndex,key_resp_6.keys,key_resp_6.rt,key_resp_6.started,key_resp_6.stopped,Stim_practice.started,Stim_practice.stopped,key_resp_practice.keys,key_resp_practice.rt,key_resp_practice.started,key_resp_practice.stopped,key_resp_5.keys,key_resp_5.rt,Attempts,First_attempt,Stim.started,Stim.stopped,key_resp_2.keys,key_resp_2.corr,key_resp_2.rt,key_resp_2.started,key_resp_2.stopped,participant,session,date,expName,psychopyVersion,frameRate,
,,,,,,,,,,,,,,,,,,,,,,,,,2,0.5825610000174493,10.746988099999726,None,,,,,,,,,,,,,,,,,,,001,2022_Feb_02_1213,TMTAstop-A,2021.2.3,141.39611724293184,
1,['1'],TMTstop-A_1_practice.png,TMTstop-A_1_practice.png,TMTstop-A_1_practice.png,10,,,,0,0,0,0,0,0,0,0,,,,,,,,,,,,,14.393478200072423,None,1,3.809340899810195,14.393478200072423,None,,,,,,,,,,,,,001,2022_Feb_02_1213,TMTAstop-A,2021.2.3,141.39611724293184,
2,['2'],TMTstop-A_1_practice.png,TMTstop-A_1_practicefirstgreen.png,TMTstop-A_1_practicefirstred.png,10,,,,0,0,0,0,0,1,1,1,,,,,,,,,,,,,18.27616270002909,None,2,0.22661959985271096,18.27616270002909,None,,,,,,,,,,,,,001,2022_Feb_02_1213,TMTAstop-A,2021.2.3,141.39611724293184,
3,['3'],TMTstop-A_1_practicelinestimulus0.png,TMTstop-A_1_practicegreenlinestimulus0.png,TMTstop-A_1_practiceredlinestimulus0.png,10,,,,0,0,0,0,0,2,2,2,,,,,,,,,,,,,18.57407410000451,None,3,0.0609349999576807,18.57407410000451,None,,,,,,,,,,,,,001,2022_Feb_02_1213,TMTAstop-A,2021.2.3,141.39611724293184,
4,['1'],TMTstop-A_1_practicelinestimulus1.png,TMTstop-A_1_practicegreenlinestimulus1.png,TMTstop-A_1_practiceredlinestimulus1.png,10,,,,0,0,0,0,0,3,3,3,,,,,,,,,,,,,18.71283799991943,None,1,0.11311679985374212,18.71283799991943,None,,,,,,,,,,,,,001,2022_Feb_02_1213,TMTAstop-A,2021.2.3,141.39611724293184,
5,['2'],TMTstop-A_1_practicelinestimulus2.png,TMTstop-A_1_practicegreenlinestimulus2.png,TMTstop-A_1_practiceredlinestimulus2.png,10,,,,0,0,0,0,0,4,4,4,,,,,,,,,,,,,18.911250199889764,None,2,0.27042690012604,18.911250199889764,None,,,,,,,,,,,,,001,2022_Feb_02_1213,TMTAstop-A,2021.2.3,141.39611724293184,
6,['3'],TMTstop-A_1_practicelinestimulus3.png,TMTstop-A_1_practicegreenlinestimulus3.png,TMTstop-A_1_practiceredlinestimulus3.png,10,,,,0,0,0,0,0,5,5,5,,,,,,,,,,,,,19.282307900022715,None,3,0.012449400033801794,19.282307900022715,None,,,,,,,,,,,,,001,2022_Feb_02_1213,TMTAstop-A,2021.2.3,141.39611724293184,
7,['1'],TMTstop-A_1_practicelinestimulus4.png,TMTstop-A_1_practicegreenlinestimulus4.png,TMTstop-A_1_practiceredlinestimulus4.png,10,,,,0,0,0,0,0,6,6,6,,,,,,,,,,,,,19.369411899941042,None,1,0.07223020005039871,19.369411899941042,None,,,,,,,,,,,,,001,2022_Feb_02_1213,TMTAstop-A,2021.2.3,141.39611724293184,
8,['3'],TMTstop-A_1_practicelinestimulus5.png,TMTstop-A_1_practicegreenlinestimulus5.png,TMTstop-A_1_practiceredlinestimulus5.png,10,,,,0,0,0,0,0,7,7,7,,,,,,,,,,,,,19.52111089997925,None,3,0.6489270001184195,19.52111089997925,None,,,,,,,,,,,,,001,2022_Feb_02_1213,TMTAstop-A,2021.2.3,141.39611724293184,
9,['2'],TMTstop-A_1_practicelinestimulus6.png,TMTstop-A_1_practicegreenlinestimulus6.png,TMTstop-A_1_practiceredlinestimulus6.png,10,,,,0,0,0,0,0,8,8,8,,,,,,,,,,,,,20.261833699885756,None,2,0.13607109989970922,20.261833699885756,None,,,,,,,,,,,,,001,2022_Feb_02_1213,TMTAstop-A,2021.2.3,141.39611724293184,
10,['3'],TMTstop-A_1_practicelinestimulus7.png,TMTstop-A_1_practicegreenlinestimulus7.png,TMTstop-A_1_practiceredlinestimulus7.png,10,,,,0,0,0,0,0,9,9,9,,,,,,,,,,,,,20.478268600068986,None,3,0.04559929994866252,20.478268600068986,None,,,,,,,,,,,,,001,2022_Feb_02_1213,TMTAstop-A,2021.2.3,141.39611724293184,
11,['1'],TMTstop-A_1_practicelinestimulus8.png,TMTstop-A_1_practicegreenlinestimulus8.png,TMTstop-A_1_practiceredlinestimulus8.png,10,,,,0,0,0,0,0,10,10,10,,,,,,,,,,,,,20.60190590005368,None,1,0.0663409000262618,20.60190590005368,None,,,,,,,,,,,,,001,2022_Feb_02_1213,TMTAstop-A,2021.2.3,141.39611724293184,
12,['2'],TMTstop-A_1_practicelinestimulus9.png,TMTstop-A_1_practicegreenlinestimulus9.png,TMTstop-A_1_practiceredlinestimulus9.png,10,,,,0,0,0,0,0,11,11,11,,,,,,,,,,,,,20.747649899916723,None,2,0.2970750001259148,20.747649899916723,None,,,,,,,,,,,,,001,2022_Feb_02_1213,TMTAstop-A,2021.2.3,141.39611724293184,
None,None,TMTstop-A_1_practicelinestimulus10.png,TMTstop-A_1_practicegreenlinestimulus10.png,TMTstop-A_1_practiceredlinestimulus10.png,None,,,,0,0,0,0,0,12,12,12,,,,,,,,,,,,,21.130186999915168,None,3,0.3829723000526428,21.130186999915168,None,,,,,,,,,,,,,001,2022_Feb_02_1213,TMTAstop-A,2021.2.3,141.39611724293184,
,,,,,,,,,0,0,0,0,,,,,,,,,,,,,,,,,,,,,,,3,4.095364699838683,,,,,,,,,,,001,2022_Feb_02_1213,TMTAstop-A,2021.2.3,141.39611724293184,
1,['2'],TMTstop-A_1_1.png,TMTstop-A_1_1.png,TMTstop-A_1_1.png,10,TMTstop-A_1_1.xlsx,0:26,,,,,,,,,,0,0,0,0,0,0,0,0,,,,,,,,,,,,,2,1,29.413831199984998,None,"['1', '2']",1,"[1.0609631999395788, 1.212586099980399]",29.413831199984998,None,,001,2022_Feb_02_1213,TMTAstop-A,2021.2.3,141.39611724293184,
2,['1'],TMTstop-A_1_1.png,TMTstop-A_1_1firstgreen.png,TMTstop-A_1_1firstred.png,10,TMTstop-A_1_1.xlsx,0:26,,,,,,,,,,0,0,0,0,0,1,1,1,,,,,,,,,,,,,2,1,30.726959299994633,None,"['3', '1']",1,"[-0.0030177999287843704, 0.194558700080961]",30.726959299994633,None,,001,2022_Feb_02_1213,TMTAstop-A,2021.2.3,141.39611724293184,
3,['2'],TMTstop-A_1_1linestimulus0.png,TMTstop-A_1_1greenlinestimulus0.png,TMTstop-A_1_1redlinestimulus0.png,10,TMTstop-A_1_1.xlsx,0:26,,,,,,,,,,0,0,0,0,0,2,2,2,,,,,,,,,,,,,1,1,31.004493799991906,None,['2'],1,[-0.03394680004566908],31.004493799991906,None,,001,2022_Feb_02_1213,TMTAstop-A,2021.2.3,141.39611724293184,
4,['3'],TMTstop-A_1_1linestimulus1.png,TMTstop-A_1_1greenlinestimulus1.png,TMTstop-A_1_1redlinestimulus1.png,10,TMTstop-A_1_1.xlsx,0:26,,,,,,,,,,0,0,0,0,0,3,3,3,,,,,,,,,,,,,1,1,31.08754949993454,None,['3'],1,[0.029779599979519844],31.08754949993454,None,,001,2022_Feb_02_1213,TMTAstop-A,2021.2.3,141.39611724293184,
5,['2'],TMTstop-A_1_1linestimulus2.png,TMTstop-A_1_1greenlinestimulus2.png,TMTstop-A_1_1redlinestimulus2.png,10,TMTstop-A_1_1.xlsx,0:26,,,,,,,,,,0,0,0,0,0,4,4,4,,,,,,,,,,,,,2,1,31.209951899945736,None,"['1', '2']",1,"[0.06282260012812912, 0.14429110009223223]",31.209951899945736,None,,001,2022_Feb_02_1213,TMTAstop-A,2021.2.3,141.39611724293184,
6,['3'],TMTstop-A_1_1linestimulus3.png,TMTstop-A_1_1greenlinestimulus3.png,TMTstop-A_1_1redlinestimulus3.png,10,TMTstop-A_1_1.xlsx,0:26,,,,,,,,,,0,0,0,0,0,5,5,5,,,,,,,,,,,,,1,1,31.449237399967387,None,['3'],1,[-0.003233900060877204],31.449237399967387,None,,001,2022_Feb_02_1213,TMTAstop-A,2021.2.3,141.39611724293184,
7,['2'],TMTstop-A_1_1linestimulus4.png,TMTstop-A_1_1greenlinestimulus4.png,TMTstop-A_1_1redlinestimulus4.png,10,TMTstop-A_1_1.xlsx,0:26,,,,,,,,,,0,0,0,0,0,6,6,6,,,,,,,,,,,,,2,1,31.525185599923134,None,"['1', '2']",1,"[0.07531050010584295, 0.1173356999643147]",31.525185599923134,None,,001,2022_Feb_02_1213,TMTAstop-A,2021.2.3,141.39611724293184,
8,['1'],TMTstop-A_1_1linestimulus5.png,TMTstop-A_1_1greenlinestimulus5.png,TMTstop-A_1_1redlinestimulus5.png,10,TMTstop-A_1_1.xlsx,0:26,,,,,,,,,,0,0,0,0,0,7,7,7,,,,,,,,,,,,,2,1,31.726393399992958,None,"['3', '1']",1,"[0.03545160009525716, 0.2660902999341488]",31.726393399992958,None,,001,2022_Feb_02_1213,TMTAstop-A,2021.2.3,141.39611724293184,
9,['2'],TMTstop-A_1_1linestimulus6.png,TMTstop-A_1_1greenlinestimulus6.png,TMTstop-A_1_1redlinestimulus6.png,10,TMTstop-A_1_1.xlsx,0:26,,,,,,,,,,0,0,0,0,0,8,8,8,,,,,,,,,,,,,2,1,32.08909639995545,None,"['1', '2']",1,"[0.2907803999260068, 0.42394059989601374]",32.08909639995545,None,,001,2022_Feb_02_1213,TMTAstop-A,2021.2.3,141.39611724293184,
10,['1'],TMTstop-A_1_1linestimulus7.png,TMTstop-A_1_1greenlinestimulus7.png,TMTstop-A_1_1redlinestimulus7.png,10,TMTstop-A_1_1.xlsx,0:26,,,,,,,,,,0,0,0,0,0,9,9,9,,,,,,,,,,,,,2,1,32.62927969987504,None,"['3', '1']",1,"[-0.0705964001826942, 0.11763899982906878]",32.62927969987504,None,,001,2022_Feb_02_1213,TMTAstop-A,2021.2.3,141.39611724293184,
11,['2'],TMTstop-A_1_1linestimulus8.png,TMTstop-A_1_1greenlinestimulus8.png,TMTstop-A_1_1redlinestimulus8.png,10,TMTstop-A_1_1.xlsx,0:26,,,,,,,,,,0,0,0,0,0,10,10,10,,,,,,,,,,,,,1,1,32.83054449991323,None,['2'],1,[-0.049256599973887205],32.83054449991323,None,,001,2022_Feb_02_1213,TMTAstop-A,2021.2.3,141.39611724293184,
12,['3'],TMTstop-A_1_1linestimulus9.png,TMTstop-A_1_1greenlinestimulus9.png,TMTstop-A_1_1redlinestimulus9.png,10,TMTstop-A_1_1.xlsx,0:26,,,,,,,,,,0,0,0,0,0,11,11,11,,,,,,,,,,,,,1,1,32.907096799928695,None,['3'],1,[-0.019914899952709675],32.907096799928695,None,,001,2022_Feb_02_1213,TMTAstop-A,2021.2.3,141.39611724293184,
13,['2'],TMTstop-A_1_1linestimulus10.png,TMTstop-A_1_1greenlinestimulus10.png,TMTstop-A_1_1redlinestimulus10.png,1,TMTstop-A_1_1.xlsx,0:26,,,,,,,,,,0,0,0,0,0,12,12,12,,,,,,,,,,,,,2,1,32.98382279998623,None,"['1', '2']",1,"[0.050576699897646904, 0.13167169992811978]",32.98382279998623,None,,001,2022_Feb_02_1213,TMTAstop-A,2021.2.3,141.39611724293184,
14,['3'],TMTstop-A_1_1linestimulus11.png,TMTstop-A_1_1greenlinestimulus11.png,TMTstop-A_1_1redlinestimulus11.png,None,TMTstop-A_1_1.xlsx,0:26,,,,,,,,,,0,0,0,0,0,13,13,13,,,,,,,,,,,,,3,1,33.200874499976635,None,"['1', '2', '3']",1,"[0.19749339995905757, 0.20055789989419281, 0.3755885998252779]",33.200874499976635,None,,001,2022_Feb_02_1213,TMTAstop-A,2021.2.3,141.39611724293184,
15,['1'],TMTstop-A_1_1linestimulus12.png,TMTstop-A_1_1greenlinestimulus12.png,TMTstop-A_1_1redlinestimulus12.png,None,TMTstop-A_1_1.xlsx,0:26,,,,,,,,,,0,0,0,0,0,14,14,14,,,,,,,,,,,,,1,1,33.69165599998087,None,['1'],1,[0.06779529992491007],33.69165599998087,None,,001,2022_Feb_02_1213,TMTAstop-A,2021.2.3,141.39611724293184,
16,['3'],TMTstop-A_1_1linestimulus13.png,TMTstop-A_1_1greenlinestimulus13.png,TMTstop-A_1_1redlinestimulus13.png,None,TMTstop-A_1_1.xlsx,0:26,,,,,,,,,,0,0,0,0,0,15,15,15,,,,,,,,,,,,,4,1,33.83794149989262,None,"['2', '1', '2', '3']",1,"[-0.03638949990272522, 0.5500134001486003, 0.6129431000445038, 0.7205170001834631]",33.83794149989262,None,,001,2022_Feb_02_1213,TMTAstop-A,2021.2.3,141.39611724293184,
17,['2'],TMTstop-A_1_1linestimulus14.png,TMTstop-A_1_1greenlinestimulus14.png,TMTstop-A_1_1redlinestimulus14.png,None,TMTstop-A_1_1.xlsx,0:26,,,,,,,,,,0,0,0,0,0,16,16,16,,,,,,,,,,,,,2,1,34.67224149988033,None,"['1', '2']",1,"[0.04960380005650222, 0.10867410013452172]",34.67224149988033,None,,001,2022_Feb_02_1213,TMTAstop-A,2021.2.3,141.39611724293184,
18,['3'],TMTstop-A_1_1linestimulus15.png,TMTstop-A_1_1greenlinestimulus15.png,TMTstop-A_1_1redlinestimulus15.png,None,TMTstop-A_1_1.xlsx,0:26,,,,,,,,,,0,0,0,0,0,17,17,17,,,,,,,,,,,,,1,1,34.893145400099456,None,['3'],1,[-0.010430300142616034],34.893145400099456,None,,001,2022_Feb_02_1213,TMTAstop-A,2021.2.3,141.39611724293184,
19,['1'],TMTstop-A_1_1linestimulus16.png,TMTstop-A_1_1greenlinestimulus16.png,TMTstop-A_1_1redlinestimulus16.png,None,TMTstop-A_1_1.xlsx,0:26,,,,,,,,,,0,0,0,0,0,18,18,18,,,,,,,,,,,,,1,1,34.969564399914816,None,['1'],1,[0.06350160017609596],34.969564399914816,None,,001,2022_Feb_02_1213,TMTAstop-A,2021.2.3,141.39611724293184,
20,['3'],TMTstop-A_1_1linestimulus17.png,TMTstop-A_1_1greenlinestimulus17.png,TMTstop-A_1_1redlinestimulus17.png,None,TMTstop-A_1_1.xlsx,0:26,,,,,,,,,,0,0,0,0,0,19,19,19,,,,,,,,,,,,,2,1,35.11663220007904,None,"['2', '3']",1,"[-0.04723930009640753, 0.05891309981234372]",35.11663220007904,None,,001,2022_Feb_02_1213,TMTAstop-A,2021.2.3,141.39611724293184,
21,['1'],TMTstop-A_1_1linestimulus18.png,TMTstop-A_1_1greenlinestimulus18.png,TMTstop-A_1_1redlinestimulus18.png,None,TMTstop-A_1_1.xlsx,0:26,,,,,,,,,,0,0,0,0,0,20,20,20,,,,,,,,,,,,,1,1,35.27509119990282,None,['1'],1,[0.04193300008773804],35.27509119990282,None,,001,2022_Feb_02_1213,TMTAstop-A,2021.2.3,141.39611724293184,
22,['3'],TMTstop-A_1_1linestimulus19.png,TMTstop-A_1_1greenlinestimulus19.png,TMTstop-A_1_1redlinestimulus19.png,None,TMTstop-A_1_1.xlsx,0:26,,,,,,,,,,0,0,0,0,0,21,21,21,,,,,,,,,,,,,2,1,35.393550500040874,None,"['2', '3']",1,"[-9.180000051856041e-05, 0.101810900028795]",35.393550500040874,None,,001,2022_Feb_02_1213,TMTAstop-A,2021.2.3,141.39611724293184,
23,['1'],TMTstop-A_1_1linestimulus20.png,TMTstop-A_1_1greenlinestimulus20.png,TMTstop-A_1_1redlinestimulus20.png,None,TMTstop-A_1_1.xlsx,0:26,,,,,,,,,,0,0,0,0,0,22,22,22,,,,,,,,,,,,,1,1,35.59596539987251,None,['1'],1,[0.06789310020394623],35.59596539987251,None,,001,2022_Feb_02_1213,TMTAstop-A,2021.2.3,141.39611724293184,
24,['2'],TMTstop-A_1_1linestimulus21.png,TMTstop-A_1_1greenlinestimulus21.png,TMTstop-A_1_1redlinestimulus21.png,None,TMTstop-A_1_1.xlsx,0:26,,,,,,,,,,0,0,0,0,0,23,23,23,,,,,,,,,,,,,1,1,35.74781329999678,None,['2'],1,[-0.008900599787011743],35.74781329999678,None,,001,2022_Feb_02_1213,TMTAstop-A,2021.2.3,141.39611724293184,
25,['3'],TMTstop-A_1_1linestimulus22.png,TMTstop-A_1_1greenlinestimulus22.png,TMTstop-A_1_1redlinestimulus22.png,None,TMTstop-A_1_1.xlsx,0:26,,,,,,,,,,0,0,0,0,0,24,24,24,,,,,,,,,,,,,1,1,35.82440049992874,None,['3'],1,[0.06322999997064471],35.82440049992874,None,,001,2022_Feb_02_1213,TMTAstop-A,2021.2.3,141.39611724293184,
None,None,TMTstop-A_1_1linestimulus23.png,TMTstop-A_1_1greenlinestimulus23.png,TMTstop-A_1_1redlinestimulus23.png,None,TMTstop-A_1_1.xlsx,0:26,,,,,,,,,,0,0,0,0,0,25,25,25,,,,,,,,,,,,,1,1,35.963634399930015,None,['1'],0,[0.10783079988323152],35.963634399930015,None,,001,2022_Feb_02_1213,TMTAstop-A,2021.2.3,141.39611724293184,
1,['3'],TMTstop-A_1_2.png,TMTstop-A_1_2.png,TMTstop-A_1_2.png,10,TMTstop-A_1_2.xlsx,26:52,3,,,,,,,,,0,1,1,1,0,0,0,0,,,,,,,,,,,,,3,1,40.06664149998687,None,"['1', '2', '3']",1,"[2.300654900027439, 2.402284099953249, 2.4973144999239594]",40.06664149998687,None,,001,2022_Feb_02_1213,TMTAstop-A,2021.2.3,141.39611724293184,
2,['2'],TMTstop-A_1_2.png,TMTstop-A_1_2firstgreen.png,TMTstop-A_1_2firstred.png,10,TMTstop-A_1_2.xlsx,26:52,2,,,,,,,,,0,1,1,1,0,1,1,1,,,,,,,,,,,,,2,1,42.65059749991633,None,"['1', '2']",1,"[0.0830532000400126, 0.12436009990051389]",42.65059749991633,None,,001,2022_Feb_02_1213,TMTAstop-A,2021.2.3,141.39611724293184,
3,['3'],TMTstop-A_1_2linestimulus0.png,TMTstop-A_1_2greenlinestimulus0.png,TMTstop-A_1_2redlinestimulus0.png,10,TMTstop-A_1_2.xlsx,26:52,3,,,,,,,,,0,1,1,1,0,2,2,2,,,,,,,,,,,,,1,1,42.858180300099775,None,['3'],1,[0.04565989994443953],42.858180300099775,None,,001,2022_Feb_02_1213,TMTAstop-A,2021.2.3,141.39611724293184,
4,['1'],TMTstop-A_1_2linestimulus1.png,TMTstop-A_1_2greenlinestimulus1.png,TMTstop-A_1_2redlinestimulus1.png,10,TMTstop-A_1_2.xlsx,26:52,1,,,,,,,,,0,1,1,1,0,3,3,3,,,,,,,,,,,,,1,1,42.980473099974915,None,['1'],1,[0.07035960000939667],42.980473099974915,None,,001,2022_Feb_02_1213,TMTAstop-A,2021.2.3,141.39611724293184,
5,['2'],TMTstop-A_1_2linestimulus2.png,TMTstop-A_1_2greenlinestimulus2.png,TMTstop-A_1_2redlinestimulus2.png,10,TMTstop-A_1_2.xlsx,26:52,2,,,,,,,,,0,1,1,1,0,4,4,4,,,,,,,,,,,,,1,1,43.1361541999504,None,['2'],1,[-0.04045390011742711],43.1361541999504,None,,001,2022_Feb_02_1213,TMTAstop-A,2021.2.3,141.39611724293184,
6,['3'],TMTstop-A_1_2linestimulus3.png,TMTstop-A_1_2greenlinestimulus3.png,TMTstop-A_1_2redlinestimulus3.png,10,TMTstop-A_1_2.xlsx,26:52,3,,,,,,,,,0,1,1,1,0,5,5,5,,,,,,,,,,,,,1,1,43.21310520009138,None,['3'],1,[0.015398000134155154],43.21310520009138,None,,001,2022_Feb_02_1213,TMTAstop-A,2021.2.3,141.39611724293184,
7,['2'],TMTstop-A_1_2linestimulus4.png,TMTstop-A_1_2greenlinestimulus4.png,TMTstop-A_1_2redlinestimulus4.png,10,TMTstop-A_1_2.xlsx,26:52,2,,,,,,,,,0,1,1,1,0,6,6,6,,,,,,,,,,,,,2,1,43.31675640004687,None,"['1', '2']",1,"[0.825448399875313, 0.9435189999639988]",43.31675640004687,None,,001,2022_Feb_02_1213,TMTAstop-A,2021.2.3,141.39611724293184,
8,['1'],TMTstop-A_1_2linestimulus5.png,TMTstop-A_1_2greenlinestimulus5.png,TMTstop-A_1_2redlinestimulus5.png,10,TMTstop-A_1_2.xlsx,26:52,1,,,,,,,,,0,1,1,1,0,7,7,7,,,,,,,,,,,,,2,1,44.33748440002091,None,"['3', '1']",1,"[0.012369000120088458, 0.525702300015837]",44.33748440002091,None,,001,2022_Feb_02_1213,TMTAstop-A,2021.2.3,141.39611724293184,
9,['2'],TMTstop-A_1_2linestimulus6.png,TMTstop-A_1_2greenlinestimulus6.png,TMTstop-A_1_2redlinestimulus6.png,10,TMTstop-A_1_2.xlsx,26:52,2,,,,,,,,,0,1,1,1,0,8,8,8,,,,,,,,,,,,,1,1,44.97645780001767,None,['2'],1,[-0.017240900080651045],44.97645780001767,None,,001,2022_Feb_02_1213,TMTAstop-A,2021.2.3,141.39611724293184,
10,['3'],TMTstop-A_1_2linestimulus7.png,TMTstop-A_1_2greenlinestimulus7.png,TMTstop-A_1_2redlinestimulus7.png,10,TMTstop-A_1_2.xlsx,26:52,3,,,,,,,,,0,1,1,1,0,9,9,9,,,,,,,,,,,,,1,1,45.04580170009285,None,['3'],1,[0.006961999926716089],45.04580170009285,None,,001,2022_Feb_02_1213,TMTAstop-A,2021.2.3,141.39611724293184,
11,['1'],TMTstop-A_1_2linestimulus8.png,TMTstop-A_1_2greenlinestimulus8.png,TMTstop-A_1_2redlinestimulus8.png,10,TMTstop-A_1_2.xlsx,26:52,1,,,,,,,,,0,1,1,1,0,10,10,10,,,,,,,,,,,,,1,1,45.13600809988566,None,['1'],1,[0.07550409995019436],45.13600809988566,None,,001,2022_Feb_02_1213,TMTAstop-A,2021.2.3,141.39611724293184,
12,['2'],TMTstop-A_1_2linestimulus9.png,TMTstop-A_1_2greenlinestimulus9.png,TMTstop-A_1_2redlinestimulus9.png,10,TMTstop-A_1_2.xlsx,26:52,2,,,,,,,,,0,1,1,1,0,11,11,11,,,,,,,,,,,,,1,1,45.29623010009527,None,['2'],1,[-0.047026799991726875],45.29623010009527,None,,001,2022_Feb_02_1213,TMTAstop-A,2021.2.3,141.39611724293184,
13,['3'],TMTstop-A_1_2linestimulus10.png,TMTstop-A_1_2greenlinestimulus10.png,TMTstop-A_1_2redlinestimulus10.png,1,TMTstop-A_1_2.xlsx,26:52,3,,,,,,,,,0,1,1,1,0,12,12,12,,,,,,,,,,,,,1,1,45.37218019994907,None,['3'],1,[-0.0132468999363482],45.37218019994907,None,,001,2022_Feb_02_1213,TMTAstop-A,2021.2.3,141.39611724293184,
14,['1'],TMTstop-A_1_2linestimulus11.png,TMTstop-A_1_2greenlinestimulus11.png,TMTstop-A_1_2redlinestimulus11.png,None,TMTstop-A_1_2.xlsx,26:52,1,,,,,,,,,0,1,1,1,0,13,13,13,,,,,,,,,,,,,1,1,45.441603400046006,None,['1'],1,[0.08376670000143349],45.441603400046006,None,,001,2022_Feb_02_1213,TMTAstop-A,2021.2.3,141.39611724293184,
15,['3'],TMTstop-A_1_2linestimulus12.png,TMTstop-A_1_2greenlinestimulus12.png,TMTstop-A_1_2redlinestimulus12.png,None,TMTstop-A_1_2.xlsx,26:52,3,,,,,,,,,0,1,1,1,0,14,14,14,,,,,,,,,,,,,2,1,45.6080074000638,None,"['2', '3']",1,"[-0.0522622000426054, 0.0847666000481695]",45.6080074000638,None,,001,2022_Feb_02_1213,TMTAstop-A,2021.2.3,141.39611724293184,
16,['1'],TMTstop-A_1_2linestimulus13.png,TMTstop-A_1_2greenlinestimulus13.png,TMTstop-A_1_2redlinestimulus13.png,None,TMTstop-A_1_2.xlsx,26:52,1,,,,,,,,,0,1,1,1,0,15,15,15,,,,,,,,,,,,,1,1,45.805745099904016,None,['1'],1,[0.048318499932065606],45.805745099904016,None,,001,2022_Feb_02_1213,TMTAstop-A,2021.2.3,141.39611724293184,
17,['2'],TMTstop-A_1_2linestimulus14.png,TMTstop-A_1_2greenlinestimulus14.png,TMTstop-A_1_2redlinestimulus14.png,None,TMTstop-A_1_2.xlsx,26:52,2,,,,,,,,,0,1,1,1,0,16,16,16,,,,,,,,,,,,,1,1,45.928355399984866,None,['2'],1,[0.017808099975809455],45.928355399984866,None,,001,2022_Feb_02_1213,TMTAstop-A,2021.2.3,141.39611724293184,
18,['1'],TMTstop-A_1_2linestimulus15.png,TMTstop-A_1_2greenlinestimulus15.png,TMTstop-A_1_2redlinestimulus15.png,None,TMTstop-A_1_2.xlsx,26:52,1,,,,,,,,,0,1,1,1,0,17,17,17,,,,,,,,,,,,,2,1,46.02486389991827,None,"['3', '1']",1,"[0.015722300158813596, 0.16263230005279183]",46.02486389991827,None,,001,2022_Feb_02_1213,TMTAstop-A,2021.2.3,141.39611724293184,
19,['3'],TMTstop-A_1_2linestimulus16.png,TMTstop-A_1_2greenlinestimulus16.png,TMTstop-A_1_2redlinestimulus16.png,None,TMTstop-A_1_2.xlsx,26:52,3,,,,,,,,,0,1,1,1,0,18,18,18,,,,,,,,,,,,,2,1,46.296032099984586,None,"['2', '3']",1,"[-0.059760100208222866, 0.06122129992581904]",46.296032099984586,None,,001,2022_Feb_02_1213,TMTAstop-A,2021.2.3,141.39611724293184,
20,['1'],TMTstop-A_1_2linestimulus17.png,TMTstop-A_1_2greenlinestimulus17.png,TMTstop-A_1_2redlinestimulus17.png,None,TMTstop-A_1_2.xlsx,26:52,1,,,,,,,,,0,1,1,1,0,19,19,19,,,,,,,,,,,,,1,1,46.45534870005213,None,['1'],1,[0.04433439997956157],46.45534870005213,None,,001,2022_Feb_02_1213,TMTAstop-A,2021.2.3,141.39611724293184,
21,['2'],TMTstop-A_1_2linestimulus18.png,TMTstop-A_1_2greenlinestimulus18.png,TMTstop-A_1_2redlinestimulus18.png,None,TMTstop-A_1_2.xlsx,26:52,2,,,,,,,,,0,1,1,1,0,20,20,20,,,,,,,,,,,,,1,1,46.58807129994966,None,['2'],1,[-0.029138399986550212],46.58807129994966,None,,001,2022_Feb_02_1213,TMTAstop-A,2021.2.3,141.39611724293184,
22,['1'],TMTstop-A_1_2linestimulus19.png,TMTstop-A_1_2greenlinestimulus19.png,TMTstop-A_1_2redlinestimulus19.png,None,TMTstop-A_1_2.xlsx,26:52,1,,,,,,,,,0,1,1,1,0,21,21,21,,,,,,,,,,,,,2,1,46.66393869998865,None,"['3', '1']",1,"[0.0162708000279963, 0.1460303000640124]",46.66393869998865,None,,001,2022_Feb_02_1213,TMTAstop-A,2021.2.3,141.39611724293184,
23,['2'],TMTstop-A_1_2linestimulus20.png,TMTstop-A_1_2greenlinestimulus20.png,TMTstop-A_1_2redlinestimulus20.png,None,TMTstop-A_1_2.xlsx,26:52,2,,,,,,,,,0,1,1,1,0,22,22,22,,,,,,,,,,,,,1,1,46.88591090007685,None,['2'],1,[-0.011813200078904629],46.88591090007685,None,,001,2022_Feb_02_1213,TMTAstop-A,2021.2.3,141.39611724293184,
24,['1'],TMTstop-A_1_2linestimulus21.png,TMTstop-A_1_2greenlinestimulus21.png,TMTstop-A_1_2redlinestimulus21.png,None,TMTstop-A_1_2.xlsx,26:52,1,,,,,,,,,0,1,1,1,0,23,23,23,,,,,,,,,,,,,2,1,46.9626142999623,None,"['3', '1']",1,"[0.026269200025126338, 0.1548785998020321]",46.9626142999623,None,,001,2022_Feb_02_1213,TMTAstop-A,2021.2.3,141.39611724293184,
25,['2'],TMTstop-A_1_2linestimulus22.png,TMTstop-A_1_2greenlinestimulus22.png,TMTstop-A_1_2redlinestimulus22.png,None,TMTstop-A_1_2.xlsx,26:52,2,,,,,,,,,0,1,1,1,0,24,24,24,,,,,,,,,,,,,1,1,47.23409099993296,None,['2'],1,[-0.0411255001090467],47.23409099993296,None,,001,2022_Feb_02_1213,TMTAstop-A,2021.2.3,141.39611724293184,
None,None,TMTstop-A_1_2linestimulus23.png,TMTstop-A_1_2greenlinestimulus23.png,TMTstop-A_1_2redlinestimulus23.png,None,TMTstop-A_1_2.xlsx,26:52,None,,,,,,,,,0,1,1,1,0,25,25,25,,,,,,,,,,,,,2,1,47.30995159992017,None,"['3', '1']",0,"[-0.00966030010022223, 0.5265329000540078]",47.30995159992017,None,,001,2022_Feb_02_1213,TMTAstop-A,2021.2.3,141.39611724293184,
1,['2'],TMTstop-A_1_3.png,TMTstop-A_1_3.png,TMTstop-A_1_3.png,10,TMTstop-A_1_3.xlsx,52:78,2,,,,,,,,,0,2,2,2,0,0,0,0,,,,,,,,,,,,,2,1,51.392774200066924,None,"['1', '2']",1,"[0.40494140004739165, 0.4693628998938948]",51.392774200066924,None,,001,2022_Feb_02_1213,TMTAstop-A,2021.2.3,141.39611724293184,
2,['1'],TMTstop-A_1_3.png,TMTstop-A_1_3firstgreen.png,TMTstop-A_1_3firstred.png,10,TMTstop-A_1_3.xlsx,52:78,1,,,,,,,,,0,2,2,2,0,1,1,1,,,,,,,,,,,,,2,1,51.96269969991408,None,"['3', '1']",1,"[0.018257700139656663, 0.19947500014677644]",51.96269969991408,None,,001,2022_Feb_02_1213,TMTAstop-A,2021.2.3,141.39611724293184,
3,['3'],TMTstop-A_1_3linestimulus0.png,TMTstop-A_1_3greenlinestimulus0.png,TMTstop-A_1_3redlinestimulus0.png,10,TMTstop-A_1_3.xlsx,52:78,3,,,,,,,,,0,2,2,2,0,2,2,2,,,,,,,,,,,,,2,1,52.269035999896005,None,"['2', '3']",1,"[-0.02278989995829761, 0.062211700016632676]",52.269035999896005,None,,001,2022_Feb_02_1213,TMTAstop-A,2021.2.3,141.39611724293184,
4,['2'],TMTstop-A_1_3linestimulus1.png,TMTstop-A_1_3greenlinestimulus1.png,TMTstop-A_1_3redlinestimulus1.png,10,TMTstop-A_1_3.xlsx,52:78,2,,,,,,,,,0,2,2,2,0,3,3,3,,,,,,,,,,,,,2,1,52.42093989998102,None,"['1', '2']",1,"[0.06662840000353754, 0.1142255999147892]",52.42093989998102,None,,001,2022_Feb_02_1213,TMTAstop-A,2021.2.3,141.39611724293184,
5,['3'],TMTstop-A_1_3linestimulus2.png,TMTstop-A_1_3greenlinestimulus2.png,TMTstop-A_1_3redlinestimulus2.png,10,TMTstop-A_1_3.xlsx,52:78,3,,,,,,,,,0,2,2,2,0,4,4,4,,,,,,,,,,,,,1,1,52.60828440007754,None,['3'],1,[0.0227333998773247],52.60828440007754,None,,001,2022_Feb_02_1213,TMTAstop-A,2021.2.3,141.39611724293184,
6,['2'],TMTstop-A_1_3linestimulus3.png,TMTstop-A_1_3greenlinestimulus3.png,TMTstop-A_1_3redlinestimulus3.png,10,TMTstop-A_1_3.xlsx,52:78,2,,,,,,,,,0,2,2,2,0,5,5,5,,,,,,,,,,,,,2,1,52.70520190009847,None,"['1', '2']",1,"[0.07031049998477101, 0.1297470999415964]",52.70520190009847,None,,001,2022_Feb_02_1213,TMTAstop-A,2021.2.3,141.39611724293184,
7,['1'],TMTstop-A_1_3linestimulus4.png,TMTstop-A_1_3greenlinestimulus4.png,TMTstop-A_1_3redlinestimulus4.png,10,TMTstop-A_1_3.xlsx,52:78,1,,,,,,,,,0,2,2,2,0,6,6,6,,,,,,,,,,,,,2,1,52.94201199989766,None,"['3', '1']",1,"[-0.005042399978265166, 0.12701070006005466]",52.94201199989766,None,,001,2022_Feb_02_1213,TMTAstop-A,2021.2.3,141.39611724293184,
8,['2'],TMTstop-A_1_3linestimulus5.png,TMTstop-A_1_3greenlinestimulus5.png,TMTstop-A_1_3redlinestimulus5.png,10,TMTstop-A_1_3.xlsx,52:78,2,,,,,,,,,0,2,2,2,0,7,7,7,,,,,,,,,,,,,1,1,53.17815149994567,None,['2'],1,[-0.049100999953225255],53.17815149994567,None,,001,2022_Feb_02_1213,TMTAstop-A,2021.2.3,141.39611724293184,
9,['3'],TMTstop-A_1_3linestimulus6.png,TMTstop-A_1_3greenlinestimulus6.png,TMTstop-A_1_3redlinestimulus6.png,10,TMTstop-A_1_3.xlsx,52:78,3,,,,,,,,,0,2,2,2,0,8,8,8,,,,,,,,,,,,,1,1,53.246946200029925,None,['3'],1,[-0.008386699948459864],53.246946200029925,None,,001,2022_Feb_02_1213,TMTAstop-A,2021.2.3,141.39611724293184,
10,['2'],TMTstop-A_1_3linestimulus7.png,TMTstop-A_1_3greenlinestimulus7.png,TMTstop-A_1_3redlinestimulus7.png,10,TMTstop-A_1_3.xlsx,52:78,2,,,,,,,,,0,2,2,2,0,9,9,9,,,,,,,,,,,,,2,1,53.316395400092006,None,"['1', '2']",1,"[0.0629687998443842, 0.11340969987213612]",53.316395400092006,None,,001,2022_Feb_02_1213,TMTAstop-A,2021.2.3,141.39611724293184,
11,['3'],TMTstop-A_1_3linestimulus8.png,TMTstop-A_1_3greenlinestimulus8.png,TMTstop-A_1_3redlinestimulus8.png,10,TMTstop-A_1_3.xlsx,52:78,3,,,,,,,,,0,2,2,2,0,10,10,10,,,,,,,,,,,,,1,1,53.5466763000004,None,['3'],1,[-0.0017262999899685383],53.5466763000004,None,,001,2022_Feb_02_1213,TMTAstop-A,2021.2.3,141.39611724293184,
12,['2'],TMTstop-A_1_3linestimulus9.png,TMTstop-A_1_3greenlinestimulus9.png,TMTstop-A_1_3redlinestimulus9.png,10,TMTstop-A_1_3.xlsx,52:78,2,,,,,,,,,0,2,2,2,0,11,11,11,,,,,,,,,,,,,2,1,53.62271540006623,None,"['1', '2']",1,"[0.07048810017295182, 0.1141745001077652]",53.62271540006623,None,,001,2022_Feb_02_1213,TMTAstop-A,2021.2.3,141.39611724293184,
13,['1'],TMTstop-A_1_3linestimulus10.png,TMTstop-A_1_3greenlinestimulus10.png,TMTstop-A_1_3redlinestimulus10.png,1,TMTstop-A_1_3.xlsx,52:78,1,,,,,,,,,0,2,2,2,0,12,12,12,,,,,,,,,,,,,2,1,53.81629609991796,None,"['3', '1']",1,"[0.05800949991680682, 0.20467679994180799]",53.81629609991796,None,,001,2022_Feb_02_1213,TMTAstop-A,2021.2.3,141.39611724293184,
14,['2'],TMTstop-A_1_3linestimulus11.png,TMTstop-A_1_3greenlinestimulus11.png,TMTstop-A_1_3redlinestimulus11.png,None,TMTstop-A_1_3.xlsx,52:78,2,,,,,,,,,0,2,2,2,0,13,13,13,,,,,,,,,,,,,1,1,54.114871700061485,None,['2'],1,[-0.026127800112590194],54.114871700061485,None,,001,2022_Feb_02_1213,TMTAstop-A,2021.2.3,141.39611724293184,
15,['1'],TMTstop-A_1_3linestimulus12.png,TMTstop-A_1_3greenlinestimulus12.png,TMTstop-A_1_3redlinestimulus12.png,None,TMTstop-A_1_3.xlsx,52:78,1,,,,,,,,,0,2,2,2,0,14,14,14,,,,,,,,,,,,,2,1,54.184371900046244,None,"['3', '1']",1,"[0.023370100185275078, 0.16371460002847016]",54.184371900046244,None,,001,2022_Feb_02_1213,TMTAstop-A,2021.2.3,141.39611724293184,
16,['2'],TMTstop-A_1_3linestimulus13.png,TMTstop-A_1_3greenlinestimulus13.png,TMTstop-A_1_3redlinestimulus13.png,None,TMTstop-A_1_3.xlsx,52:78,2,,,,,,,,,0,2,2,2,0,15,15,15,,,,,,,,,,,,,1,1,54.455097399884835,None,['2'],1,[-0.040694099850952625],54.455097399884835,None,,001,2022_Feb_02_1213,TMTAstop-A,2021.2.3,141.39611724293184,
17,['3'],TMTstop-A_1_3linestimulus14.png,TMTstop-A_1_3greenlinestimulus14.png,TMTstop-A_1_3redlinestimulus14.png,None,TMTstop-A_1_3.xlsx,52:78,3,,,,,,,,,0,2,2,2,0,16,16,16,,,,,,,,,,,,,1,1,54.53169719991274,None,['3'],1,[-0.003074500011280179],54.53169719991274,None,,001,2022_Feb_02_1213,TMTAstop-A,2021.2.3,141.39611724293184,
18,['2'],TMTstop-A_1_3linestimulus15.png,TMTstop-A_1_3greenlinestimulus15.png,TMTstop-A_1_3redlinestimulus15.png,None,TMTstop-A_1_3.xlsx,52:78,2,,,,,,,,,0,2,2,2,0,17,17,17,,,,,,,,,,,,,2,1,54.60780430003069,None,"['1', '2']",1,"[0.0819872000720352, 0.1369890000205487]",54.60780430003069,None,,001,2022_Feb_02_1213,TMTAstop-A,2021.2.3,141.39611724293184,
19,['1'],TMTstop-A_1_3linestimulus16.png,TMTstop-A_1_3greenlinestimulus16.png,TMTstop-A_1_3redlinestimulus16.png,None,TMTstop-A_1_3.xlsx,52:78,1,,,,,,,,,0,2,2,2,0,18,18,18,,,,,,,,,,,,,2,1,54.84397999988869,None,"['3', '1']",1,"[0.03264579991810024, 0.17852830002084374]",54.84397999988869,None,,001,2022_Feb_02_1213,TMTAstop-A,2021.2.3,141.39611724293184,
20,['2'],TMTstop-A_1_3linestimulus17.png,TMTstop-A_1_3greenlinestimulus17.png,TMTstop-A_1_3redlinestimulus17.png,None,TMTstop-A_1_3.xlsx,52:78,2,,,,,,,,,0,2,2,2,0,19,19,19,,,,,,,,,,,,,1,1,55.125342699931934,None,['2'],1,[-0.03677889984101057],55.125342699931934,None,,001,2022_Feb_02_1213,TMTAstop-A,2021.2.3,141.39611724293184,
21,['3'],TMTstop-A_1_3linestimulus18.png,TMTstop-A_1_3greenlinestimulus18.png,TMTstop-A_1_3redlinestimulus18.png,None,TMTstop-A_1_3.xlsx,52:78,3,,,,,,,,,0,2,2,2,0,20,20,20,,,,,,,,,,,,,1,1,55.200519300065935,None,['3'],1,[0.01486469991505146],55.200519300065935,None,,001,2022_Feb_02_1213,TMTAstop-A,2021.2.3,141.39611724293184,
22,['1'],TMTstop-A_1_3linestimulus19.png,TMTstop-A_1_3greenlinestimulus19.png,TMTstop-A_1_3redlinestimulus19.png,None,TMTstop-A_1_3.xlsx,52:78,1,,,,,,,,,0,2,2,2,0,21,21,21,,,,,,,,,,,,,1,1,55.296175099909306,None,['1'],1,[0.07140730018727481],55.296175099909306,None,,001,2022_Feb_02_1213,TMTAstop-A,2021.2.3,141.39611724293184,
23,['3'],TMTstop-A_1_3linestimulus20.png,TMTstop-A_1_3greenlinestimulus20.png,TMTstop-A_1_3redlinestimulus20.png,None,TMTstop-A_1_3.xlsx,52:78,3,,,,,,,,,0,2,2,2,0,22,22,22,,,,,,,,,,,,,2,1,55.449389999965206,None,"['2', '3']",1,"[-0.022582600126042962, 0.1088584999088198]",55.449389999965206,None,,001,2022_Feb_02_1213,TMTAstop-A,2021.2.3,141.39611724293184,
24,['1'],TMTstop-A_1_3linestimulus21.png,TMTstop-A_1_3greenlinestimulus21.png,TMTstop-A_1_3redlinestimulus21.png,None,TMTstop-A_1_3.xlsx,52:78,1,,,,,,,,,0,2,2,2,0,23,23,23,,,,,,,,,,,,,1,1,55.65031719999388,None,['1'],1,[0.050031900173053145],55.65031719999388,None,,001,2022_Feb_02_1213,TMTAstop-A,2021.2.3,141.39611724293184,
25,['3'],TMTstop-A_1_3linestimulus22.png,TMTstop-A_1_3greenlinestimulus22.png,TMTstop-A_1_3redlinestimulus22.png,None,TMTstop-A_1_3.xlsx,52:78,3,,,,,,,,,0,2,2,2,0,24,24,24,,,,,,,,,,,,,2,1,55.7886272999458,None,"['2', '3']",1,"[-0.024936800124123693, 0.10825959988869727]",55.7886272999458,None,,001,2022_Feb_02_1213,TMTAstop-A,2021.2.3,141.39611724293184,
None,None,TMTstop-A_1_3linestimulus23.png,TMTstop-A_1_3greenlinestimulus23.png,TMTstop-A_1_3redlinestimulus23.png,None,TMTstop-A_1_3.xlsx,52:78,None,,,,,,,,,0,2,2,2,0,25,25,25,,,,,,,,,,,,,0,1,55.99054510006681,None,None,1,,55.99054510006681,None,,001,2022_Feb_02_1213,TMTAstop-A,2021.2.3,141.39611724293184,
,,,,,,,,,,,,,,,,,,,,,,,,,,,,,,,,,,,,,0,1,,,,,,,,,,,,,,
