NumB_1_1erLetter,corrAns,StimFile,Correct_StimFile,False_StimFile,DurationTrial,NumberLetter,NumB_1_2erLetter,trials.thisRepN,trials.thisTrialN,trials.thisN,trials.thisIndex,trials_2.thisRepN,trials_2.thisTrialN,trials_2.thisN,trials_2.thisIndex,trials_3.thisRepN,trials_3.thisTrialN,trials_3.thisN,trials_3.thisIndex,trials_4.thisRepN,trials_4.thisTrialN,trials_4.thisN,trials_4.thisIndex,Instruct.started,Instruct.stopped,text_2.started,text_2.stopped,Stim.started,Stim.stopped,key_resp_2.keys,key_resp_2.corr,key_resp_2.rt,key_resp_2.started,key_resp_2.stopped,polygon.started,polygon.stopped,text.started,text.stopped,participant,session,date,expName,psychopyVersion,frameRate,
1,1,TMT-B_1_1.png,TMT-B_1_1.png,TMT-B_1_1.png,10,,,0,0,0,0,,,,,,,,,,,,,7.2100171000020055,None,7.2100171000020055,None,8.031696599999123,None,1,1,0.9073991000004753,8.031696599999123,None,,,,,,001,2021_Oct_27_1629,TMTAB,2021.2.3,142.87490016088776,
A,2,TMT-B_1_1.png,TMT-B_1_1firstgreen.png,TMT-B_1_1firstred.png,10,,,0,1,1,1,,,,,,,,,,,,,,,,,9.036425599999347,None,2,1,0.3898048999981256,9.036425599999347,None,,,,,,001,2021_Oct_27_1629,TMTAB,2021.2.3,142.87490016088776,
2,1,TMT-B_1_1linestimulus0.png,TMT-B_1_1greenlinestimulus0.png,TMT-B_1_1redlinestimulus0.png,10,,,0,2,2,2,,,,,,,,,,,,,,,,,9.52207510000153,None,3,0,1.090126600000076,9.52207510000153,None,,,,,,001,2021_Oct_27_1629,TMTAB,2021.2.3,142.87490016088776,
B,3,TMT-B_1_1linestimulus1.png,TMT-B_1_1greenlinestimulus1.png,TMT-B_1_1redlinestimulus1.png,10,,,0,3,3,3,,,,,,,,,,,,,,,,,10.696084600000177,None,None,0,,10.696084600000177,None,,,,,,001,2021_Oct_27_1629,TMTAB,2021.2.3,142.87490016088776,
,3,TMT-BX_1_1.png,TMT-BX_1_1.png,TMT-BX_1_1.png,,7,,,,,,0,0,0,0,,,,,,,,,,,,,16.08457247999904,None,None,0,,16.08457247999904,None,13.039822800001275,None,,,,001,2021_Oct_27_1629,TMTAB,2021.2.3,142.87490016088776,
,1,TMT-BX_1_1.png,TMT-BX_1_1firstgreen.png,TMT-BX_1_1firstred.png,,G,,,,,,0,1,1,1,,,,,,,,,,,,,16.150815539999165,None,None,0,,16.150815539999165,None,,,,,,001,2021_Oct_27_1629,TMTAB,2021.2.3,142.87490016088776,
,2,TMT-BX_1_1linestimulus0.png,TMT-BX_1_1greenlinestimulus0.png,TMT-BX_1_1redlinestimulus0.png,,8,,,,,,0,2,2,2,,,,,,,,,,,,,16.224418939999303,None,None,0,,16.224418939999303,None,,,,,,001,2021_Oct_27_1629,TMTAB,2021.2.3,142.87490016088776,
,1,TMT-BX_1_1linestimulus1.png,TMT-BX_1_1greenlinestimulus1.png,TMT-BX_1_1redlinestimulus1.png,,H,,,,,,0,3,3,3,,,,,,,,,,,,,16.31274301999947,None,None,0,,16.31274301999947,None,,,,,,001,2021_Oct_27_1629,TMTAB,2021.2.3,142.87490016088776,
,3,TMT-BX_1_1linestimulus2.png,TMT-BX_1_1greenlinestimulus2.png,TMT-BX_1_1redlinestimulus2.png,,9,,,,,,0,4,4,4,,,,,,,,,,,,,16.401067099999636,None,None,0,,16.401067099999636,None,,,,,,001,2021_Oct_27_1629,TMTAB,2021.2.3,142.87490016088776,
,1,TMT-BX_1_1linestimulus3.png,TMT-BX_1_1greenlinestimulus3.png,TMT-BX_1_1redlinestimulus3.png,,I,,,,,,0,5,5,5,,,,,,,,,,,,,16.496751519999815,None,None,0,,16.496751519999815,None,,,,,,001,2021_Oct_27_1629,TMTAB,2021.2.3,142.87490016088776,
,2,TMT-BX_1_1linestimulus4.png,TMT-BX_1_1greenlinestimulus4.png,TMT-BX_1_1redlinestimulus4.png,,10,,,,,,0,6,6,6,,,,,,,,,,,,,16.585075599999982,None,None,0,,16.585075599999982,None,,,,,,001,2021_Oct_27_1629,TMTAB,2021.2.3,142.87490016088776,
,3,TMT-BX_1_1linestimulus5.png,TMT-BX_1_1greenlinestimulus5.png,TMT-BX_1_1redlinestimulus5.png,,J,,,,,,0,7,7,7,,,,,,,,,,,,,16.673399680000145,None,None,0,,16.673399680000145,None,,,,,,001,2021_Oct_27_1629,TMTAB,2021.2.3,142.87490016088776,
,2,TMT-BX_1_1linestimulus6.png,TMT-BX_1_1greenlinestimulus6.png,TMT-BX_1_1redlinestimulus6.png,,11,,,,,,0,8,8,8,,,,,,,,,,,,,16.769084100000327,None,None,0,,16.769084100000327,None,,,,,,001,2021_Oct_27_1629,TMTAB,2021.2.3,142.87490016088776,
,1,TMT-BX_1_1linestimulus7.png,TMT-BX_1_1greenlinestimulus7.png,TMT-BX_1_1redlinestimulus7.png,,K,,,,,,0,9,9,9,,,,,,,,,,,,,16.85740818000049,None,None,0,,16.85740818000049,None,,,,,,001,2021_Oct_27_1629,TMTAB,2021.2.3,142.87490016088776,
,2,TMT-BX_1_1linestimulus8.png,TMT-BX_1_1greenlinestimulus8.png,TMT-BX_1_1redlinestimulus8.png,,12,,,,,,0,10,10,10,,,,,,,,,,,,,16.945732260000657,None,None,0,,16.945732260000657,None,,,,,,001,2021_Oct_27_1629,TMTAB,2021.2.3,142.87490016088776,
,1,TMT-BX_1_1linestimulus9.png,TMT-BX_1_1greenlinestimulus9.png,TMT-BX_1_1redlinestimulus9.png,,L,,,,,,0,11,11,11,,,,,,,,,,,,,17.048777020000852,None,None,0,,17.048777020000852,None,,,,,,001,2021_Oct_27_1629,TMTAB,2021.2.3,142.87490016088776,
,None,None,TMT-BX_1_1greenlinestimulus10.png,TMT-BX_1_1redlinestimulus10.png,,None,,,,,,0,12,12,12,,,,,,,,,,,,,17.13710110000102,None,None,1,,17.13710110000102,None,,,,,,001,2021_Oct_27_1629,TMTAB,2021.2.3,142.87490016088776,
,2,TMT-B_1_2.png,TMT-B_1_2.png,TMT-B_1_2.png,10,,1,,,,,,,,,0,0,0,0,,,,,,,,,20.197276019999844,None,None,0,,20.197276019999844,None,17.15558940000119,None,,,,001,2021_Oct_27_1629,TMTAB,2021.2.3,142.87490016088776,
,3,TMT-B_1_2.png,TMT-B_1_2firstgreen.png,TMT-B_1_2firstred.png,10,,A,,,,,,,,,0,1,1,1,,,,,,,,,20.256158739999954,None,None,0,,20.256158739999954,None,,,,,,001,2021_Oct_27_1629,TMTAB,2021.2.3,142.87490016088776,
,1,TMT-B_1_2linestimulus0.png,TMT-B_1_2greenlinestimulus0.png,TMT-B_1_2redlinestimulus0.png,10,,2,,,,,,,,,0,2,2,2,,,,,,,,,20.32240180000008,None,None,0,,20.32240180000008,None,,,,,,001,2021_Oct_27_1629,TMTAB,2021.2.3,142.87490016088776,
,2,TMT-B_1_2linestimulus1.png,TMT-B_1_2greenlinestimulus1.png,TMT-B_1_2redlinestimulus1.png,10,,B,,,,,,,,,0,3,3,3,,,,,,,,,20.38128452000019,None,None,0,,20.38128452000019,None,,,,,,001,2021_Oct_27_1629,TMTAB,2021.2.3,142.87490016088776,
,3,TMT-B_1_2linestimulus2.png,TMT-B_1_2greenlinestimulus2.png,TMT-B_1_2redlinestimulus2.png,10,,3,,,,,,,,,0,4,4,4,,,,,,,,,20.447527580000312,None,None,0,,20.447527580000312,None,,,,,,001,2021_Oct_27_1629,TMTAB,2021.2.3,142.87490016088776,
,2,TMT-B_1_2linestimulus3.png,TMT-B_1_2greenlinestimulus3.png,TMT-B_1_2redlinestimulus3.png,10,,C,,,,,,,,,0,5,5,5,,,,,,,,,20.506410300000425,None,None,0,,20.506410300000425,None,,,,,,001,2021_Oct_27_1629,TMTAB,2021.2.3,142.87490016088776,
,1,TMT-B_1_2linestimulus4.png,TMT-B_1_2greenlinestimulus4.png,TMT-B_1_2redlinestimulus4.png,10,,4,,,,,,,,,0,6,6,6,,,,,,,,,20.572653360000547,None,None,0,,20.572653360000547,None,,,,,,001,2021_Oct_27_1629,TMTAB,2021.2.3,142.87490016088776,
,3,TMT-B_1_2linestimulus5.png,TMT-B_1_2greenlinestimulus5.png,TMT-B_1_2redlinestimulus5.png,10,,D,,,,,,,,,0,7,7,7,,,,,,,,,20.638896420000673,None,None,0,,20.638896420000673,None,,,,,,001,2021_Oct_27_1629,TMTAB,2021.2.3,142.87490016088776,
,1,TMT-B_1_2linestimulus6.png,TMT-B_1_2greenlinestimulus6.png,TMT-B_1_2redlinestimulus6.png,10,,5,,,,,,,,,0,8,8,8,,,,,,,,,20.697779140000783,None,None,0,,20.697779140000783,None,,,,,,001,2021_Oct_27_1629,TMTAB,2021.2.3,142.87490016088776,
,3,TMT-B_1_2linestimulus7.png,TMT-B_1_2greenlinestimulus7.png,TMT-B_1_2redlinestimulus7.png,10,,E,,,,,,,,,0,9,9,9,,,,,,,,,20.76402220000091,None,None,0,,20.76402220000091,None,,,,,,001,2021_Oct_27_1629,TMTAB,2021.2.3,142.87490016088776,
,1,TMT-B_1_2linestimulus8.png,TMT-B_1_2greenlinestimulus8.png,TMT-B_1_2redlinestimulus8.png,10,,6,,,,,,,,,0,10,10,10,,,,,,,,,20.83026526000103,None,None,0,,20.83026526000103,None,,,,,,001,2021_Oct_27_1629,TMTAB,2021.2.3,142.87490016088776,
,2,TMT-B_1_2linestimulus9.png,TMT-B_1_2greenlinestimulus9.png,TMT-B_1_2redlinestimulus9.png,10,,F,,,,,,,,,0,11,11,11,,,,,,,,,20.88914798000114,None,None,0,,20.88914798000114,None,,,,,,001,2021_Oct_27_1629,TMTAB,2021.2.3,142.87490016088776,
,None,None,TMT-B_1_2greenlinestimulus10.png,TMT-B_1_2redlinestimulus10.png,1,,None,,,,,,,,,0,12,12,12,,,,,,,,,20.955391040001267,None,None,1,,20.955391040001267,None,,,,,,001,2021_Oct_27_1629,TMTAB,2021.2.3,142.87490016088776,
,2,TMT-BX_1_2.png,TMT-BX_1_2.png,TMT-BX_1_2.png,,7,,,,,,,,,,,,,,0,0,0,0,,,,,24.03174829999989,None,None,0,,24.03174829999989,None,20.976055999999517,None,,,,001,2021_Oct_27_1629,TMTAB,2021.2.3,142.87490016088776,
,3,TMT-BX_1_2.png,TMT-BX_1_2firstgreen.png,TMT-BX_1_2firstred.png,,G,,,,,,,,,,,,,,0,1,1,1,,,,,24.09063102,None,None,0,,24.09063102,None,,,,,,001,2021_Oct_27_1629,TMTAB,2021.2.3,142.87490016088776,
,1,TMT-BX_1_2linestimulus0.png,TMT-BX_1_2greenlinestimulus0.png,TMT-BX_1_2redlinestimulus0.png,,8,,,,,,,,,,,,,,0,2,2,2,,,,,24.156874080000122,None,None,0,,24.156874080000122,None,,,,,,001,2021_Oct_27_1629,TMTAB,2021.2.3,142.87490016088776,
,3,TMT-BX_1_2linestimulus1.png,TMT-BX_1_2greenlinestimulus1.png,TMT-BX_1_2redlinestimulus1.png,,H,,,,,,,,,,,,,,0,3,3,3,,,,,24.223117140000248,None,None,0,,24.223117140000248,None,,,,,,001,2021_Oct_27_1629,TMTAB,2021.2.3,142.87490016088776,
,2,TMT-BX_1_2linestimulus2.png,TMT-BX_1_2greenlinestimulus2.png,TMT-BX_1_2redlinestimulus2.png,,9,,,,,,,,,,,,,,0,4,4,4,,,,,24.296720540000386,None,None,0,,24.296720540000386,None,,,,,,001,2021_Oct_27_1629,TMTAB,2021.2.3,142.87490016088776,
,1,TMT-BX_1_2linestimulus3.png,TMT-BX_1_2greenlinestimulus3.png,TMT-BX_1_2redlinestimulus3.png,,I,,,,,,,,,,,,,,0,5,5,5,,,,,24.370323940000524,None,None,0,,24.370323940000524,None,,,,,,001,2021_Oct_27_1629,TMTAB,2021.2.3,142.87490016088776,
,3,TMT-BX_1_2linestimulus4.png,TMT-BX_1_2greenlinestimulus4.png,TMT-BX_1_2redlinestimulus4.png,,10,,,,,,,,,,,,,,0,6,6,6,,,,,24.43656700000065,None,None,0,,24.43656700000065,None,,,,,,001,2021_Oct_27_1629,TMTAB,2021.2.3,142.87490016088776,
,2,TMT-BX_1_2linestimulus5.png,TMT-BX_1_2greenlinestimulus5.png,TMT-BX_1_2redlinestimulus5.png,,J,,,,,,,,,,,,,,0,7,7,7,,,,,24.502810060000773,None,None,0,,24.502810060000773,None,,,,,,001,2021_Oct_27_1629,TMTAB,2021.2.3,142.87490016088776,
,3,TMT-BX_1_2linestimulus6.png,TMT-BX_1_2greenlinestimulus6.png,TMT-BX_1_2redlinestimulus6.png,,11,,,,,,,,,,,,,,0,8,8,8,,,,,24.5690531200009,None,None,0,,24.5690531200009,None,,,,,,001,2021_Oct_27_1629,TMTAB,2021.2.3,142.87490016088776,
,2,TMT-BX_1_2linestimulus7.png,TMT-BX_1_2greenlinestimulus7.png,TMT-BX_1_2redlinestimulus7.png,,K,,,,,,,,,,,,,,0,9,9,9,,,,,24.627935840001008,None,None,0,,24.627935840001008,None,,,,,,001,2021_Oct_27_1629,TMTAB,2021.2.3,142.87490016088776,
,3,TMT-BX_1_2linestimulus8.png,TMT-BX_1_2greenlinestimulus8.png,TMT-BX_1_2redlinestimulus8.png,,12,,,,,,,,,,,,,,0,10,10,10,,,,,24.694178900001134,None,None,0,,24.694178900001134,None,,,,,,001,2021_Oct_27_1629,TMTAB,2021.2.3,142.87490016088776,
,2,TMT-BX_1_2linestimulus9.png,TMT-BX_1_2greenlinestimulus9.png,TMT-BX_1_2redlinestimulus9.png,,L,,,,,,,,,,,,,,0,11,11,11,,,,,24.760421960001256,None,None,0,,24.760421960001256,None,,,,,,001,2021_Oct_27_1629,TMTAB,2021.2.3,142.87490016088776,
,None,None,TMT-BX_1_2greenlinestimulus10.png,TMT-BX_1_2redlinestimulus10.png,,None,,,,,,,,,,,,,,0,12,12,12,,,,,24.826665020001382,None,None,1,,24.826665020001382,None,,,,,,001,2021_Oct_27_1629,TMTAB,2021.2.3,142.87490016088776,
,,,,,,,,,,,,,,,,,,,,,,,,,,,,,,,,,,,,,24.844631399999344,None,,,,,,,
