NumberLetter,corrAns,Correct,StimFile,Correct_StimFile,False_StimFile,Version,Paper,TrialNumber_Version,Round,Block,TrialNumber_total,n,Stim.started_mean,Stim.started_raw,Stim.started_std,Stim.stopped_raw,key_resp_2.corr_mean,key_resp_2.corr_raw,key_resp_2.corr_std,key_resp_2.keys_raw,key_resp_2.rt_raw,key_resp_2.started_mean,key_resp_2.started_raw,key_resp_2.started_std,key_resp_2.stopped_raw,order
1,['3'],3,Images/TMTstop-control_1_5.png,Images/TMTstop-control_1_5.png,Images/TMTstop-control_1_5.png,TMT_Control,C5,101,3.0,3.0,101,1.0,193.01583862304688,193.01583862304688,0.0,,1.0,1.0,0.0,1,2,3,0.8532838000101037,0.9649756000144407,1.0764248999767005,193.01583862304688,193.01583862304688,0.0,,0.0
2,['2'],2,Images/TMTstop-control_1_5.png,Images/TMTstop-control_1_5firstgreen.png,Images/TMTstop-control_1_5firstred.png,TMT_Control,C5,102,None,3.0,102,1.0,194.1542205810547,194.1542205810547,0.0,,1.0,1.0,0.0,1,2,0.08548229996813461,0.11081559996819124,194.1542205810547,194.1542205810547,0.0,,1.0
3,['1'],1,Images/TMTstop-control_1_5linestimulus0.png,Images/TMTstop-control_1_5greenlinestimulus0.png,Images/TMTstop-control_1_5redlinestimulus0.png,TMT_Control,C5,103,None,3.0,103,1.0,194.3489227294922,194.3489227294922,0.0,,1.0,1.0,0.0,3,1,0.021870600001420826,0.16743449994828552,194.3489227294922,194.3489227294922,0.0,,2.0
4,['3'],3,Images/TMTstop-control_1_5linestimulus1.png,Images/TMTstop-control_1_5greenlinestimulus1.png,Images/TMTstop-control_1_5redlinestimulus1.png,TMT_Control,C5,104,None,3.0,104,1.0,194.59860229492188,194.59860229492188,0.0,,1.0,1.0,0.0,2,3,-0.04306269995868206,0.06990440003573895,194.59860229492188,194.59860229492188,0.0,,3.0
5,['1'],1,Images/TMTstop-control_1_5linestimulus2.png,Images/TMTstop-control_1_5greenlinestimulus2.png,Images/TMTstop-control_1_5redlinestimulus2.png,TMT_Control,C5,105,None,3.0,105,1.0,194.74920654296875,194.74920654296875,0.0,,1.0,1.0,0.0,1,0.07858199998736382,194.74920654296875,194.74920654296875,0.0,,4.0
6,['2'],2,Images/TMTstop-control_1_5linestimulus3.png,Images/TMTstop-control_1_5greenlinestimulus3.png,Images/TMTstop-control_1_5redlinestimulus3.png,TMT_Control,C5,106,None,3.0,106,1.0,194.8826446533203,194.8826446533203,0.0,,1.0,1.0,0.0,2,-0.03183990000979975,194.8826446533203,194.8826446533203,0.0,,5.0
7,['3'],3,Images/TMTstop-control_1_5linestimulus4.png,Images/TMTstop-control_1_5greenlinestimulus4.png,Images/TMTstop-control_1_5redlinestimulus4.png,TMT_Control,C5,107,None,3.0,107,1.0,194.93727111816406,194.93727111816406,0.0,,1.0,1.0,0.0,3,0.036182899959385395,194.93727111816406,194.93727111816406,0.0,,6.0
8,['2'],2,Images/TMTstop-control_1_5linestimulus4.png,Images/TMTstop-control_1_5greenlinestimulus5.png,Images/TMTstop-control_1_5redlinestimulus5.png,TMT_Control,C5,108,None,3.0,108,1.0,195.02748107910156,195.02748107910156,0.0,,1.0,1.0,0.0,1,2,0.1105595999979414,0.13937190000433475,195.02748107910156,195.02748107910156,0.0,,7.0
9,['1'],1,Images/TMTstop-control_1_5linestimulus6.png,Images/TMTstop-control_1_5greenlinestimulus6.png,Images/TMTstop-control_1_5redlinestimulus6.png,TMT_Control,C5,109,None,3.0,109,1.0,195.2442169189453,195.2442169189453,0.0,,1.0,1.0,0.0,3,1,0.05133909999858588,0.33023590000811964,195.2442169189453,195.2442169189453,0.0,,8.0
10,['2'],2,Images/TMTstop-control_1_5linestimulus7.png,Images/TMTstop-control_1_5greenlinestimulus7.png,Images/TMTstop-control_1_5redlinestimulus7.png,TMT_Control,C5,110,None,3.0,110,1.0,195.63726806640625,195.63726806640625,0.0,,1.0,1.0,0.0,2,0.1965461999643594,195.63726806640625,195.63726806640625,0.0,,9.0
11,['1'],1,Images/TMTstop-control_1_5linestimulus8.png,Images/TMTstop-control_1_5greenlinestimulus8.png,Images/TMTstop-control_1_5redlinestimulus8.png,TMT_Control,C5,111,None,3.0,111,1.0,195.8953094482422,195.8953094482422,0.0,,1.0,1.0,0.0,3,1,-0.03602560004219413,0.020664799958467484,195.8953094482422,195.8953094482422,0.0,,10.0
12,['3'],3,Images/TMTstop-control_1_5linestimulus9.png,Images/TMTstop-control_1_5greenlinestimulus9.png,Images/TMTstop-control_1_5redlinestimulus9.png,TMT_Control,C5,112,None,3.0,112,1.0,196.00209045410156,196.00209045410156,0.0,,1.0,1.0,0.0,3,0.048569400038104504,196.00209045410156,196.00209045410156,0.0,,11.0
13,['2'],2,Images/TMTstop-control_1_5linestimulus10.png,Images/TMTstop-control_1_5greenlinestimulus10.png,Images/TMTstop-control_1_5redlinestimulus10.png,TMT_Control,C5,113,None,3.0,113,1.0,196.1104278564453,196.1104278564453,0.0,,1.0,1.0,0.0,1,2,0.10141649999422953,0.15656420000595972,196.1104278564453,196.1104278564453,0.0,,12.0
14,['3'],3,Images/TMTstop-control_1_5linestimulus11.png,Images/TMTstop-control_1_5greenlinestimulus11.png,Images/TMTstop-control_1_5redlinestimulus11.png,TMT_Control,C5,114,None,3.0,114,1.0,196.3737335205078,196.3737335205078,0.0,,1.0,1.0,0.0,3,0.0017465000273659825,196.3737335205078,196.3737335205078,0.0,,13.0
15,['1'],1,Images/TMTstop-control_1_5linestimulus12.png,Images/TMTstop-control_1_5greenlinestimulus12.png,Images/TMTstop-control_1_5redlinestimulus12.png,TMT_Control,C5,115,None,3.0,115,1.0,196.44737243652344,196.44737243652344,0.0,,1.0,1.0,0.0,1,0.1040184999583289,196.44737243652344,196.44737243652344,0.0,,14.0
16,['2'],2,Images/TMTstop-control_1_5linestimulus13.png,Images/TMTstop-control_1_5greenlinestimulus13.png,Images/TMTstop-control_1_5redlinestimulus13.png,TMT_Control,C5,116,None,3.0,116,1.0,196.61415100097656,196.61415100097656,0.0,,1.0,1.0,0.0,2,-0.015482400020118803,196.61415100097656,196.61415100097656,0.0,,15.0
17,['3'],3,Images/TMTstop-control_1_5linestimulus14.png,Images/TMTstop-control_1_5greenlinestimulus14.png,Images/TMTstop-control_1_5redlinestimulus14.png,TMT_Control,C5,117,None,3.0,117,1.0,196.6637725830078,196.6637725830078,0.0,,1.0,1.0,0.0,3,0.05500799999572337,196.6637725830078,196.6637725830078,0.0,,16.0
18,['1'],1,Images/TMTstop-control_1_5linestimulus15.png,Images/TMTstop-control_1_5greenlinestimulus15.png,Images/TMTstop-control_1_5redlinestimulus15.png,TMT_Control,C5,118,None,3.0,118,1.0,196.78057861328125,196.78057861328125,0.0,,1.0,1.0,0.0,1,0.10716289997799322,196.78057861328125,196.78057861328125,0.0,,17.0
19,['2'],2,Images/TMTstop-control_1_5linestimulus16.png,Images/TMTstop-control_1_5greenlinestimulus16.png,Images/TMTstop-control_1_5redlinestimulus16.png,TMT_Control,C5,119,None,3.0,119,1.0,196.95443725585938,196.95443725585938,0.0,,1.0,1.0,0.0,2,-0.015414500026963651,196.95443725585938,196.95443725585938,0.0,,18.0
20,['1'],1,Images/TMTstop-control_1_5linestimulus17.png,Images/TMTstop-control_1_5greenlinestimulus17.png,Images/TMTstop-control_1_5redlinestimulus17.png,TMT_Control,C5,120,None,3.0,120,1.0,197.00424194335938,197.00424194335938,0.0,,1.0,1.0,0.0,3,1,0.04052310000406578,0.210331300040707,197.00424194335938,197.00424194335938,0.0,,19.0
21,['2'],2,Images/TMTstop-control_1_5linestimulus18.png,Images/TMTstop-control_1_5greenlinestimulus18.png,Images/TMTstop-control_1_5redlinestimulus18.png,TMT_Control,C5,121,None,3.0,121,1.0,197.29293823242188,197.29293823242188,0.0,,1.0,1.0,0.0,2,0.003474100027233362,197.29293823242188,197.29293823242188,0.0,,20.0
22,['1'],1,Images/TMTstop-control_1_5linestimulus19.png,Images/TMTstop-control_1_5greenlinestimulus19.png,Images/TMTstop-control_1_5redlinestimulus19.png,TMT_Control,C5,122,None,3.0,122,1.0,197.36668395996094,197.36668395996094,0.0,,1.0,1.0,0.0,3,1,0.03815719997510314,0.20634119998430833,197.36668395996094,197.36668395996094,0.0,,21.0
23,['3'],3,Images/TMTstop-control_1_5linestimulus20.png,Images/TMTstop-control_1_5greenlinestimulus20.png,Images/TMTstop-control_1_5redlinestimulus20.png,TMT_Control,C5,123,None,3.0,123,1.0,197.6567840576172,197.6567840576172,0.0,,1.0,1.0,0.0,2,3,-0.04838589997962117,0.08922870003152639,197.6567840576172,197.6567840576172,0.0,,22.0
24,['1'],1,Images/TMTstop-control_1_5linestimulus21.png,Images/TMTstop-control_1_5greenlinestimulus21.png,Images/TMTstop-control_1_5redlinestimulus21.png,TMT_Control,C5,124,None,3.0,124,1.0,197.8070068359375,197.8070068359375,0.0,,1.0,1.0,0.0,1,0.11385930003598332,197.8070068359375,197.8070068359375,0.0,,23.0
25,['3'],3,Images/TMTstop-control_1_5linestimulus22.png,Images/TMTstop-control_1_5greenlinestimulus22.png,Images/TMTstop-control_1_5redlinestimulus22.png,TMT_Control,C5,125,None,3.0,125,1.0,197.97377014160156,197.97377014160156,0.0,,1.0,1.0,0.0,2,3,-0.02383600000757724,0.10581160004949197,197.97377014160156,197.97377014160156,0.0,,24.0
None,None,None,Images/TMTstop-control_1_5linestimulus23.png,Images/TMTstop-control_1_5greenlinestimulus23.png,Images/TMTstop-control_1_5redlinestimulus23.png,TMT_Control,C5,Feedback_last,None,3.0,Feedback_last,1.0,198.13868713378906,198.13868713378906,0.0,,0.0,0.0,0.0,1,2,0.0981259000254795,0.12523210002109408,198.13868713378906,198.13868713378906,0.0,,25.0

extraInfo
participant,
session,001
date,2022_Dec_20_1655
expName,TMT_fmri
psychopyVersion,2021.2.3
frameRate,59.88583364190807
﻿NumberLetter,corrAns,Correct,StimFile,Correct_StimFile,False_StimFile,Version,Paper,TrialNumber_Version,Round,Block,TrialNumber_total,n,Stim.started_mean,Stim.started_raw,Stim.started_std,Stim.stopped_raw,key_resp_2.corr_mean,key_resp_2.corr_raw,key_resp_2.corr_std,key_resp_2.keys_raw,key_resp_2.rt_raw,key_resp_2.started_mean,key_resp_2.started_raw,key_resp_2.started_std,key_resp_2.stopped_raw,order
1,['3'],3,Images/TMTstop-control_1_6.png,Images/TMTstop-control_1_6.png,Images/TMTstop-control_1_6.png,TMT_Control,C6,126,None,3.0,126,1.0,202.54098510742188,202.54098510742188,0.0,,1.0,1.0,0.0,1,2,3,0.36177740001585335,0.45797810005024076,0.5296151000075042,202.54098510742188,202.54098510742188,0.0,,0.0
2,['2'],2,Images/TMTstop-control_1_6.png,Images/TMTstop-control_1_6firstgreen.png,Images/TMTstop-control_1_6firstred.png,TMT_Control,C6,127,None,3.0,127,1.0,203.15725708007812,203.15725708007812,0.0,,1.0,1.0,0.0,1,2,0.2033804000238888,0.20608849998097867,203.15725708007812,203.15725708007812,0.0,,1.0
3,['1'],1,Images/TMTstop-control_1_6linestimulus0.png,Images/TMTstop-control_1_6greenlinestimulus0.png,Images/TMTstop-control_1_6redlinestimulus0.png,TMT_Control,C6,128,None,3.0,128,1.0,203.46688842773438,203.46688842773438,0.0,,1.0,1.0,0.0,3,1,0.09424040000885725,0.48894840001594275,203.46688842773438,203.46688842773438,0.0,,2.0
4,['2'],2,Images/TMTstop-control_1_6linestimulus1.png,Images/TMTstop-control_1_6greenlinestimulus1.png,Images/TMTstop-control_1_6redlinestimulus1.png,TMT_Control,C6,129,None,3.0,129,1.0,204.04107666015625,204.04107666015625,0.0,,1.0,1.0,0.0,2,-0.03920470003504306,204.04107666015625,204.04107666015625,0.0,,3.0
5,['3'],3,Images/TMTstop-control_1_6linestimulus2.png,Images/TMTstop-control_1_6greenlinestimulus2.png,Images/TMTstop-control_1_6redlinestimulus2.png,TMT_Control,C6,130,None,3.0,130,1.0,204.09170532226562,204.09170532226562,0.0,,1.0,1.0,0.0,3,0.047422500036191195,204.09170532226562,204.09170532226562,0.0,,4.0
6,['2'],2,Images/TMTstop-control_1_6linestimulus3.png,Images/TMTstop-control_1_6greenlinestimulus3.png,Images/TMTstop-control_1_6redlinestimulus3.png,TMT_Control,C6,131,None,3.0,131,1.0,204.1917724609375,204.1917724609375,0.0,,1.0,1.0,0.0,1,2,0.10602249996736646,0.15037069999380037,204.1917724609375,204.1917724609375,0.0,,5.0
7,['1'],1,Images/TMTstop-control_1_6linestimulus4.png,Images/TMTstop-control_1_6greenlinestimulus4.png,Images/TMTstop-control_1_6redlinestimulus4.png,TMT_Control,C6,132,None,3.0,132,1.0,204.40858459472656,204.40858459472656,0.0,,1.0,1.0,0.0,3,1,0.042690299975220114,0.19110850000288337,204.40858459472656,204.40858459472656,0.0,,6.0
8,['3'],3,Images/TMTstop-control_1_6linestimulus4.png,Images/TMTstop-control_1_6greenlinestimulus5.png,Images/TMTstop-control_1_6redlinestimulus5.png,TMT_Control,C6,133,None,3.0,133,1.0,204.67185974121094,204.67185974121094,0.0,,1.0,1.0,0.0,2,3,-0.025846199947409332,0.08705480000935495,204.67185974121094,204.67185974121094,0.0,,7.0
9,['2'],2,Images/TMTstop-control_1_6linestimulus6.png,Images/TMTstop-control_1_6greenlinestimulus6.png,Images/TMTstop-control_1_6redlinestimulus6.png,TMT_Control,C6,134,None,3.0,134,1.0,204.82151794433594,204.82151794433594,0.0,,1.0,1.0,0.0,1,2,0.09334999998100102,0.13062060001539066,204.82151794433594,204.82151794433594,0.0,,8.0
10,['1'],1,Images/TMTstop-control_1_6linestimulus7.png,Images/TMTstop-control_1_6greenlinestimulus7.png,Images/TMTstop-control_1_6redlinestimulus7.png,TMT_Control,C6,135,None,3.0,135,1.0,205.0288848876953,205.0288848876953,0.0,,1.0,1.0,0.0,3,1,2,3,1,0.031056199979502708,0.20187269995221868,0.21522439998807386,0.3591855999547988,0.5109000999946147,205.0288848876953,205.0288848876953,0.0,,9.0
11,['2'],2,Images/TMTstop-control_1_6linestimulus8.png,Images/TMTstop-control_1_6greenlinestimulus8.png,Images/TMTstop-control_1_6redlinestimulus8.png,TMT_Control,C6,136,None,3.0,136,1.0,205.62277221679688,205.62277221679688,0.0,,1.0,1.0,0.0,2,-0.03363349998835474,205.62277221679688,205.62277221679688,0.0,,10.0
12,['3'],3,Images/TMTstop-control_1_6linestimulus9.png,Images/TMTstop-control_1_6greenlinestimulus9.png,Images/TMTstop-control_1_6redlinestimulus9.png,TMT_Control,C6,137,None,3.0,137,1.0,205.6737518310547,205.6737518310547,0.0,,1.0,1.0,0.0,3,0.044235699984710664,205.6737518310547,205.6737518310547,0.0,,11.0
13,['1'],1,Images/TMTstop-control_1_6linestimulus10.png,Images/TMTstop-control_1_6greenlinestimulus10.png,Images/TMTstop-control_1_6redlinestimulus10.png,TMT_Control,C6,138,None,3.0,138,1.0,205.78111267089844,205.78111267089844,0.0,,1.0,1.0,0.0,1,0.09834139997838065,205.78111267089844,205.78111267089844,0.0,,12.0
14,['3'],3,Images/TMTstop-control_1_6linestimulus11.png,Images/TMTstop-control_1_6greenlinestimulus11.png,Images/TMTstop-control_1_6redlinestimulus11.png,TMT_Control,C6,139,None,3.0,139,1.0,205.931396484375,205.931396484375,0.0,,1.0,1.0,0.0,2,3,-0.006458899995777756,0.1380633999942802,205.931396484375,205.931396484375,0.0,,13.0
15,['2'],2,Images/TMTstop-control_1_6linestimulus12.png,Images/TMTstop-control_1_6greenlinestimulus12.png,Images/TMTstop-control_1_6redlinestimulus12.png,TMT_Control,C6,140,None,3.0,140,1.0,206.12684631347656,206.12684631347656,0.0,,1.0,1.0,0.0,1,2,0.11716599995270371,0.16628639999544248,206.12684631347656,206.12684631347656,0.0,,14.0
16,['3'],3,Images/TMTstop-control_1_6linestimulus13.png,Images/TMTstop-control_1_6greenlinestimulus13.png,Images/TMTstop-control_1_6redlinestimulus13.png,TMT_Control,C6,141,None,3.0,141,1.0,206.3437957763672,206.3437957763672,0.0,,1.0,1.0,0.0,3,0.1140159000060521,206.3437957763672,206.3437957763672,0.0,,15.0
17,['1'],1,Images/TMTstop-control_1_6linestimulus14.png,Images/TMTstop-control_1_6greenlinestimulus14.png,Images/TMTstop-control_1_6redlinestimulus14.png,TMT_Control,C6,142,None,3.0,142,1.0,206.51820373535156,206.51820373535156,0.0,,1.0,1.0,0.0,1,0.0906649999669753,206.51820373535156,206.51820373535156,0.0,,16.0
18,['2'],2,Images/TMTstop-control_1_6linestimulus15.png,Images/TMTstop-control_1_6greenlinestimulus15.png,Images/TMTstop-control_1_6redlinestimulus15.png,TMT_Control,C6,143,None,3.0,143,1.0,206.67599487304688,206.67599487304688,0.0,,1.0,1.0,0.0,2,-0.04610159998992458,206.67599487304688,206.67599487304688,0.0,,17.0
19,['3'],3,Images/TMTstop-control_1_6linestimulus16.png,Images/TMTstop-control_1_6greenlinestimulus16.png,Images/TMTstop-control_1_6redlinestimulus16.png,TMT_Control,C6,144,None,3.0,144,1.0,206.72633361816406,206.72633361816406,0.0,,1.0,1.0,0.0,3,0.06766709999646991,206.72633361816406,206.72633361816406,0.0,,18.0
20,['2'],2,Images/TMTstop-control_1_6linestimulus17.png,Images/TMTstop-control_1_6greenlinestimulus17.png,Images/TMTstop-control_1_6redlinestimulus17.png,TMT_Control,C6,145,None,3.0,145,1.0,206.8431396484375,206.8431396484375,0.0,,1.0,1.0,0.0,1,2,0.11440820002462715,0.14182409999193624,206.8431396484375,206.8431396484375,0.0,,19.0
21,['1'],1,Images/TMTstop-control_1_6linestimulus18.png,Images/TMTstop-control_1_6greenlinestimulus18.png,Images/TMTstop-control_1_6redlinestimulus18.png,TMT_Control,C6,146,None,3.0,146,1.0,207.06460571289062,207.06460571289062,0.0,,1.0,1.0,0.0,3,1,0.07430740003474057,0.24436760001117364,207.06460571289062,207.06460571289062,0.0,,20.0
22,['2'],2,Images/TMTstop-control_1_6linestimulus19.png,Images/TMTstop-control_1_6greenlinestimulus19.png,Images/TMTstop-control_1_6redlinestimulus19.png,TMT_Control,C6,147,None,3.0,147,1.0,207.38360595703125,207.38360595703125,0.0,,1.0,1.0,0.0,2,-0.04144679999444634,207.38360595703125,207.38360595703125,0.0,,21.0
23,['1'],1,Images/TMTstop-control_1_6linestimulus20.png,Images/TMTstop-control_1_6greenlinestimulus20.png,Images/TMTstop-control_1_6redlinestimulus20.png,TMT_Control,C6,148,None,3.0,148,1.0,207.44113159179688,207.44113159179688,0.0,,1.0,1.0,0.0,3,1,0.05569649999961257,0.23378529999172315,207.44113159179688,207.44113159179688,0.0,,22.0
24,['2'],2,Images/TMTstop-control_1_6linestimulus21.png,Images/TMTstop-control_1_6greenlinestimulus21.png,Images/TMTstop-control_1_6redlinestimulus21.png,TMT_Control,C6,149,None,3.0,149,1.0,207.76800537109375,207.76800537109375,0.0,,1.0,1.0,0.0,2,-0.03177309996681288,207.76800537109375,207.76800537109375,0.0,,23.0
25,['3'],3,Images/TMTstop-control_1_6linestimulus22.png,Images/TMTstop-control_1_6greenlinestimulus22.png,Images/TMTstop-control_1_6redlinestimulus22.png,TMT_Control,C6,150,None,3.0,150,1.0,207.81761169433594,207.81761169433594,0.0,,1.0,1.0,0.0,3,0.012297000037506223,207.81761169433594,207.81761169433594,0.0,,24.0
None,None,None,Images/TMTstop-control_1_6linestimulus23.png,Images/TMTstop-control_1_6greenlinestimulus23.png,Images/TMTstop-control_1_6redlinestimulus23.png,TMT_Control,C6,Feedback_last,None,3.0,Feedback_last,1.0,207.89181518554688,207.89181518554688,0.0,,1.0,1.0,0.0,,'--',207.89181518554688,207.89181518554688,0.0,,25.0

extraInfo
participant,
session,001
date,2022_Dec_20_1655
expName,TMT_fmri
psychopyVersion,2021.2.3
frameRate,59.88583364190807
﻿NumberLetter,corrAns,Correct,StimFile,Correct_StimFile,False_StimFile,Version,Paper,TrialNumber_Version,Round,Block,TrialNumber_total,n,Stim.started_mean,Stim.started_raw,Stim.started_std,Stim.stopped_raw,key_resp_2.corr_mean,key_resp_2.corr_raw,key_resp_2.corr_std,key_resp_2.keys_raw,key_resp_2.rt_raw,key_resp_2.started_mean,key_resp_2.started_raw,key_resp_2.started_std,key_resp_2.stopped_raw,order
1,['1'],1,Images/TMTstop-control_1_7.png,Images/TMTstop-control_1_7.png,Images/TMTstop-control_1_7.png,TMT_Control,C7,151,None,3.0,151,1.0,212.21505737304688,212.21505737304688,0.0,,1.0,1.0,0.0,1,0.337588099995628,212.21505737304688,212.21505737304688,0.0,,0.0
2,['2'],2,Images/TMTstop-control_1_7.png,Images/TMTstop-control_1_7firstgreen.png,Images/TMTstop-control_1_7firstred.png,TMT_Control,C7,152,None,3.0,152,1.0,212.60650634765625,212.60650634765625,0.0,,1.0,1.0,0.0,2,-0.005570999986957759,212.60650634765625,212.60650634765625,0.0,,1.0
3,['3'],3,Images/TMTstop-control_1_7linestimulus0.png,Images/TMTstop-control_1_7greenlinestimulus0.png,Images/TMTstop-control_1_7redlinestimulus0.png,TMT_Control,C7,153,None,3.0,153,1.0,212.6561279296875,212.6561279296875,0.0,,1.0,1.0,0.0,3,0.0609116000123322,212.6561279296875,212.6561279296875,0.0,,2.0
4,['2'],2,Images/TMTstop-control_1_7linestimulus1.png,Images/TMTstop-control_1_7greenlinestimulus1.png,Images/TMTstop-control_1_7redlinestimulus1.png,TMT_Control,C7,154,None,3.0,154,1.0,212.77284240722656,212.77284240722656,0.0,,1.0,1.0,0.0,1,2,0.1181057000067085,0.15354039997328073,212.77284240722656,212.77284240722656,0.0,,3.0
5,['3'],3,Images/TMTstop-control_1_7linestimulus2.png,Images/TMTstop-control_1_7greenlinestimulus2.png,Images/TMTstop-control_1_7redlinestimulus2.png,TMT_Control,C7,155,None,3.0,155,1.0,212.99789428710938,212.99789428710938,0.0,,1.0,1.0,0.0,3,0.05007820000173524,212.99789428710938,212.99789428710938,0.0,,4.0
6,['1'],1,Images/TMTstop-control_1_7linestimulus3.png,Images/TMTstop-control_1_7greenlinestimulus3.png,Images/TMTstop-control_1_7redlinestimulus3.png,TMT_Control,C7,156,None,3.0,156,1.0,213.09803771972656,213.09803771972656,0.0,,1.0,1.0,0.0,1,0.12183699995512143,213.09803771972656,213.09803771972656,0.0,,5.0
7,['3'],3,Images/TMTstop-control_1_7linestimulus4.png,Images/TMTstop-control_1_7greenlinestimulus4.png,Images/TMTstop-control_1_7redlinestimulus4.png,TMT_Control,C7,157,None,3.0,157,1.0,213.28958129882812,213.28958129882812,0.0,,1.0,1.0,0.0,2,3,-0.029516999959014356,0.08426070003770292,213.28958129882812,213.28958129882812,0.0,,6.0
8,['2'],2,Images/TMTstop-control_1_7linestimulus4.png,Images/TMTstop-control_1_7greenlinestimulus5.png,Images/TMTstop-control_1_7redlinestimulus5.png,TMT_Control,C7,158,None,3.0,158,1.0,213.45249938964844,213.45249938964844,0.0,,1.0,1.0,0.0,1,2,0.07151899999007583,0.11668079998344183,213.45249938964844,213.45249938964844,0.0,,7.0
9,['3'],3,Images/TMTstop-control_1_7linestimulus6.png,Images/TMTstop-control_1_7greenlinestimulus6.png,Images/TMTstop-control_1_7redlinestimulus6.png,TMT_Control,C7,159,None,3.0,159,1.0,213.6392822265625,213.6392822265625,0.0,,1.0,1.0,0.0,3,0.04334329999983311,213.6392822265625,213.6392822265625,0.0,,8.0
10,['2'],2,Images/TMTstop-control_1_7linestimulus7.png,Images/TMTstop-control_1_7greenlinestimulus7.png,Images/TMTstop-control_1_7redlinestimulus7.png,TMT_Control,C7,160,None,3.0,160,1.0,213.7390594482422,213.7390594482422,0.0,,1.0,1.0,0.0,1,2,0.12878640001872554,0.16472560004331172,213.7390594482422,213.7390594482422,0.0,,9.0
11,['1'],1,Images/TMTstop-control_1_7linestimulus8.png,Images/TMTstop-control_1_7greenlinestimulus8.png,Images/TMTstop-control_1_7redlinestimulus8.png,TMT_Control,C7,161,None,3.0,161,1.0,213.97898864746094,213.97898864746094,0.0,,1.0,1.0,0.0,3,1,0.07831879996228963,0.24500039999838918,213.97898864746094,213.97898864746094,0.0,,10.0
12,['2'],2,Images/TMTstop-control_1_7linestimulus9.png,Images/TMTstop-control_1_7greenlinestimulus9.png,Images/TMTstop-control_1_7redlinestimulus9.png,TMT_Control,C7,162,None,3.0,162,1.0,214.2991180419922,214.2991180419922,0.0,,1.0,1.0,0.0,2,-0.013598699995782226,214.2991180419922,214.2991180419922,0.0,,11.0
13,['3'],3,Images/TMTstop-control_1_7linestimulus10.png,Images/TMTstop-control_1_7greenlinestimulus10.png,Images/TMTstop-control_1_7redlinestimulus10.png,TMT_Control,C7,163,None,3.0,163,1.0,214.35243225097656,214.35243225097656,0.0,,1.0,1.0,0.0,3,0.057312300021294504,214.35243225097656,214.35243225097656,0.0,,12.0
14,['1'],1,Images/TMTstop-control_1_7linestimulus11.png,Images/TMTstop-control_1_7greenlinestimulus11.png,Images/TMTstop-control_1_7redlinestimulus11.png,TMT_Control,C7,164,None,3.0,164,1.0,214.53221130371094,214.53221130371094,0.0,,1.0,1.0,0.0,1,0.035652399994432926,214.53221130371094,214.53221130371094,0.0,,13.0
15,['2'],2,Images/TMTstop-control_1_7linestimulus12.png,Images/TMTstop-control_1_7greenlinestimulus12.png,Images/TMTstop-control_1_7redlinestimulus12.png,TMT_Control,C7,165,None,3.0,165,1.0,214.62950134277344,214.62950134277344,0.0,,1.0,1.0,0.0,2,-0.027035499981138855,214.62950134277344,214.62950134277344,0.0,,14.0
16,['3'],3,Images/TMTstop-control_1_7linestimulus13.png,Images/TMTstop-control_1_7greenlinestimulus13.png,Images/TMTstop-control_1_7redlinestimulus13.png,TMT_Control,C7,166,None,3.0,166,1.0,214.6796112060547,214.6796112060547,0.0,,1.0,1.0,0.0,3,0.05254320002859458,214.6796112060547,214.6796112060547,0.0,,15.0
17,['1'],1,Images/TMTstop-control_1_7linestimulus14.png,Images/TMTstop-control_1_7greenlinestimulus14.png,Images/TMTstop-control_1_7redlinestimulus14.png,TMT_Control,C7,167,None,3.0,167,1.0,214.79592895507812,214.79592895507812,0.0,,1.0,1.0,0.0,1,0.09959050000179559,214.79592895507812,214.79592895507812,0.0,,16.0
18,['2'],2,Images/TMTstop-control_1_7linestimulus15.png,Images/TMTstop-control_1_7greenlinestimulus15.png,Images/TMTstop-control_1_7redlinestimulus15.png,TMT_Control,C7,168,None,3.0,168,1.0,214.9464874267578,214.9464874267578,0.0,,1.0,1.0,0.0,2,0.01791830000001937,214.9464874267578,214.9464874267578,0.0,,17.0
19,['3'],3,Images/TMTstop-control_1_7linestimulus16.png,Images/TMTstop-control_1_7greenlinestimulus16.png,Images/TMTstop-control_1_7redlinestimulus16.png,TMT_Control,C7,169,None,3.0,169,1.0,215.01319885253906,215.01319885253906,0.0,,1.0,1.0,0.0,3,0.06470839999383315,215.01319885253906,215.01319885253906,0.0,,18.0
20,['2'],2,Images/TMTstop-control_1_7linestimulus17.png,Images/TMTstop-control_1_7greenlinestimulus17.png,Images/TMTstop-control_1_7redlinestimulus17.png,TMT_Control,C7,170,None,3.0,170,1.0,215.12982177734375,215.12982177734375,0.0,,1.0,1.0,0.0,1,2,0.1180690000182949,0.17701849999139085,215.12982177734375,215.12982177734375,0.0,,19.0
21,['3'],3,Images/TMTstop-control_1_7linestimulus18.png,Images/TMTstop-control_1_7greenlinestimulus18.png,Images/TMTstop-control_1_7redlinestimulus18.png,TMT_Control,C7,171,None,3.0,171,1.0,215.4062957763672,215.4062957763672,0.0,,1.0,1.0,0.0,3,0.022644300013780594,215.4062957763672,215.4062957763672,0.0,,20.0
22,['2'],2,Images/TMTstop-control_1_7linestimulus19.png,Images/TMTstop-control_1_7greenlinestimulus19.png,Images/TMTstop-control_1_7redlinestimulus19.png,TMT_Control,C7,172,None,3.0,172,1.0,215.4967041015625,215.4967041015625,0.0,,1.0,1.0,0.0,1,2,0.12504750001244247,0.1949460000032559,215.4967041015625,215.4967041015625,0.0,,21.0
23,['3'],3,Images/TMTstop-control_1_7linestimulus20.png,Images/TMTstop-control_1_7greenlinestimulus20.png,Images/TMTstop-control_1_7redlinestimulus20.png,TMT_Control,C7,173,None,3.0,173,1.0,215.7850799560547,215.7850799560547,0.0,,1.0,1.0,0.0,3,0.019895999983418733,215.7850799560547,215.7850799560547,0.0,,22.0
24,['2'],2,Images/TMTstop-control_1_7linestimulus21.png,Images/TMTstop-control_1_7greenlinestimulus21.png,Images/TMTstop-control_1_7redlinestimulus21.png,TMT_Control,C7,174,None,3.0,174,1.0,215.87535095214844,215.87535095214844,0.0,,1.0,1.0,0.0,1,2,0.1336758999968879,0.16868940001586452,215.87535095214844,215.87535095214844,0.0,,23.0
25,['3'],3,Images/TMTstop-control_1_7linestimulus22.png,Images/TMTstop-control_1_7greenlinestimulus22.png,Images/TMTstop-control_1_7redlinestimulus22.png,TMT_Control,C7,175,None,3.0,175,1.0,216.10906982421875,216.10906982421875,0.0,,1.0,1.0,0.0,3,0.05903490004129708,216.10906982421875,216.10906982421875,0.0,,24.0
None,None,None,Images/TMTstop-control_1_7linestimulus23.png,Images/TMTstop-control_1_7greenlinestimulus23.png,Images/TMTstop-control_1_7redlinestimulus23.png,TMT_Control,C7,Feedback_last,None,3.0,Feedback_last,1.0,216.22592163085938,216.22592163085938,0.0,,1.0,1.0,0.0,,'--',216.22592163085938,216.22592163085938,0.0,,25.0

extraInfo
participant,
session,001
date,2022_Dec_20_1655
expName,TMT_fmri
psychopyVersion,2021.2.3
frameRate,59.88583364190807
﻿NumberLetter,corrAns,Correct,StimFile,Correct_StimFile,False_StimFile,Version,Paper,TrialNumber_Version,Round,Block,TrialNumber_total,n,Stim.started_mean,Stim.started_raw,Stim.started_std,Stim.stopped_raw,key_resp_2.corr_mean,key_resp_2.corr_raw,key_resp_2.corr_std,key_resp_2.keys_raw,key_resp_2.rt_raw,key_resp_2.started_mean,key_resp_2.started_raw,key_resp_2.started_std,key_resp_2.stopped_raw,order
1,['3'],3,Images/TMTstop-control_1_8.png,Images/TMTstop-control_1_8.png,Images/TMTstop-control_1_8.png,TMT_Control,C8,176,None,3.0,176,1.0,220.52427673339844,220.52427673339844,0.0,,1.0,1.0,0.0,1,2,3,0.3967598000308499,0.44982570002321154,0.5593280000030063,220.52427673339844,220.52427673339844,0.0,,0.0
2,['2'],2,Images/TMTstop-control_1_8.png,Images/TMTstop-control_1_8firstgreen.png,Images/TMTstop-control_1_8firstred.png,TMT_Control,C8,177,None,3.0,177,1.0,221.17002868652344,221.17002868652344,0.0,,1.0,1.0,0.0,1,2,0.09992920001968741,0.1544378999969922,221.17002868652344,221.17002868652344,0.0,,1.0
3,['3'],3,Images/TMTstop-control_1_8linestimulus0.png,Images/TMTstop-control_1_8greenlinestimulus0.png,Images/TMTstop-control_1_8redlinestimulus0.png,TMT_Control,C8,178,None,3.0,178,1.0,221.43377685546875,221.43377685546875,0.0,,1.0,1.0,0.0,3,-0.008802599972113967,221.43377685546875,221.43377685546875,0.0,,2.0
4,['2'],2,Images/TMTstop-control_1_8linestimulus1.png,Images/TMTstop-control_1_8greenlinestimulus1.png,Images/TMTstop-control_1_8redlinestimulus1.png,TMT_Control,C8,179,None,3.0,179,1.0,221.48428344726562,221.48428344726562,0.0,,1.0,1.0,0.0,1,2,0.11944580002455041,0.14773030002834275,221.48428344726562,221.48428344726562,0.0,,3.0
5,['1'],1,Images/TMTstop-control_1_8linestimulus2.png,Images/TMTstop-control_1_8greenlinestimulus2.png,Images/TMTstop-control_1_8redlinestimulus2.png,TMT_Control,C8,180,None,3.0,180,1.0,221.7179412841797,221.7179412841797,0.0,,1.0,1.0,0.0,3,1,0.03492840001126751,0.19202630000654608,221.7179412841797,221.7179412841797,0.0,,4.0
6,['2'],2,Images/TMTstop-control_1_8linestimulus3.png,Images/TMTstop-control_1_8greenlinestimulus3.png,Images/TMTstop-control_1_8redlinestimulus3.png,TMT_Control,C8,181,None,3.0,181,1.0,221.97914123535156,221.97914123535156,0.0,,1.0,1.0,0.0,2,-0.0304502000217326,221.97914123535156,221.97914123535156,0.0,,5.0
7,['1'],1,Images/TMTstop-control_1_8linestimulus4.png,Images/TMTstop-control_1_8greenlinestimulus4.png,Images/TMTstop-control_1_8redlinestimulus4.png,TMT_Control,C8,182,None,3.0,182,1.0,222.02906799316406,222.02906799316406,0.0,,1.0,1.0,0.0,3,1,0.025469899992458522,0.22974819998489693,222.02906799316406,222.02906799316406,0.0,,6.0
8,['2'],2,Images/TMTstop-control_1_8linestimulus4.png,Images/TMTstop-control_1_8greenlinestimulus5.png,Images/TMTstop-control_1_8redlinestimulus5.png,TMT_Control,C8,183,None,3.0,183,1.0,222.3294677734375,222.3294677734375,0.0,,1.0,1.0,0.0,2,-0.041423399990890175,222.3294677734375,222.3294677734375,0.0,,7.0
9,['3'],3,Images/TMTstop-control_1_8linestimulus6.png,Images/TMTstop-control_1_8greenlinestimulus6.png,Images/TMTstop-control_1_8redlinestimulus6.png,TMT_Control,C8,184,None,3.0,184,1.0,222.3795623779297,222.3795623779297,0.0,,1.0,1.0,0.0,3,0.04538339999271557,222.3795623779297,222.3795623779297,0.0,,8.0
10,['2'],2,Images/TMTstop-control_1_8linestimulus7.png,Images/TMTstop-control_1_8greenlinestimulus7.png,Images/TMTstop-control_1_8redlinestimulus7.png,TMT_Control,C8,185,None,3.0,185,1.0,222.47970581054688,222.47970581054688,0.0,,1.0,1.0,0.0,1,2,0.13245730003109202,0.15406899998197332,222.47970581054688,222.47970581054688,0.0,,9.0
11,['1'],1,Images/TMTstop-control_1_8linestimulus8.png,Images/TMTstop-control_1_8greenlinestimulus8.png,Images/TMTstop-control_1_8redlinestimulus8.png,TMT_Control,C8,186,None,3.0,186,1.0,222.71859741210938,222.71859741210938,0.0,,1.0,1.0,0.0,3,1,0.051274500030558556,0.20141630002763122,222.71859741210938,222.71859741210938,0.0,,10.0
12,['3'],3,Images/TMTstop-control_1_8linestimulus9.png,Images/TMTstop-control_1_8greenlinestimulus9.png,Images/TMTstop-control_1_8redlinestimulus9.png,TMT_Control,C8,187,None,3.0,187,1.0,222.98004150390625,222.98004150390625,0.0,,1.0,1.0,0.0,2,3,-0.010544699965976179,0.1000171999912709,222.98004150390625,222.98004150390625,0.0,,11.0
13,['1'],1,Images/TMTstop-control_1_8linestimulus10.png,Images/TMTstop-control_1_8greenlinestimulus10.png,Images/TMTstop-control_1_8redlinestimulus10.png,TMT_Control,C8,188,None,3.0,188,1.0,223.13792419433594,223.13792419433594,0.0,,1.0,1.0,0.0,1,0.1101741999736987,223.13792419433594,223.13792419433594,0.0,,12.0
14,['3'],3,Images/TMTstop-control_1_8linestimulus11.png,Images/TMTstop-control_1_8greenlinestimulus11.png,Images/TMTstop-control_1_8redlinestimulus11.png,TMT_Control,C8,189,None,3.0,189,1.0,223.30503845214844,223.30503845214844,0.0,,1.0,1.0,0.0,2,3,-0.002114900038577616,0.09612159995594993,223.30503845214844,223.30503845214844,0.0,,13.0
15,['1'],1,Images/TMTstop-control_1_8linestimulus12.png,Images/TMTstop-control_1_8greenlinestimulus12.png,Images/TMTstop-control_1_8redlinestimulus12.png,TMT_Control,C8,190,None,3.0,190,1.0,223.4654998779297,223.4654998779297,0.0,,1.0,1.0,0.0,1,0.10310329997446388,223.4654998779297,223.4654998779297,0.0,,14.0
16,['3'],3,Images/TMTstop-control_1_8linestimulus13.png,Images/TMTstop-control_1_8greenlinestimulus13.png,Images/TMTstop-control_1_8redlinestimulus13.png,TMT_Control,C8,191,None,3.0,191,1.0,223.63182067871094,223.63182067871094,0.0,,1.0,1.0,0.0,2,3,-0.023724499973468482,0.08943589997943491,223.63182067871094,223.63182067871094,0.0,,15.0
17,['1'],1,Images/TMTstop-control_1_8linestimulus14.png,Images/TMTstop-control_1_8greenlinestimulus14.png,Images/TMTstop-control_1_8redlinestimulus14.png,TMT_Control,C8,192,None,3.0,192,1.0,223.77786254882812,223.77786254882812,0.0,,1.0,1.0,0.0,1,0.11827539996011183,223.77786254882812,223.77786254882812,0.0,,16.0
18,['2'],2,Images/TMTstop-control_1_8linestimulus15.png,Images/TMTstop-control_1_8greenlinestimulus15.png,Images/TMTstop-control_1_8redlinestimulus15.png,TMT_Control,C8,193,None,3.0,193,1.0,223.94845581054688,223.94845581054688,0.0,,1.0,1.0,0.0,2,0.01696440001251176,223.94845581054688,223.94845581054688,0.0,,17.0
19,['1'],1,Images/TMTstop-control_1_8linestimulus16.png,Images/TMTstop-control_1_8greenlinestimulus16.png,Images/TMTstop-control_1_8redlinestimulus16.png,TMT_Control,C8,194,None,3.0,194,1.0,224.0147705078125,224.0147705078125,0.0,,1.0,1.0,0.0,3,1,0.08450539998011664,0.27077689999714494,224.0147705078125,224.0147705078125,0.0,,18.0
20,['3'],3,Images/TMTstop-control_1_8linestimulus17.png,Images/TMTstop-control_1_8greenlinestimulus17.png,Images/TMTstop-control_1_8redlinestimulus17.png,TMT_Control,C8,195,None,3.0,195,1.0,224.37985229492188,224.37985229492188,0.0,,1.0,1.0,0.0,2,3,-0.047816400008741766,0.07681159995263442,224.37985229492188,224.37985229492188,0.0,,19.0
21,['2'],2,Images/TMTstop-control_1_8linestimulus18.png,Images/TMTstop-control_1_8greenlinestimulus18.png,Images/TMTstop-control_1_8redlinestimulus18.png,TMT_Control,C8,196,None,3.0,196,1.0,224.5524139404297,224.5524139404297,0.0,,1.0,1.0,0.0,1,2,0.11452030000509694,0.15458450000733137,224.5524139404297,224.5524139404297,0.0,,20.0
22,['3'],3,Images/TMTstop-control_1_8linestimulus19.png,Images/TMTstop-control_1_8greenlinestimulus19.png,Images/TMTstop-control_1_8redlinestimulus19.png,TMT_Control,C8,197,None,3.0,197,1.0,224.79750061035156,224.79750061035156,0.0,,1.0,1.0,0.0,3,0.050418500031810254,224.79750061035156,224.79750061035156,0.0,,21.0
23,['1'],1,Images/TMTstop-control_1_8linestimulus20.png,Images/TMTstop-control_1_8greenlinestimulus20.png,Images/TMTstop-control_1_8redlinestimulus20.png,TMT_Control,C8,198,None,3.0,198,1.0,224.8975372314453,224.8975372314453,0.0,,1.0,1.0,0.0,1,0.13047889998415485,224.8975372314453,224.8975372314453,0.0,,22.0
24,['2'],2,Images/TMTstop-control_1_8linestimulus21.png,Images/TMTstop-control_1_8greenlinestimulus21.png,Images/TMTstop-control_1_8redlinestimulus21.png,TMT_Control,C8,199,None,3.0,199,1.0,225.08731079101562,225.08731079101562,0.0,,1.0,1.0,0.0,2,-0.02917279995745048,225.08731079101562,225.08731079101562,0.0,,23.0
25,['3'],3,Images/TMTstop-control_1_8linestimulus22.png,Images/TMTstop-control_1_8greenlinestimulus22.png,Images/TMTstop-control_1_8redlinestimulus22.png,TMT_Control,C8,200,None,3.0,200,1.0,225.13743591308594,225.13743591308594,0.0,,1.0,1.0,0.0,3,0.056730000011157244,225.13743591308594,225.13743591308594,0.0,,24.0
None,None,None,Images/TMTstop-control_1_8linestimulus23.png,Images/TMTstop-control_1_8greenlinestimulus23.png,Images/TMTstop-control_1_8redlinestimulus23.png,TMT_Control,C8,Feedback_last,None,3.0,Feedback_last,1.0,225.25369262695312,225.25369262695312,0.0,,0.0,0.0,0.0,1,2,3,0.10220169997774065,0.15535879996605217,0.2663063999498263,225.25369262695312,225.25369262695312,0.0,,25.0

extraInfo
participant,
session,001
date,2022_Dec_20_1655
expName,TMT_fmri
psychopyVersion,2021.2.3
frameRate,59.88583364190807
