NumberLetter,corrAns,Correct,StimFile,Correct_StimFile,False_StimFile,Version,Block,TrialNumber_session,n,Stim.started_mean,Stim.started_raw,Stim.started_std,Stim.stopped_raw,key_resp_2.corr_mean,key_resp_2.corr_raw,key_resp_2.corr_std,key_resp_2.keys_raw,key_resp_2.rt_raw,key_resp_2.started_mean,key_resp_2.started_raw,key_resp_2.started_std,key_resp_2.stopped_raw,order
1,['2'],2,TMTstop-control_1_1.png,TMTstop-control_1_1.png,TMTstop-control_1_1.png,TMT-Control,1,1,1.0,12.88886547088623,12.88886547088623,0.0,,1.0,1.0,0.0,2,0.561692199902609,12.88886547088623,12.88886547088623,0.0,,0.0
2,['1'],1,TMTstop-control_1_1.png,TMTstop-control_1_1firstgreen.png,TMTstop-control_1_1firstred.png,TMT-Control,1,2,1.0,13.541193962097168,13.541193962097168,0.0,,1.0,1.0,0.0,3,1,0.20042099989950657,0.3730010997969657,13.541193962097168,13.541193962097168,0.0,,1.0
3,['2'],2,TMTstop-control_1_1linestimulus0.png,TMTstop-control_1_1greenlinestimulus0.png,TMTstop-control_1_1redlinestimulus0.png,TMT-Control,1,3,1.0,14.019381523132324,14.019381523132324,0.0,,1.0,1.0,0.0,2,-0.060791099909693,14.019381523132324,14.019381523132324,0.0,,2.0
4,['3'],3,TMTstop-control_1_1linestimulus1.png,TMTstop-control_1_1greenlinestimulus1.png,TMTstop-control_1_1redlinestimulus1.png,TMT-Control,1,4,1.0,14.089122772216797,14.089122772216797,0.0,,1.0,1.0,0.0,3,0.001851400127634406,14.089122772216797,14.089122772216797,0.0,,3.0
5,['2'],2,TMTstop-control_1_1linestimulus2.png,TMTstop-control_1_1greenlinestimulus2.png,TMTstop-control_1_1redlinestimulus2.png,TMT-Control,1,5,1.0,14.183324813842773,14.183324813842773,0.0,,1.0,1.0,0.0,1,2,0.04882939998060465,0.12296609999611974,14.183324813842773,14.183324813842773,0.0,,4.0
6,['1'],1,TMTstop-control_1_1linestimulus3.png,TMTstop-control_1_1greenlinestimulus3.png,TMTstop-control_1_1redlinestimulus3.png,TMT-Control,1,6,1.0,14.394536018371582,14.394536018371582,0.0,,1.0,1.0,0.0,3,1,-0.007550799986347556,0.1308067999780178,14.394536018371582,14.394536018371582,0.0,,5.0
7,['3'],3,TMTstop-control_1_1linestimulus4.png,TMTstop-control_1_1greenlinestimulus4.png,TMTstop-control_1_1redlinestimulus4.png,TMT-Control,1,7,1.0,14.64111042022705,14.64111042022705,0.0,,1.0,1.0,0.0,2,3,-0.03760589985176921,0.057368700159713626,14.64111042022705,14.64111042022705,0.0,,6.0
8,['2'],2,TMTstop-control_1_1linestimulus4.png,TMTstop-control_1_1greenlinestimulus5.png,TMTstop-control_1_1redlinestimulus5.png,TMT-Control,1,8,1.0,14.798026084899902,14.798026084899902,0.0,,1.0,1.0,0.0,1,2,0.06692879996262491,0.1291197999380529,14.798026084899902,14.798026084899902,0.0,,7.0
9,['3'],3,TMTstop-control_1_1linestimulus6.png,TMTstop-control_1_1greenlinestimulus6.png,TMTstop-control_1_1redlinestimulus6.png,TMT-Control,1,9,1.0,15.021235466003418,15.021235466003418,0.0,,1.0,1.0,0.0,3,0.004019899992272258,15.021235466003418,15.021235466003418,0.0,,8.0
10,['2'],2,TMTstop-control_1_1linestimulus7.png,TMTstop-control_1_1greenlinestimulus7.png,TMTstop-control_1_1redlinestimulus7.png,TMT-Control,1,10,1.0,15.1033935546875,15.1033935546875,0.0,,1.0,1.0,0.0,1,2,0.07443910022266209,0.12764489999972284,15.1033935546875,15.1033935546875,0.0,,9.0
11,['3'],3,TMTstop-control_1_1linestimulus8.png,TMTstop-control_1_1greenlinestimulus8.png,TMTstop-control_1_1redlinestimulus8.png,TMT-Control,1,11,1.0,15.345693588256836,15.345693588256836,0.0,,1.0,1.0,0.0,3,-0.017943000188097358,15.345693588256836,15.345693588256836,0.0,,10.0
12,['1'],1,TMTstop-control_1_1linestimulus9.png,TMTstop-control_1_1greenlinestimulus9.png,TMTstop-control_1_1redlinestimulus9.png,TMT-Control,1,12,1.0,15.41519832611084,15.41519832611084,0.0,,1.0,1.0,0.0,1,0.05313549982383847,15.41519832611084,15.41519832611084,0.0,,11.0
13,['3'],3,TMTstop-control_1_1linestimulus10.png,TMTstop-control_1_1greenlinestimulus10.png,TMTstop-control_1_1redlinestimulus10.png,TMT-Control,1,13,1.0,15.548432350158691,15.548432350158691,0.0,,1.0,1.0,0.0,2,3,0.013700600014999509,0.06063419999554753,15.548432350158691,15.548432350158691,0.0,,12.0
14,['1'],1,TMTstop-control_1_1linestimulus11.png,TMTstop-control_1_1greenlinestimulus11.png,TMTstop-control_1_1redlinestimulus11.png,TMT-Control,1,14,1.0,15.68629264831543,15.68629264831543,0.0,,1.0,1.0,0.0,1,0.09213850018568337,15.68629264831543,15.68629264831543,0.0,,13.0
15,['3'],3,TMTstop-control_1_1linestimulus12.png,TMTstop-control_1_1greenlinestimulus12.png,TMTstop-control_1_1redlinestimulus12.png,TMT-Control,1,15,1.0,15.866878509521484,15.866878509521484,0.0,,1.0,1.0,0.0,2,3,-0.06412829994224012,0.051794399973005056,15.866878509521484,15.866878509521484,0.0,,14.0
16,['1'],1,TMTstop-control_1_1linestimulus13.png,TMTstop-control_1_1greenlinestimulus13.png,TMTstop-control_1_1redlinestimulus13.png,TMT-Control,1,16,1.0,16.027360916137695,16.027360916137695,0.0,,1.0,1.0,0.0,1,0.03530539991334081,16.027360916137695,16.027360916137695,0.0,,15.0
17,['2'],2,TMTstop-control_1_1linestimulus14.png,TMTstop-control_1_1greenlinestimulus14.png,TMTstop-control_1_1redlinestimulus14.png,TMT-Control,1,17,1.0,16.137781143188477,16.137781143188477,0.0,,1.0,1.0,0.0,2,-0.012339300010353327,16.137781143188477,16.137781143188477,0.0,,16.0
18,['1'],1,TMTstop-control_1_1linestimulus15.png,TMTstop-control_1_1greenlinestimulus15.png,TMTstop-control_1_1redlinestimulus15.png,TMT-Control,1,18,1.0,16.21359634399414,16.21359634399414,0.0,,1.0,1.0,0.0,3,1,-0.011643899837508798,0.13914520014077425,16.21359634399414,16.21359634399414,0.0,,17.0
19,['3'],3,TMTstop-control_1_1linestimulus16.png,TMTstop-control_1_1greenlinestimulus16.png,TMTstop-control_1_1redlinestimulus16.png,TMT-Control,1,19,1.0,16.449934005737305,16.449934005737305,0.0,,1.0,1.0,0.0,2,3,-0.05952690006233752,0.02863299986347556,16.449934005737305,16.449934005737305,0.0,,18.0
20,['1'],1,TMTstop-control_1_1linestimulus17.png,TMTstop-control_1_1greenlinestimulus17.png,TMTstop-control_1_1redlinestimulus17.png,TMT-Control,1,20,1.0,16.561559677124023,16.561559677124023,0.0,,1.0,1.0,0.0,1,0.05842699995264411,16.561559677124023,16.561559677124023,0.0,,19.0
21,['3'],3,TMTstop-control_1_1linestimulus18.png,TMTstop-control_1_1greenlinestimulus18.png,TMTstop-control_1_1redlinestimulus18.png,TMT-Control,1,21,1.0,16.70453453063965,16.70453453063965,0.0,,1.0,1.0,0.0,2,3,-0.030255499994382262,0.051578700076788664,16.70453453063965,16.70453453063965,0.0,,20.0
22,['1'],1,TMTstop-control_1_1linestimulus19.png,TMTstop-control_1_1greenlinestimulus19.png,TMTstop-control_1_1redlinestimulus19.png,TMT-Control,1,22,1.0,16.866392135620117,16.866392135620117,0.0,,1.0,1.0,0.0,1,0.023109500063583255,16.866392135620117,16.866392135620117,0.0,,21.0
23,['3'],3,TMTstop-control_1_1linestimulus20.png,TMTstop-control_1_1greenlinestimulus20.png,TMTstop-control_1_1redlinestimulus20.png,TMT-Control,1,23,1.0,16.964624404907227,16.964624404907227,0.0,,1.0,1.0,0.0,2,3,-0.014047600096091628,0.0650885000359267,16.964624404907227,16.964624404907227,0.0,,22.0
24,['1'],1,TMTstop-control_1_1linestimulus21.png,TMTstop-control_1_1greenlinestimulus21.png,TMTstop-control_1_1redlinestimulus21.png,TMT-Control,1,24,1.0,17.117332458496094,17.117332458496094,0.0,,1.0,1.0,0.0,1,0.05011449987068772,17.117332458496094,17.117332458496094,0.0,,23.0
25,['3'],3,TMTstop-control_1_1linestimulus22.png,TMTstop-control_1_1greenlinestimulus22.png,TMTstop-control_1_1redlinestimulus22.png,TMT-Control,1,25,1.0,17.24847984313965,17.24847984313965,0.0,,1.0,1.0,0.0,2,3,-0.024433900136500597,0.07192289992235601,17.24847984313965,17.24847984313965,0.0,,24.0
None,None,None,TMTstop-control_1_1linestimulus23.png,TMTstop-control_1_1greenlinestimulus23.png,TMTstop-control_1_1redlinestimulus23.png,TMT-Control,1,Feedback_last,1.0,17.401268005371094,17.401268005371094,0.0,,0.0,0.0,0.0,2,1,0.01653459994122386,0.07080659992061555,17.401268005371094,17.401268005371094,0.0,,25.0

extraInfo
participant,
session,001
date,2022_Feb_02_1742
expName,TMT_fmri
psychopyVersion,2021.2.3
frameRate,None
