NumberLetter,corrAns,Correct,StimFile,Correct_StimFile,False_StimFile,Version,Paper,TrialNumber_Version,Round,Block,n,Stim.started_mean,Stim.started_raw,Stim.started_std,Stim.stopped_raw,key_resp_2.corr_mean,key_resp_2.corr_raw,key_resp_2.corr_std,key_resp_2.keys_raw,key_resp_2.rt_raw,key_resp_2.started_mean,key_resp_2.started_raw,key_resp_2.started_std,key_resp_2.stopped_raw,order
1,['2'],2,TMTstop-control_1_1.png,TMTstop-control_1_1.png,TMTstop-control_1_1.png,TMT_Control,C1,1,1,1,1.0,36.0938720703125,36.0938720703125,0.0,,1.0,1.0,0.0,3,1,2,8.420741499998257,8.473749799988582,8.486809800000628,36.0938720703125,36.0938720703125,0.0,,0.0
2,['1'],1,TMTstop-control_1_1.png,TMTstop-control_1_1firstgreen.png,TMTstop-control_1_1firstred.png,TMT_Control,C1,2,None,1,1.0,44.657325744628906,44.657325744628906,0.0,,1.0,1.0,0.0,2,1,0.11129390000132844,0.19906680000713095,44.657325744628906,44.657325744628906,0.0,,1.0
3,['3'],3,TMTstop-control_1_1linestimulus0.png,TMTstop-control_1_1greenlinestimulus0.png,TMTstop-control_1_1redlinestimulus0.png,TMT_Control,C1,3,None,1,1.0,44.93140411376953,44.93140411376953,0.0,,1.0,1.0,0.0,3,0.051879300008295104,44.93140411376953,44.93140411376953,0.0,,2.0
4,['1'],1,TMTstop-control_1_1linestimulus1.png,TMTstop-control_1_1greenlinestimulus1.png,TMTstop-control_1_1redlinestimulus1.png,TMT_Control,C1,4,None,1,1.0,45.04008483886719,45.04008483886719,0.0,,1.0,1.0,0.0,2,1,-0.007603299993206747,0.0685280000034254,45.04008483886719,45.04008483886719,0.0,,3.0
5,['3'],3,TMTstop-control_1_1linestimulus2.png,TMTstop-control_1_1greenlinestimulus2.png,TMTstop-control_1_1redlinestimulus2.png,TMT_Control,C1,5,None,1,1.0,45.19505310058594,45.19505310058594,0.0,,1.0,1.0,0.0,3,0.05835819999629166,45.19505310058594,45.19505310058594,0.0,,4.0
6,['1'],1,TMTstop-control_1_1linestimulus3.png,TMTstop-control_1_1greenlinestimulus3.png,TMTstop-control_1_1redlinestimulus3.png,TMT_Control,C1,6,None,1,1.0,45.3117561340332,45.3117561340332,0.0,,1.0,1.0,0.0,2,1,-0.020965000003343448,3.85174630000256,45.3117561340332,45.3117561340332,0.0,,5.0
7,['2'],2,TMTstop-control_1_1linestimulus4.png,TMTstop-control_1_1greenlinestimulus4.png,TMTstop-control_1_1redlinestimulus4.png,TMT_Control,C1,7,None,1,1.0,49.22230911254883,49.22230911254883,0.0,,1.0,1.0,0.0,1,3,2,1.1762862000032328,1.35800670000026,1.3943355000083102,49.22230911254883,49.22230911254883,0.0,,6.0
8,['1'],1,TMTstop-control_1_1linestimulus4.png,TMTstop-control_1_1greenlinestimulus5.png,TMTstop-control_1_1redlinestimulus5.png,TMT_Control,C1,8,None,1,1.0,50.708160400390625,50.708160400390625,0.0,,1.0,1.0,0.0,1,-0.0029107000009389594,50.708160400390625,50.708160400390625,0.0,,7.0
9,['3'],3,TMTstop-control_1_1linestimulus6.png,TMTstop-control_1_1greenlinestimulus6.png,TMTstop-control_1_1redlinestimulus6.png,TMT_Control,C1,9,None,1,1.0,50.75844955444336,50.75844955444336,0.0,,1.0,1.0,0.0,3,0.10199899999133777,50.75844955444336,50.75844955444336,0.0,,8.0
10,['2'],2,TMTstop-control_1_1linestimulus7.png,TMTstop-control_1_1greenlinestimulus7.png,TMTstop-control_1_1redlinestimulus7.png,TMT_Control,C1,10,None,1,1.0,50.92504119873047,50.92504119873047,0.0,,1.0,1.0,0.0,2,-0.03982459999679122,50.92504119873047,50.92504119873047,0.0,,9.0
11,['1'],1,TMTstop-control_1_1linestimulus8.png,TMTstop-control_1_1greenlinestimulus8.png,TMTstop-control_1_1redlinestimulus8.png,TMT_Control,C1,11,None,1,1.0,50.975372314453125,50.975372314453125,0.0,,1.0,1.0,0.0,1,0.010256199995637871,50.975372314453125,50.975372314453125,0.0,,10.0
12,['2'],2,TMTstop-control_1_1linestimulus9.png,TMTstop-control_1_1greenlinestimulus9.png,TMTstop-control_1_1redlinestimulus9.png,TMT_Control,C1,12,None,1,1.0,51.058712005615234,51.058712005615234,0.0,,1.0,1.0,0.0,3,2,0.06902159999299329,0.10972019999462646,51.058712005615234,51.058712005615234,0.0,,11.0
13,['3'],3,TMTstop-control_1_1linestimulus10.png,TMTstop-control_1_1greenlinestimulus10.png,TMTstop-control_1_1redlinestimulus10.png,TMT_Control,C1,13,None,1,1.0,51.242435455322266,51.242435455322266,0.0,,1.0,1.0,0.0,1,3,2,1,3,0.009091700005228631,0.15057019999949262,0.18183900001167785,0.2669031000114046,0.4313399000093341,51.242435455322266,51.242435455322266,0.0,,12.0
14,['2'],2,TMTstop-control_1_1linestimulus11.png,TMTstop-control_1_1greenlinestimulus11.png,TMTstop-control_1_1redlinestimulus11.png,TMT_Control,C1,14,None,1,1.0,51.79850387573242,51.79850387573242,0.0,,1.0,1.0,0.0,2,-0.07069079999928363,51.79850387573242,51.79850387573242,0.0,,13.0
15,['3'],3,TMTstop-control_1_1linestimulus12.png,TMTstop-control_1_1greenlinestimulus12.png,TMTstop-control_1_1redlinestimulus12.png,TMT_Control,C1,15,None,1,1.0,51.85332489013672,51.85332489013672,0.0,,1.0,1.0,0.0,1,3,-0.04499209999630693,0.1452807000023313,51.85332489013672,51.85332489013672,0.0,,14.0
16,['2'],2,TMTstop-control_1_1linestimulus13.png,TMTstop-control_1_1greenlinestimulus13.png,TMTstop-control_1_1redlinestimulus13.png,TMT_Control,C1,16,None,1,1.0,52.07767868041992,52.07767868041992,0.0,,1.0,1.0,0.0,2,-0.049164000010932796,52.07767868041992,52.07767868041992,0.0,,15.0
17,['3'],3,TMTstop-control_1_1linestimulus14.png,TMTstop-control_1_1greenlinestimulus14.png,TMTstop-control_1_1redlinestimulus14.png,TMT_Control,C1,17,None,1,1.0,52.1317024230957,52.1317024230957,0.0,,1.0,1.0,0.0,1,3,2,1,3,-0.010246899997582659,0.2187110999948345,0.244564900000114,0.33868909999728203,0.5334582000068622,52.1317024230957,52.1317024230957,0.0,,16.0
18,['2'],2,TMTstop-control_1_1linestimulus15.png,TMTstop-control_1_1greenlinestimulus15.png,TMTstop-control_1_1redlinestimulus15.png,TMT_Control,C1,18,None,1,1.0,52.71980285644531,52.71980285644531,0.0,,1.0,1.0,0.0,2,-0.03041819999634754,52.71980285644531,52.71980285644531,0.0,,17.0
19,['1'],1,TMTstop-control_1_1linestimulus16.png,TMTstop-control_1_1greenlinestimulus16.png,TMTstop-control_1_1redlinestimulus16.png,TMT_Control,C1,19,None,1,1.0,52.77214431762695,52.77214431762695,0.0,,1.0,1.0,0.0,1,0.013094699999783188,52.77214431762695,52.77214431762695,0.0,,18.0
20,['3'],3,TMTstop-control_1_1linestimulus17.png,TMTstop-control_1_1greenlinestimulus17.png,TMTstop-control_1_1redlinestimulus17.png,TMT_Control,C1,20,None,1,1.0,52.8553352355957,52.8553352355957,0.0,,1.0,1.0,0.0,3,0.08183049999934155,52.8553352355957,52.8553352355957,0.0,,19.0
21,['1'],1,TMTstop-control_1_1linestimulus18.png,TMTstop-control_1_1greenlinestimulus18.png,TMTstop-control_1_1redlinestimulus18.png,TMT_Control,C1,21,None,1,1.0,52.98950958251953,52.98950958251953,0.0,,1.0,1.0,0.0,2,1,-0.027924000009079464,0.09602159999485593,52.98950958251953,52.98950958251953,0.0,,20.0
22,['2'],2,TMTstop-control_1_1linestimulus19.png,TMTstop-control_1_1greenlinestimulus19.png,TMTstop-control_1_1redlinestimulus19.png,TMT_Control,C1,22,None,1,1.0,53.13973617553711,53.13973617553711,0.0,,1.0,1.0,0.0,3,2,0.10375300000305288,0.13268409999727737,53.13973617553711,53.13973617553711,0.0,,21.0
23,['3'],3,TMTstop-control_1_1linestimulus20.png,TMTstop-control_1_1greenlinestimulus20.png,TMTstop-control_1_1redlinestimulus20.png,TMT_Control,C1,23,None,1,1.0,53.356689453125,53.356689453125,0.0,,1.0,1.0,0.0,1,3,0.02130780000879895,0.15505210000264924,53.356689453125,53.356689453125,0.0,,22.0
24,['2'],2,TMTstop-control_1_1linestimulus21.png,TMTstop-control_1_1greenlinestimulus21.png,TMTstop-control_1_1redlinestimulus21.png,TMT_Control,C1,24,None,1,1.0,53.594146728515625,53.594146728515625,0.0,,1.0,1.0,0.0,2,-0.010448000000906177,53.594146728515625,53.594146728515625,0.0,,23.0
25,['1'],1,TMTstop-control_1_1linestimulus22.png,TMTstop-control_1_1greenlinestimulus22.png,TMTstop-control_1_1redlinestimulus22.png,TMT_Control,C1,25,None,1,1.0,53.6441650390625,53.6441650390625,0.0,,1.0,1.0,0.0,1,0.007346500002313405,53.6441650390625,53.6441650390625,0.0,,24.0
None,None,None,TMTstop-control_1_1linestimulus23.png,TMTstop-control_1_1greenlinestimulus23.png,TMTstop-control_1_1redlinestimulus23.png,TMT_Control,C1,Feedback_last,None,1,1.0,53.71772766113281,53.71772766113281,0.0,,0.0,0.0,0.0,3,2,0.09825999999884516,0.12909760000184178,53.71772766113281,53.71772766113281,0.0,,25.0

extraInfo
participant,
session,001
date,2022_Nov_18_0015
expName,TMT_fmri
psychopyVersion,2021.2.3
frameRate,59.9428025783916
﻿NumberLetter,corrAns,Correct,StimFile,Correct_StimFile,False_StimFile,Version,Paper,TrialNumber_Version,Round,Block,n,Stim.started_mean,Stim.started_raw,Stim.started_std,Stim.stopped_raw,key_resp_2.corr_mean,key_resp_2.corr_raw,key_resp_2.corr_std,key_resp_2.keys_raw,key_resp_2.rt_raw,key_resp_2.started_mean,key_resp_2.started_raw,key_resp_2.started_std,key_resp_2.stopped_raw,order
1,['2'],2,TMTstop-control_1_2.png,TMTstop-control_1_2.png,TMTstop-control_1_2.png,TMT_Control,C2,26,None,1,1.0,57.98808288574219,57.98808288574219,0.0,,1.0,1.0,0.0,1,3,2,0.6764129999937722,0.8444683999987319,0.9075575000024401,57.98808288574219,57.98808288574219,0.0,,0.0
2,['3'],3,TMTstop-control_1_2.png,TMTstop-control_1_2firstgreen.png,TMTstop-control_1_2firstred.png,TMT_Control,C2,27,None,1,1.0,58.97385025024414,58.97385025024414,0.0,,1.0,1.0,0.0,1,3,2,1,3,0.0006796000088797882,0.1790002000052482,0.2075539000070421,0.28966009999567177,0.44705380000232253,58.97385025024414,58.97385025024414,0.0,,1.0
3,['2'],2,TMTstop-control_1_2linestimulus0.png,TMTstop-control_1_2greenlinestimulus0.png,TMTstop-control_1_2redlinestimulus0.png,TMT_Control,C2,28,None,1,1.0,59.48466873168945,59.48466873168945,0.0,,1.0,1.0,0.0,2,0.0057649000082165,59.48466873168945,59.48466873168945,0.0,,2.0
4,['3'],3,TMTstop-control_1_2linestimulus1.png,TMTstop-control_1_2greenlinestimulus1.png,TMTstop-control_1_2redlinestimulus1.png,TMT_Control,C2,29,None,1,1.0,59.568092346191406,59.568092346191406,0.0,,0.0,0.0,0.0,1,-0.022628099992289208,59.568092346191406,59.568092346191406,0.0,,3.0
5,['2'],2,TMTstop-control_1_2linestimulus2.png,TMTstop-control_1_2greenlinestimulus2.png,TMTstop-control_1_2redlinestimulus2.png,TMT_Control,C2,30,None,1,0.0,,,,'--',,,,'--','--',,,,'--',
6,['3'],3,TMTstop-control_1_2linestimulus3.png,TMTstop-control_1_2greenlinestimulus3.png,TMTstop-control_1_2redlinestimulus3.png,TMT_Control,C2,31,None,1,0.0,,,,'--',,,,'--','--',,,,'--',
7,['2'],2,TMTstop-control_1_2linestimulus4.png,TMTstop-control_1_2greenlinestimulus4.png,TMTstop-control_1_2redlinestimulus4.png,TMT_Control,C2,32,None,1,0.0,,,,'--',,,,'--','--',,,,'--',
8,['1'],1,TMTstop-control_1_2linestimulus4.png,TMTstop-control_1_2greenlinestimulus5.png,TMTstop-control_1_2redlinestimulus5.png,TMT_Control,C2,33,None,1,0.0,,,,'--',,,,'--','--',,,,'--',
9,['3'],3,TMTstop-control_1_2linestimulus6.png,TMTstop-control_1_2greenlinestimulus6.png,TMTstop-control_1_2redlinestimulus6.png,TMT_Control,C2,34,None,1,0.0,,,,'--',,,,'--','--',,,,'--',
10,['2'],2,TMTstop-control_1_2linestimulus7.png,TMTstop-control_1_2greenlinestimulus7.png,TMTstop-control_1_2redlinestimulus7.png,TMT_Control,C2,35,None,1,0.0,,,,'--',,,,'--','--',,,,'--',
11,['3'],3,TMTstop-control_1_2linestimulus8.png,TMTstop-control_1_2greenlinestimulus8.png,TMTstop-control_1_2redlinestimulus8.png,TMT_Control,C2,36,None,1,0.0,,,,'--',,,,'--','--',,,,'--',
12,['2'],2,TMTstop-control_1_2linestimulus9.png,TMTstop-control_1_2greenlinestimulus9.png,TMTstop-control_1_2redlinestimulus9.png,TMT_Control,C2,37,None,1,0.0,,,,'--',,,,'--','--',,,,'--',
13,['3'],3,TMTstop-control_1_2linestimulus10.png,TMTstop-control_1_2greenlinestimulus10.png,TMTstop-control_1_2redlinestimulus10.png,TMT_Control,C2,38,None,1,0.0,,,,'--',,,,'--','--',,,,'--',
14,['2'],2,TMTstop-control_1_2linestimulus11.png,TMTstop-control_1_2greenlinestimulus11.png,TMTstop-control_1_2redlinestimulus11.png,TMT_Control,C2,39,None,1,0.0,,,,'--',,,,'--','--',,,,'--',
15,['3'],3,TMTstop-control_1_2linestimulus12.png,TMTstop-control_1_2greenlinestimulus12.png,TMTstop-control_1_2redlinestimulus12.png,TMT_Control,C2,40,None,1,0.0,,,,'--',,,,'--','--',,,,'--',
16,['1'],1,TMTstop-control_1_2linestimulus13.png,TMTstop-control_1_2greenlinestimulus13.png,TMTstop-control_1_2redlinestimulus13.png,TMT_Control,C2,41,None,1,0.0,,,,'--',,,,'--','--',,,,'--',
17,['2'],2,TMTstop-control_1_2linestimulus14.png,TMTstop-control_1_2greenlinestimulus14.png,TMTstop-control_1_2redlinestimulus14.png,TMT_Control,C2,42,None,1,0.0,,,,'--',,,,'--','--',,,,'--',
18,['1'],1,TMTstop-control_1_2linestimulus15.png,TMTstop-control_1_2greenlinestimulus15.png,TMTstop-control_1_2redlinestimulus15.png,TMT_Control,C2,43,None,1,0.0,,,,'--',,,,'--','--',,,,'--',
19,['2'],2,TMTstop-control_1_2linestimulus16.png,TMTstop-control_1_2greenlinestimulus16.png,TMTstop-control_1_2redlinestimulus16.png,TMT_Control,C2,44,None,1,0.0,,,,'--',,,,'--','--',,,,'--',
20,['3'],3,TMTstop-control_1_2linestimulus17.png,TMTstop-control_1_2greenlinestimulus17.png,TMTstop-control_1_2redlinestimulus17.png,TMT_Control,C2,45,None,1,0.0,,,,'--',,,,'--','--',,,,'--',
21,['1'],1,TMTstop-control_1_2linestimulus18.png,TMTstop-control_1_2greenlinestimulus18.png,TMTstop-control_1_2redlinestimulus18.png,TMT_Control,C2,46,None,1,0.0,,,,'--',,,,'--','--',,,,'--',
22,['3'],3,TMTstop-control_1_2linestimulus19.png,TMTstop-control_1_2greenlinestimulus19.png,TMTstop-control_1_2redlinestimulus19.png,TMT_Control,C2,47,None,1,0.0,,,,'--',,,,'--','--',,,,'--',
23,['2'],2,TMTstop-control_1_2linestimulus20.png,TMTstop-control_1_2greenlinestimulus20.png,TMTstop-control_1_2redlinestimulus20.png,TMT_Control,C2,48,None,1,0.0,,,,'--',,,,'--','--',,,,'--',
24,['3'],3,TMTstop-control_1_2linestimulus21.png,TMTstop-control_1_2greenlinestimulus21.png,TMTstop-control_1_2redlinestimulus21.png,TMT_Control,C2,49,None,1,0.0,,,,'--',,,,'--','--',,,,'--',
25,['1'],1,TMTstop-control_1_2linestimulus22.png,TMTstop-control_1_2greenlinestimulus22.png,TMTstop-control_1_2redlinestimulus22.png,TMT_Control,C2,50,None,1,0.0,,,,'--',,,,'--','--',,,,'--',
None,None,None,TMTstop-control_1_2linestimulus23.png,TMTstop-control_1_2greenlinestimulus23.png,TMTstop-control_1_2redlinestimulus23.png,TMT_Control,C2,Feedback_last,None,1,0.0,,,,'--',,,,'--','--',,,,'--',

extraInfo
participant,
session,001
date,2022_Nov_18_0015
expName,TMT_fmri
psychopyVersion,2021.2.3
frameRate,59.9428025783916
