NumberLetter,corrAns,Correct,StimFile,Correct_StimFile,False_StimFile,Version,Paper,TrialNumber_Version,Round,Block,n,Stim_2.started_mean,Stim_2.started_raw,Stim_2.started_std,Stim_2.stopped_raw,key_resp_8.corr_mean,key_resp_8.corr_raw,key_resp_8.corr_std,key_resp_8.keys_raw,key_resp_8.rt_raw,key_resp_8.started_mean,key_resp_8.started_raw,key_resp_8.started_std,key_resp_8.stopped_raw,order
1,['3'],3,TMTstop-control_1_5.png,TMTstop-control_1_5.png,TMTstop-control_1_5.png,TMT_Control,5,101,2,4,1.0,186.3761444091797,186.3761444091797,0.0,,1.0,1.0,0.0,1,2,3,1,2,1,2,3,-9.225566399996751,-9.170382399999653,-9.025341900000058,-8.830953799995768,-8.790648000001966,2.286861599997792,2.348608400003286,2.46540559999994,186.3761444091797,186.3761444091797,0.0,,0.0
2,['2'],2,TMTstop-control_1_5.png,TMTstop-control_1_5firstgreen.png,TMTstop-control_1_5firstred.png,TMT_Control,5,102,None,4,1.0,188.89964294433594,188.89964294433594,0.0,,1.0,1.0,0.0,1,2,0.0743806999962544,0.12477360000048066,188.89964294433594,188.89964294433594,0.0,,1.0
3,['1'],1,TMTstop-control_1_5linestimulus0.png,TMTstop-control_1_5greenlinestimulus0.png,TMTstop-control_1_5redlinestimulus0.png,TMT_Control,5,103,None,4,1.0,189.08287048339844,189.08287048339844,0.0,,1.0,1.0,0.0,3,1,0.039196500001708046,0.17529669999930775,189.08287048339844,189.08287048339844,0.0,,2.0
4,['3'],3,TMTstop-control_1_5linestimulus1.png,TMTstop-control_1_5greenlinestimulus1.png,TMTstop-control_1_5redlinestimulus1.png,TMT_Control,5,104,None,4,1.0,189.31939697265625,189.31939697265625,0.0,,1.0,1.0,0.0,2,3,-0.005430600002000574,0.0857934000014211,189.31939697265625,189.31939697265625,0.0,,3.0
5,['1'],1,TMTstop-control_1_5linestimulus2.png,TMTstop-control_1_5greenlinestimulus2.png,TMTstop-control_1_5redlinestimulus2.png,TMT_Control,5,105,None,4,1.0,189.4755401611328,189.4755401611328,0.0,,1.0,1.0,0.0,1,0.04808290000073612,189.4755401611328,189.4755401611328,0.0,,4.0
6,['2'],2,TMTstop-control_1_5linestimulus3.png,TMTstop-control_1_5greenlinestimulus3.png,TMTstop-control_1_5redlinestimulus3.png,TMT_Control,5,106,None,4,1.0,189.57534790039062,189.57534790039062,0.0,,1.0,1.0,0.0,2,0.026098499998624902,189.57534790039062,189.57534790039062,0.0,,5.0
7,['3'],3,TMTstop-control_1_5linestimulus4.png,TMTstop-control_1_5greenlinestimulus4.png,TMTstop-control_1_5redlinestimulus4.png,TMT_Control,5,107,None,4,1.0,189.6754608154297,189.6754608154297,0.0,,1.0,1.0,0.0,3,0.014227200001187157,189.6754608154297,189.6754608154297,0.0,,6.0
8,['2'],2,TMTstop-control_1_5linestimulus4.png,TMTstop-control_1_5greenlinestimulus5.png,TMTstop-control_1_5redlinestimulus5.png,TMT_Control,5,108,None,4,1.0,189.76649475097656,189.76649475097656,0.0,,1.0,1.0,0.0,1,2,0.03727900000376394,0.08653770000091754,189.76649475097656,189.76649475097656,0.0,,7.0
9,['1'],1,TMTstop-control_1_5linestimulus6.png,TMTstop-control_1_5greenlinestimulus6.png,TMTstop-control_1_5redlinestimulus6.png,TMT_Control,5,109,None,4,1.0,189.9234619140625,189.9234619140625,0.0,,1.0,1.0,0.0,3,1,0.043706800002837554,0.19232770000235178,189.9234619140625,189.9234619140625,0.0,,8.0
10,['2'],2,TMTstop-control_1_5linestimulus7.png,TMTstop-control_1_5greenlinestimulus7.png,TMTstop-control_1_5redlinestimulus7.png,TMT_Control,5,110,None,4,1.0,190.17367553710938,190.17367553710938,0.0,,1.0,1.0,0.0,2,-0.007135199994081631,190.17367553710938,190.17367553710938,0.0,,9.0
11,['1'],1,TMTstop-control_1_5linestimulus8.png,TMTstop-control_1_5greenlinestimulus8.png,TMTstop-control_1_5redlinestimulus8.png,TMT_Control,5,111,None,4,1.0,190.22364807128906,190.22364807128906,0.0,,1.0,1.0,0.0,3,1,0.09712959999887971,0.24011310000059893,190.22364807128906,190.22364807128906,0.0,,10.0
12,['3'],3,TMTstop-control_1_5linestimulus9.png,TMTstop-control_1_5greenlinestimulus9.png,TMTstop-control_1_5redlinestimulus9.png,TMT_Control,5,112,None,4,1.0,190.52137756347656,190.52137756347656,0.0,,1.0,1.0,0.0,2,3,-0.028998699999647215,0.11614790000021458,190.52137756347656,190.52137756347656,0.0,,11.0
13,['2'],2,TMTstop-control_1_5linestimulus10.png,TMTstop-control_1_5greenlinestimulus10.png,TMTstop-control_1_5redlinestimulus10.png,TMT_Control,5,113,None,4,1.0,190.72157287597656,190.72157287597656,0.0,,1.0,1.0,0.0,1,2,0.05431939999834867,0.11401749999640742,190.72157287597656,190.72157287597656,0.0,,12.0
14,['3'],3,TMTstop-control_1_5linestimulus11.png,TMTstop-control_1_5greenlinestimulus11.png,TMTstop-control_1_5redlinestimulus11.png,TMT_Control,5,114,None,4,1.0,190.89527893066406,190.89527893066406,0.0,,1.0,1.0,0.0,3,0.0809540999980527,190.89527893066406,190.89527893066406,0.0,,13.0
15,['1'],1,TMTstop-control_1_5linestimulus12.png,TMTstop-control_1_5greenlinestimulus12.png,TMTstop-control_1_5redlinestimulus12.png,TMT_Control,5,115,None,4,1.0,191.02822875976562,191.02822875976562,0.0,,1.0,1.0,0.0,1,0.11669840000104159,191.02822875976562,191.02822875976562,0.0,,14.0
16,['2'],2,TMTstop-control_1_5linestimulus13.png,TMTstop-control_1_5greenlinestimulus13.png,TMTstop-control_1_5redlinestimulus13.png,TMT_Control,5,116,None,4,1.0,191.20338439941406,191.20338439941406,0.0,,1.0,1.0,0.0,2,-0.007298900003661402,191.20338439941406,191.20338439941406,0.0,,15.0
17,['3'],3,TMTstop-control_1_5linestimulus14.png,TMTstop-control_1_5greenlinestimulus14.png,TMTstop-control_1_5redlinestimulus14.png,TMT_Control,5,117,None,4,1.0,191.25283813476562,191.25283813476562,0.0,,1.0,1.0,0.0,3,0.11696929999743588,191.25283813476562,191.25283813476562,0.0,,16.0
18,['1'],1,TMTstop-control_1_5linestimulus15.png,TMTstop-control_1_5greenlinestimulus15.png,TMTstop-control_1_5redlinestimulus15.png,TMT_Control,5,118,None,4,1.0,191.42027282714844,191.42027282714844,0.0,,1.0,1.0,0.0,1,0.3001471000025049,191.42027282714844,191.42027282714844,0.0,,17.0
19,['2'],2,TMTstop-control_1_5linestimulus16.png,TMTstop-control_1_5greenlinestimulus16.png,TMTstop-control_1_5redlinestimulus16.png,TMT_Control,5,119,None,4,1.0,191.77850341796875,191.77850341796875,0.0,,1.0,1.0,0.0,2,0.05190070000389824,191.77850341796875,191.77850341796875,0.0,,18.0
20,['1'],1,TMTstop-control_1_5linestimulus17.png,TMTstop-control_1_5greenlinestimulus17.png,TMTstop-control_1_5redlinestimulus17.png,TMT_Control,5,120,None,4,1.0,191.90309143066406,191.90309143066406,0.0,,1.0,1.0,0.0,3,1,0.041921199997887015,0.21627199999784352,191.90309143066406,191.90309143066406,0.0,,19.0
21,['2'],2,TMTstop-control_1_5linestimulus18.png,TMTstop-control_1_5greenlinestimulus18.png,TMTstop-control_1_5redlinestimulus18.png,TMT_Control,5,121,None,4,1.0,192.21286010742188,192.21286010742188,0.0,,1.0,1.0,0.0,2,-0.03585190000012517,192.21286010742188,192.21286010742188,0.0,,20.0
22,['1'],1,TMTstop-control_1_5linestimulus19.png,TMTstop-control_1_5greenlinestimulus19.png,TMTstop-control_1_5redlinestimulus19.png,TMT_Control,5,122,None,4,1.0,192.26284790039062,192.26284790039062,0.0,,1.0,1.0,0.0,3,1,0.049605699998210184,0.18625130000145873,192.26284790039062,192.26284790039062,0.0,,21.0
23,['3'],3,TMTstop-control_1_5linestimulus20.png,TMTstop-control_1_5greenlinestimulus20.png,TMTstop-control_1_5redlinestimulus20.png,TMT_Control,5,123,None,4,1.0,192.5132598876953,192.5132598876953,0.0,,1.0,1.0,0.0,2,3,-0.007123499999579508,0.14281530000152998,192.5132598876953,192.5132598876953,0.0,,22.0
24,['1'],1,TMTstop-control_1_5linestimulus21.png,TMTstop-control_1_5greenlinestimulus21.png,TMTstop-control_1_5redlinestimulus21.png,TMT_Control,5,124,None,4,1.0,192.71343994140625,192.71343994140625,0.0,,1.0,1.0,0.0,1,0.08329209999646991,192.71343994140625,192.71343994140625,0.0,,23.0
25,['3'],3,TMTstop-control_1_5linestimulus22.png,TMTstop-control_1_5greenlinestimulus22.png,TMTstop-control_1_5redlinestimulus22.png,TMT_Control,5,125,None,4,1.0,192.84750366210938,192.84750366210938,0.0,,1.0,1.0,0.0,2,3,0.0255886000013561,0.1422805000038352,192.84750366210938,192.84750366210938,0.0,,24.0
None,None,None,TMTstop-control_1_5linestimulus23.png,TMTstop-control_1_5greenlinestimulus23.png,TMTstop-control_1_5redlinestimulus23.png,TMT_Control,5,Feedback_last,None,4,1.0,193.03822326660156,193.03822326660156,0.0,,0.0,0.0,0.0,1,2,3,0.13051529999938793,0.23147829999652458,0.4119991999978083,193.03822326660156,193.03822326660156,0.0,,25.0

extraInfo
participant,
session,001
date,2022_May_23_1222
expName,TMT_fmri
psychopyVersion,2021.2.3
frameRate,59.98821831237917
﻿NumberLetter,corrAns,Correct,StimFile,Correct_StimFile,False_StimFile,Version,Paper,TrialNumber_Version,Round,Block,n,Stim_2.started_mean,Stim_2.started_raw,Stim_2.started_std,Stim_2.stopped_raw,key_resp_8.corr_mean,key_resp_8.corr_raw,key_resp_8.corr_std,key_resp_8.keys_raw,key_resp_8.rt_raw,key_resp_8.started_mean,key_resp_8.started_raw,key_resp_8.started_std,key_resp_8.stopped_raw,order
1,['3'],3,TMTstop-control_1_6.png,TMTstop-control_1_6.png,TMTstop-control_1_6.png,TMT_Control,6,126,None,4,1.0,197.20404052734375,197.20404052734375,0.0,,1.0,1.0,0.0,1,2,3,0.6228446000022814,0.6926173000028939,0.8115085000026738,197.20404052734375,197.20404052734375,0.0,,0.0
2,['2'],2,TMTstop-control_1_6.png,TMTstop-control_1_6firstgreen.png,TMTstop-control_1_6firstred.png,TMT_Control,6,127,None,4,1.0,198.0846405029297,198.0846405029297,0.0,,1.0,1.0,0.0,1,2,0.09437579999939771,0.14082780000171624,198.0846405029297,198.0846405029297,0.0,,1.0
3,['1'],1,TMTstop-control_1_6linestimulus0.png,TMTstop-control_1_6greenlinestimulus0.png,TMTstop-control_1_6redlinestimulus0.png,TMT_Control,6,128,None,4,1.0,198.29371643066406,198.29371643066406,0.0,,1.0,1.0,0.0,3,1,0.0936375000019325,0.8570787999997265,198.29371643066406,198.29371643066406,0.0,,2.0
4,['2'],2,TMTstop-control_1_6linestimulus1.png,TMTstop-control_1_6greenlinestimulus1.png,TMTstop-control_1_6redlinestimulus1.png,TMT_Control,6,129,None,4,1.0,199.2272186279297,199.2272186279297,0.0,,1.0,1.0,0.0,2,-0.027510200001415797,199.2272186279297,199.2272186279297,0.0,,3.0
5,['3'],3,TMTstop-control_1_6linestimulus2.png,TMTstop-control_1_6greenlinestimulus2.png,TMTstop-control_1_6redlinestimulus2.png,TMT_Control,6,130,None,4,1.0,199.28077697753906,199.28077697753906,0.0,,1.0,1.0,0.0,3,0.0825609000021359,199.28077697753906,199.28077697753906,0.0,,4.0
6,['2'],2,TMTstop-control_1_6linestimulus3.png,TMTstop-control_1_6greenlinestimulus3.png,TMTstop-control_1_6redlinestimulus3.png,TMT_Control,6,131,None,4,1.0,199.41424560546875,199.41424560546875,0.0,,1.0,1.0,0.0,1,1,2,0.3522997999971267,0.6685983999996097,0.6919689999995171,199.41424560546875,199.41424560546875,0.0,,5.0
7,['1'],1,TMTstop-control_1_6linestimulus4.png,TMTstop-control_1_6greenlinestimulus4.png,TMTstop-control_1_6redlinestimulus4.png,TMT_Control,6,132,None,4,1.0,200.17529296875,200.17529296875,0.0,,1.0,1.0,0.0,3,1,0.12794719999510562,0.30637469999783207,200.17529296875,200.17529296875,0.0,,6.0
8,['3'],3,TMTstop-control_1_6linestimulus4.png,TMTstop-control_1_6greenlinestimulus5.png,TMTstop-control_1_6redlinestimulus5.png,TMT_Control,6,133,None,4,1.0,200.5714111328125,200.5714111328125,0.0,,1.0,1.0,0.0,2,3,-0.04023629999574041,0.10362549999990733,200.5714111328125,200.5714111328125,0.0,,7.0
9,['2'],2,TMTstop-control_1_6linestimulus6.png,TMTstop-control_1_6greenlinestimulus6.png,TMTstop-control_1_6redlinestimulus6.png,TMT_Control,6,134,None,4,1.0,200.77163696289062,200.77163696289062,0.0,,1.0,1.0,0.0,1,2,0.06042909999814583,0.0965347000019392,200.77163696289062,200.77163696289062,0.0,,8.0
10,['1'],1,TMTstop-control_1_6linestimulus7.png,TMTstop-control_1_6greenlinestimulus7.png,TMTstop-control_1_6redlinestimulus7.png,TMT_Control,6,135,None,4,1.0,200.95590209960938,200.95590209960938,0.0,,1.0,1.0,0.0,3,1,0.06300899999769172,0.2328159000026062,200.95590209960938,200.95590209960938,0.0,,9.0
11,['2'],2,TMTstop-control_1_6linestimulus8.png,TMTstop-control_1_6greenlinestimulus8.png,TMTstop-control_1_6redlinestimulus8.png,TMT_Control,6,136,None,4,1.0,201.25936889648438,201.25936889648438,0.0,,1.0,1.0,0.0,2,-0.03531949999887729,201.25936889648438,201.25936889648438,0.0,,10.0
12,['3'],3,TMTstop-control_1_6linestimulus9.png,TMTstop-control_1_6greenlinestimulus9.png,TMTstop-control_1_6redlinestimulus9.png,TMT_Control,6,137,None,4,1.0,201.30946350097656,201.30946350097656,0.0,,1.0,1.0,0.0,3,0.06551739999849815,201.30946350097656,201.30946350097656,0.0,,11.0
13,['1'],1,TMTstop-control_1_6linestimulus10.png,TMTstop-control_1_6greenlinestimulus10.png,TMTstop-control_1_6redlinestimulus10.png,TMT_Control,6,138,None,4,1.0,201.42758178710938,201.42758178710938,0.0,,1.0,1.0,0.0,1,0.10103239999443758,201.42758178710938,201.42758178710938,0.0,,12.0
14,['3'],3,TMTstop-control_1_6linestimulus11.png,TMTstop-control_1_6greenlinestimulus11.png,TMTstop-control_1_6redlinestimulus11.png,TMT_Control,6,139,None,4,1.0,201.59255981445312,201.59255981445312,0.0,,1.0,1.0,0.0,2,1,2,3,-0.01074969999899622,0.3130888000014238,0.3291337000046042,0.5087019000056898,201.59255981445312,201.59255981445312,0.0,,13.0
15,['2'],2,TMTstop-control_1_6linestimulus12.png,TMTstop-control_1_6greenlinestimulus12.png,TMTstop-control_1_6redlinestimulus12.png,TMT_Control,6,140,None,4,1.0,202.15444946289062,202.15444946289062,0.0,,1.0,1.0,0.0,1,2,0.10556550000183051,0.14780729999620235,202.15444946289062,202.15444946289062,0.0,,14.0
16,['3'],3,TMTstop-control_1_6linestimulus13.png,TMTstop-control_1_6greenlinestimulus13.png,TMTstop-control_1_6redlinestimulus13.png,TMT_Control,6,141,None,4,1.0,202.3756103515625,202.3756103515625,0.0,,1.0,1.0,0.0,3,0.09981399999378482,202.3756103515625,202.3756103515625,0.0,,15.0
17,['1'],1,TMTstop-control_1_6linestimulus14.png,TMTstop-control_1_6greenlinestimulus14.png,TMTstop-control_1_6redlinestimulus14.png,TMT_Control,6,142,None,4,1.0,202.52862548828125,202.52862548828125,0.0,,1.0,1.0,0.0,1,0.1097204999969108,202.52862548828125,202.52862548828125,0.0,,16.0
18,['2'],2,TMTstop-control_1_6linestimulus15.png,TMTstop-control_1_6greenlinestimulus15.png,TMTstop-control_1_6redlinestimulus15.png,TMT_Control,6,143,None,4,1.0,202.6953582763672,202.6953582763672,0.0,,1.0,1.0,0.0,2,-0.030053299997234717,202.6953582763672,202.6953582763672,0.0,,17.0
19,['3'],3,TMTstop-control_1_6linestimulus16.png,TMTstop-control_1_6greenlinestimulus16.png,TMTstop-control_1_6redlinestimulus16.png,TMT_Control,6,144,None,4,1.0,202.74559020996094,202.74559020996094,0.0,,1.0,1.0,0.0,3,0.10449259999586502,202.74559020996094,202.74559020996094,0.0,,18.0
20,['2'],2,TMTstop-control_1_6linestimulus17.png,TMTstop-control_1_6greenlinestimulus17.png,TMTstop-control_1_6redlinestimulus17.png,TMT_Control,6,145,None,4,1.0,202.90310668945312,202.90310668945312,0.0,,1.0,1.0,0.0,1,2,0.07956920000287937,0.1336035000058473,202.90310668945312,202.90310668945312,0.0,,19.0
21,['1'],1,TMTstop-control_1_6linestimulus18.png,TMTstop-control_1_6greenlinestimulus18.png,TMTstop-control_1_6redlinestimulus18.png,TMT_Control,6,146,None,4,1.0,203.126953125,203.126953125,0.0,,1.0,1.0,0.0,3,1,0.06092460000218125,0.20770949999860022,203.126953125,203.126953125,0.0,,20.0
22,['2'],2,TMTstop-control_1_6linestimulus19.png,TMTstop-control_1_6greenlinestimulus19.png,TMTstop-control_1_6redlinestimulus19.png,TMT_Control,6,147,None,4,1.0,203.39073181152344,203.39073181152344,0.0,,1.0,1.0,0.0,2,0.012601999995240476,203.39073181152344,203.39073181152344,0.0,,21.0
23,['1'],1,TMTstop-control_1_6linestimulus20.png,TMTstop-control_1_6greenlinestimulus20.png,TMTstop-control_1_6redlinestimulus20.png,TMT_Control,6,148,None,4,1.0,203.4630126953125,203.4630126953125,0.0,,1.0,1.0,0.0,3,1,0.10171200000331737,0.25581380000221543,203.4630126953125,203.4630126953125,0.0,,22.0
24,['2'],2,TMTstop-control_1_6linestimulus21.png,TMTstop-control_1_6greenlinestimulus21.png,TMTstop-control_1_6redlinestimulus21.png,TMT_Control,6,149,None,4,1.0,203.77728271484375,203.77728271484375,0.0,,1.0,1.0,0.0,2,-0.022422499998356216,203.77728271484375,203.77728271484375,0.0,,23.0
25,['3'],3,TMTstop-control_1_6linestimulus22.png,TMTstop-control_1_6greenlinestimulus22.png,TMTstop-control_1_6redlinestimulus22.png,TMT_Control,6,150,None,4,1.0,203.82765197753906,203.82765197753906,0.0,,1.0,1.0,0.0,3,0.10744400000112364,203.82765197753906,203.82765197753906,0.0,,24.0
None,None,None,TMTstop-control_1_6linestimulus23.png,TMTstop-control_1_6greenlinestimulus23.png,TMTstop-control_1_6redlinestimulus23.png,TMT_Control,6,Feedback_last,None,4,1.0,203.99417114257812,203.99417114257812,0.0,,0.0,0.0,0.0,1,2,3,1,2,3,0.20017360000201734,0.24225679999653948,0.42941140000039013,0.6461435999954119,0.7033135000019684,0.8961526999992202,203.99417114257812,203.99417114257812,0.0,,25.0

extraInfo
participant,
session,001
date,2022_May_23_1222
expName,TMT_fmri
psychopyVersion,2021.2.3
frameRate,59.98821831237917
