NumberLetter,corrAns,Correct,StimFile,Correct_StimFile,False_StimFile,Version,Paper,TrialNumber_Version,Round,Block,TrialNumber_total,n,Stim.started_mean,Stim.started_raw,Stim.started_std,Stim.stopped_raw,key_resp_2.corr_mean,key_resp_2.corr_raw,key_resp_2.corr_std,key_resp_2.keys_raw,key_resp_2.rt_raw,key_resp_2.started_mean,key_resp_2.started_raw,key_resp_2.started_std,key_resp_2.stopped_raw,order
1,['1'],1.0,Images/TMTstop-control_1_9.png,Images/TMTstop-control_1_9.png,Images/TMTstop-control_1_9.png,TMT_Control,C9,201.0,5.0,5.0,201.0,1.0,304.3310546875,304.3310546875,0.0,,1.0,1.0,0.0,3,2,1,2.7461818999727257,2.820202899980359,2.94920649996493,304.3310546875,304.3310546875,0.0,,0.0
2,['2'],2.0,Images/TMTstop-control_1_9.png,Images/TMTstop-control_1_9firstgreen.png,Images/TMTstop-control_1_9firstred.png,TMT_Control,C9,202.0,None,5.0,202.0,1.0,307.3382263183594,307.3382263183594,0.0,,1.0,1.0,0.0,3,2,0.11749229999259114,0.19236320001073182,307.3382263183594,307.3382263183594,0.0,,1.0
3,['1'],1.0,Images/TMTstop-control_1_9linestimulus0.png,Images/TMTstop-control_1_9greenlinestimulus0.png,Images/TMTstop-control_1_9redlinestimulus0.png,TMT_Control,C9,203.0,None,5.0,203.0,1.0,307.6160583496094,307.6160583496094,0.0,,1.0,1.0,0.0,1,-0.0067755000200122595,307.6160583496094,307.6160583496094,0.0,,2.0
4,['3'],3.0,Images/TMTstop-control_1_9linestimulus1.png,Images/TMTstop-control_1_9greenlinestimulus1.png,Images/TMTstop-control_1_9redlinestimulus1.png,TMT_Control,C9,204.0,None,5.0,204.0,1.0,307.6663818359375,307.6663818359375,0.0,,1.0,1.0,0.0,3,0.1000550999888219,307.6663818359375,307.6663818359375,0.0,,3.0
5,['1'],1.0,Images/TMTstop-control_1_9linestimulus2.png,Images/TMTstop-control_1_9greenlinestimulus2.png,Images/TMTstop-control_1_9redlinestimulus2.png,TMT_Control,C9,205.0,None,5.0,205.0,1.0,307.8165588378906,307.8165588378906,0.0,,1.0,1.0,0.0,2,1,-0.011184300004970282,0.10492429998703301,307.8165588378906,307.8165588378906,0.0,,4.0
6,['3'],3.0,Images/TMTstop-control_1_9linestimulus3.png,Images/TMTstop-control_1_9greenlinestimulus3.png,Images/TMTstop-control_1_9redlinestimulus3.png,TMT_Control,C9,206.0,None,5.0,206.0,1.0,308.00323486328125,308.00323486328125,0.0,,1.0,1.0,0.0,3,0.07616439997218549,308.00323486328125,308.00323486328125,0.0,,5.0
7,['2'],2.0,Images/TMTstop-control_1_9linestimulus4.png,Images/TMTstop-control_1_9greenlinestimulus4.png,Images/TMTstop-control_1_9redlinestimulus4.png,TMT_Control,C9,207.0,None,5.0,207.0,1.0,308.13726806640625,308.13726806640625,0.0,,1.0,1.0,0.0,2,-0.014785599953029305,308.13726806640625,308.13726806640625,0.0,,6.0
8,['3'],3.0,Images/TMTstop-control_1_9linestimulus4.png,Images/TMTstop-control_1_9greenlinestimulus5.png,Images/TMTstop-control_1_9redlinestimulus5.png,TMT_Control,C9,208.0,None,5.0,208.0,1.0,308.19085693359375,308.19085693359375,0.0,,1.0,1.0,0.0,1,3,0.04053110000677407,0.20445750001817942,308.19085693359375,308.19085693359375,0.0,,7.0
9,['2'],2.0,Images/TMTstop-control_1_9linestimulus6.png,Images/TMTstop-control_1_9greenlinestimulus6.png,Images/TMTstop-control_1_9redlinestimulus6.png,TMT_Control,C9,209.0,None,5.0,209.0,1.0,308.48529052734375,308.48529052734375,0.0,,1.0,1.0,0.0,2,-0.04211349994875491,308.48529052734375,308.48529052734375,0.0,,8.0
10,['1'],1.0,Images/TMTstop-control_1_9linestimulus7.png,Images/TMTstop-control_1_9greenlinestimulus7.png,Images/TMTstop-control_1_9redlinestimulus7.png,TMT_Control,C9,210.0,None,5.0,210.0,1.0,308.5353088378906,308.5353088378906,0.0,,1.0,1.0,0.0,1,0.016681700013577938,308.5353088378906,308.5353088378906,0.0,,9.0
11,['2'],2.0,Images/TMTstop-control_1_9linestimulus8.png,Images/TMTstop-control_1_9greenlinestimulus8.png,Images/TMTstop-control_1_9redlinestimulus8.png,TMT_Control,C9,211.0,None,5.0,211.0,1.0,308.6091003417969,308.6091003417969,0.0,,1.0,1.0,0.0,3,2,0.0994224000023678,0.14027949998853728,308.6091003417969,308.6091003417969,0.0,,10.0
12,['3'],3.0,Images/TMTstop-control_1_9linestimulus9.png,Images/TMTstop-control_1_9greenlinestimulus9.png,Images/TMTstop-control_1_9redlinestimulus9.png,TMT_Control,C9,212.0,None,5.0,212.0,1.0,308.8090515136719,308.8090515136719,0.0,,1.0,1.0,0.0,1,3,0.048342599999159575,0.23939849995076656,308.8090515136719,308.8090515136719,0.0,,11.0
13,['2'],2.0,Images/TMTstop-control_1_9linestimulus10.png,Images/TMTstop-control_1_9greenlinestimulus10.png,Images/TMTstop-control_1_9redlinestimulus10.png,TMT_Control,C9,213.0,None,5.0,213.0,1.0,309.1408996582031,309.1408996582031,0.0,,1.0,1.0,0.0,2,-0.009725399955641478,309.1408996582031,309.1408996582031,0.0,,12.0
14,['3'],3.0,Images/TMTstop-control_1_9linestimulus11.png,Images/TMTstop-control_1_9greenlinestimulus11.png,Images/TMTstop-control_1_9redlinestimulus11.png,TMT_Control,C9,214.0,None,5.0,214.0,1.0,309.1903076171875,309.1903076171875,0.0,,1.0,1.0,0.0,1,3,0.0801975000067614,0.24063900002511218,309.1903076171875,309.1903076171875,0.0,,13.0
15,['2'],2.0,Images/TMTstop-control_1_9linestimulus12.png,Images/TMTstop-control_1_9greenlinestimulus12.png,Images/TMTstop-control_1_9redlinestimulus12.png,TMT_Control,C9,215.0,None,5.0,215.0,1.0,309.4853820800781,309.4853820800781,0.0,,1.0,1.0,0.0,2,0.0180324999964796,309.4853820800781,309.4853820800781,0.0,,14.0
16,['1'],1.0,Images/TMTstop-control_1_9linestimulus13.png,Images/TMTstop-control_1_9greenlinestimulus13.png,Images/TMTstop-control_1_9redlinestimulus13.png,TMT_Control,C9,216.0,None,5.0,216.0,1.0,309.60223388671875,309.60223388671875,0.0,,1.0,1.0,0.0,1,0.15056979999644682,309.60223388671875,309.60223388671875,0.0,,15.0
17,['2'],2.0,Images/TMTstop-control_1_9linestimulus14.png,Images/TMTstop-control_1_9greenlinestimulus14.png,Images/TMTstop-control_1_9redlinestimulus14.png,TMT_Control,C9,217.0,None,5.0,217.0,1.0,309.8097839355469,309.8097839355469,0.0,,1.0,1.0,0.0,3,2,0.08647799998288974,0.11652789998333901,309.8097839355469,309.8097839355469,0.0,,16.0
18,['1'],1.0,Images/TMTstop-control_1_9linestimulus15.png,Images/TMTstop-control_1_9greenlinestimulus15.png,Images/TMTstop-control_1_9redlinestimulus15.png,TMT_Control,C9,218.0,None,5.0,218.0,1.0,310.0160217285156,310.0160217285156,0.0,,1.0,1.0,0.0,1,0.07743230002233759,310.0160217285156,310.0160217285156,0.0,,17.0
19,['2'],2.0,Images/TMTstop-control_1_9linestimulus16.png,Images/TMTstop-control_1_9greenlinestimulus16.png,Images/TMTstop-control_1_9redlinestimulus16.png,TMT_Control,C9,219.0,None,5.0,219.0,1.0,310.1490173339844,310.1490173339844,0.0,,1.0,1.0,0.0,3,2,0.15635820000898093,0.16361390001839027,310.1490173339844,310.1490173339844,0.0,,18.0
20,['3'],3.0,Images/TMTstop-control_1_9linestimulus17.png,Images/TMTstop-control_1_9greenlinestimulus17.png,Images/TMTstop-control_1_9redlinestimulus17.png,TMT_Control,C9,220.0,None,5.0,220.0,1.0,310.37420654296875,310.37420654296875,0.0,,1.0,1.0,0.0,1,3,2,1,3,0.10180290002608672,0.2875474999891594,0.3141845000209287,0.46294050000142306,0.5911852000281215,310.37420654296875,310.37420654296875,0.0,,19.0
21,['1'],1.0,Images/TMTstop-control_1_9linestimulus18.png,Images/TMTstop-control_1_9greenlinestimulus18.png,Images/TMTstop-control_1_9redlinestimulus18.png,TMT_Control,C9,221.0,None,5.0,221.0,1.0,311.0590515136719,311.0590515136719,0.0,,1.0,1.0,0.0,1,0.15290560002904385,311.0590515136719,311.0590515136719,0.0,,20.0
22,['2'],2.0,Images/TMTstop-control_1_9linestimulus19.png,Images/TMTstop-control_1_9greenlinestimulus19.png,Images/TMTstop-control_1_9redlinestimulus19.png,TMT_Control,C9,222.0,None,5.0,222.0,1.0,311.2770690917969,311.2770690917969,0.0,,1.0,1.0,0.0,3,2,0.02542409999296069,0.07695039996178821,311.2770690917969,311.2770690917969,0.0,,21.0
23,['1'],1.0,Images/TMTstop-control_1_9linestimulus20.png,Images/TMTstop-control_1_9greenlinestimulus20.png,Images/TMTstop-control_1_9redlinestimulus20.png,TMT_Control,C9,223.0,None,5.0,223.0,1.0,311.4100341796875,311.4100341796875,0.0,,1.0,1.0,0.0,1,0.12938320002285764,311.4100341796875,311.4100341796875,0.0,,22.0
24,['2'],2.0,Images/TMTstop-control_1_9linestimulus21.png,Images/TMTstop-control_1_9greenlinestimulus21.png,Images/TMTstop-control_1_9redlinestimulus21.png,TMT_Control,C9,224.0,None,5.0,224.0,1.0,311.60186767578125,311.60186767578125,0.0,,1.0,1.0,0.0,3,2,0.13697490002959967,0.188237999973353,311.60186767578125,311.60186767578125,0.0,,23.0
25,['1'],1.0,Images/TMTstop-control_1_9linestimulus22.png,Images/TMTstop-control_1_9greenlinestimulus22.png,Images/TMTstop-control_1_9redlinestimulus22.png,TMT_Control,C9,225.0,None,5.0,225.0,1.0,311.85931396484375,311.85931396484375,0.0,,1.0,1.0,0.0,1,0.04288670001551509,311.85931396484375,311.85931396484375,0.0,,24.0
None,None,None,Images/TMTstop-control_1_9linestimulus23.png,Images/TMTstop-control_1_9greenlinestimulus23.png,Images/TMTstop-control_1_9redlinestimulus23.png,TMT_Control,C9,Feedback_last,None,5.0,Feedback_last,1.0,311.9601135253906,311.9601135253906,0.0,,0.0,0.0,0.0,3,2,1,0.10572249995311722,0.14228589995764196,0.24645879998570308,311.9601135253906,311.9601135253906,0.0,,25.0

extraInfo
participant,
session,001
date,2022_Dec_20_1551
expName,TMT_fmri
psychopyVersion,2021.2.3
frameRate,59.8764031355123
﻿NumberLetter,corrAns,Correct,StimFile,Correct_StimFile,False_StimFile,Version,Paper,TrialNumber_Version,Round,Block,TrialNumber_total,n,Stim.started_mean,Stim.started_raw,Stim.started_std,Stim.stopped_raw,key_resp_2.corr_mean,key_resp_2.corr_raw,key_resp_2.corr_std,key_resp_2.keys_raw,key_resp_2.rt_raw,key_resp_2.started_mean,key_resp_2.started_raw,key_resp_2.started_std,key_resp_2.stopped_raw,order
1,['1'],1.0,Images/TMTstop-control_1_10.png,Images/TMTstop-control_1_10.png,Images/TMTstop-control_1_10.png,TMT_Control,C10,226.0,None,5.0,226.0,1.0,316.38916015625,316.38916015625,0.0,,1.0,1.0,0.0,3,2,1,0.5431458000093699,0.5805449999752454,0.6572206999990158,316.38916015625,316.38916015625,0.0,,0.0
2,['2'],2.0,Images/TMTstop-control_1_10.png,Images/TMTstop-control_1_10firstgreen.png,Images/TMTstop-control_1_10firstred.png,TMT_Control,C10,227.0,None,5.0,227.0,1.0,317.11578369140625,317.11578369140625,0.0,,1.0,1.0,0.0,3,2,0.0703575000516139,0.11966640001628548,317.11578369140625,317.11578369140625,0.0,,1.0
3,['1'],1.0,Images/TMTstop-control_1_10linestimulus0.png,Images/TMTstop-control_1_10greenlinestimulus0.png,Images/TMTstop-control_1_10redlinestimulus0.png,TMT_Control,C10,228.0,None,5.0,228.0,1.0,317.2991638183594,317.2991638183594,0.0,,1.0,1.0,0.0,1,0.009286299988161772,317.2991638183594,317.2991638183594,0.0,,2.0
4,['3'],3.0,Images/TMTstop-control_1_10linestimulus1.png,Images/TMTstop-control_1_10greenlinestimulus1.png,Images/TMTstop-control_1_10redlinestimulus1.png,TMT_Control,C10,229.0,None,5.0,229.0,1.0,317.38275146484375,317.38275146484375,0.0,,1.0,1.0,0.0,3,0.056331300002057105,317.38275146484375,317.38275146484375,0.0,,3.0
5,['1'],1.0,Images/TMTstop-control_1_10linestimulus2.png,Images/TMTstop-control_1_10greenlinestimulus2.png,Images/TMTstop-control_1_10redlinestimulus2.png,TMT_Control,C10,230.0,None,5.0,230.0,1.0,317.49957275390625,317.49957275390625,0.0,,1.0,1.0,0.0,2,1,0.01923580002039671,0.08577230002265424,317.49957275390625,317.49957275390625,0.0,,4.0
6,['3'],3.0,Images/TMTstop-control_1_10linestimulus3.png,Images/TMTstop-control_1_10greenlinestimulus3.png,Images/TMTstop-control_1_10redlinestimulus3.png,TMT_Control,C10,231.0,None,5.0,231.0,1.0,317.68939208984375,317.68939208984375,0.0,,1.0,1.0,0.0,3,0.03499879996525124,317.68939208984375,317.68939208984375,0.0,,5.0
7,['2'],2.0,Images/TMTstop-control_1_10linestimulus4.png,Images/TMTstop-control_1_10greenlinestimulus4.png,Images/TMTstop-control_1_10redlinestimulus4.png,TMT_Control,C10,232.0,None,5.0,232.0,1.0,317.78961181640625,317.78961181640625,0.0,,1.0,1.0,0.0,2,-0.009144599956925958,317.78961181640625,317.78961181640625,0.0,,6.0
8,['3'],3.0,Images/TMTstop-control_1_10linestimulus4.png,Images/TMTstop-control_1_10greenlinestimulus5.png,Images/TMTstop-control_1_10redlinestimulus5.png,TMT_Control,C10,233.0,None,5.0,233.0,1.0,317.8395690917969,317.8395690917969,0.0,,1.0,1.0,0.0,1,3,0.013750499987509102,0.17389490001369268,317.8395690917969,317.8395690917969,0.0,,7.0
9,['2'],2.0,Images/TMTstop-control_1_10linestimulus6.png,Images/TMTstop-control_1_10greenlinestimulus6.png,Images/TMTstop-control_1_10redlinestimulus6.png,TMT_Control,C10,234.0,None,5.0,234.0,1.0,318.0669860839844,318.0669860839844,0.0,,1.0,1.0,0.0,2,-0.014642099966295063,318.0669860839844,318.0669860839844,0.0,,8.0
10,['1'],1.0,Images/TMTstop-control_1_10linestimulus7.png,Images/TMTstop-control_1_10greenlinestimulus7.png,Images/TMTstop-control_1_10redlinestimulus7.png,TMT_Control,C10,235.0,None,5.0,235.0,1.0,318.1173400878906,318.1173400878906,0.0,,1.0,1.0,0.0,1,0.013115900044795126,318.1173400878906,318.1173400878906,0.0,,9.0
11,['2'],2.0,Images/TMTstop-control_1_10linestimulus8.png,Images/TMTstop-control_1_10greenlinestimulus8.png,Images/TMTstop-control_1_10redlinestimulus8.png,TMT_Control,C10,236.0,None,5.0,236.0,1.0,318.1913757324219,318.1913757324219,0.0,,1.0,1.0,0.0,3,2,0.0971004000166431,0.12922390003222972,318.1913757324219,318.1913757324219,0.0,,10.0
12,['3'],3.0,Images/TMTstop-control_1_10linestimulus9.png,Images/TMTstop-control_1_10greenlinestimulus9.png,Images/TMTstop-control_1_10redlinestimulus9.png,TMT_Control,C10,237.0,None,5.0,237.0,1.0,318.3916320800781,318.3916320800781,0.0,,1.0,1.0,0.0,1,3,0.023362800013273954,0.17194069997640327,318.3916320800781,318.3916320800781,0.0,,11.0
13,['2'],2.0,Images/TMTstop-control_1_10linestimulus10.png,Images/TMTstop-control_1_10greenlinestimulus10.png,Images/TMTstop-control_1_10redlinestimulus10.png,TMT_Control,C10,238.0,None,5.0,238.0,1.0,318.63037109375,318.63037109375,0.0,,1.0,1.0,0.0,2,-0.035279300005640835,318.63037109375,318.63037109375,0.0,,12.0
14,['3'],3.0,Images/TMTstop-control_1_10linestimulus11.png,Images/TMTstop-control_1_10greenlinestimulus11.png,Images/TMTstop-control_1_10redlinestimulus11.png,TMT_Control,C10,239.0,None,5.0,239.0,1.0,318.68035888671875,318.68035888671875,0.0,,1.0,1.0,0.0,1,3,0.0010834999848157167,0.14280209998833016,318.68035888671875,318.68035888671875,0.0,,13.0
15,['2'],2.0,Images/TMTstop-control_1_10linestimulus12.png,Images/TMTstop-control_1_10greenlinestimulus12.png,Images/TMTstop-control_1_10redlinestimulus12.png,TMT_Control,C10,240.0,None,5.0,240.0,1.0,318.880615234375,318.880615234375,0.0,,1.0,1.0,0.0,2,-0.029174600029364228,318.880615234375,318.880615234375,0.0,,14.0
16,['1'],1.0,Images/TMTstop-control_1_10linestimulus13.png,Images/TMTstop-control_1_10greenlinestimulus13.png,Images/TMTstop-control_1_10redlinestimulus13.png,TMT_Control,C10,241.0,None,5.0,241.0,1.0,318.9316711425781,318.9316711425781,0.0,,1.0,1.0,0.0,1,0.020390399964526296,318.9316711425781,318.9316711425781,0.0,,15.0
17,['2'],2.0,Images/TMTstop-control_1_10linestimulus14.png,Images/TMTstop-control_1_10greenlinestimulus14.png,Images/TMTstop-control_1_10redlinestimulus14.png,TMT_Control,C10,242.0,None,5.0,242.0,1.0,319.03863525390625,319.03863525390625,0.0,,1.0,1.0,0.0,3,2,0.07367080001858994,0.12958140001865104,319.03863525390625,319.03863525390625,0.0,,16.0
18,['1'],1.0,Images/TMTstop-control_1_10linestimulus15.png,Images/TMTstop-control_1_10greenlinestimulus15.png,Images/TMTstop-control_1_10redlinestimulus15.png,TMT_Control,C10,243.0,None,5.0,243.0,1.0,319.2221374511719,319.2221374511719,0.0,,1.0,1.0,0.0,1,0.025256099994294345,319.2221374511719,319.2221374511719,0.0,,17.0
19,['2'],2.0,Images/TMTstop-control_1_10linestimulus16.png,Images/TMTstop-control_1_10greenlinestimulus16.png,Images/TMTstop-control_1_10redlinestimulus16.png,TMT_Control,C10,244.0,None,5.0,244.0,1.0,319.3050842285156,319.3050842285156,0.0,,1.0,1.0,0.0,3,2,0.08799740002723411,0.11136630002874881,319.3050842285156,319.3050842285156,0.0,,18.0
20,['3'],3.0,Images/TMTstop-control_1_10linestimulus17.png,Images/TMTstop-control_1_10greenlinestimulus17.png,Images/TMTstop-control_1_10redlinestimulus17.png,TMT_Control,C10,245.0,None,5.0,245.0,1.0,319.50567626953125,319.50567626953125,0.0,,1.0,1.0,0.0,1,3,0.025302299996837974,0.17596660001436248,319.50567626953125,319.50567626953125,0.0,,19.0
21,['1'],1.0,Images/TMTstop-control_1_10linestimulus18.png,Images/TMTstop-control_1_10greenlinestimulus18.png,Images/TMTstop-control_1_10redlinestimulus18.png,TMT_Control,C10,246.0,None,5.0,246.0,1.0,319.73944091796875,319.73944091796875,0.0,,1.0,1.0,0.0,2,1,-0.008959400001913309,0.0731534999795258,319.73944091796875,319.73944091796875,0.0,,20.0
22,['2'],2.0,Images/TMTstop-control_1_10linestimulus19.png,Images/TMTstop-control_1_10greenlinestimulus19.png,Images/TMTstop-control_1_10redlinestimulus19.png,TMT_Control,C10,247.0,None,5.0,247.0,1.0,319.8890075683594,319.8890075683594,0.0,,1.0,1.0,0.0,3,2,0.06834990001516417,0.09544070000993088,319.8890075683594,319.8890075683594,0.0,,21.0
23,['1'],1.0,Images/TMTstop-control_1_10linestimulus20.png,Images/TMTstop-control_1_10greenlinestimulus20.png,Images/TMTstop-control_1_10redlinestimulus20.png,TMT_Control,C10,248.0,None,5.0,248.0,1.0,320.0738220214844,320.0738220214844,0.0,,1.0,1.0,0.0,1,0.018072900013066828,320.0738220214844,320.0738220214844,0.0,,22.0
24,['2'],2.0,Images/TMTstop-control_1_10linestimulus21.png,Images/TMTstop-control_1_10greenlinestimulus21.png,Images/TMTstop-control_1_10redlinestimulus21.png,TMT_Control,C10,249.0,None,5.0,249.0,1.0,320.1452941894531,320.1452941894531,0.0,,1.0,1.0,0.0,3,2,0.0960657000541687,0.15072780003538355,320.1452941894531,320.1452941894531,0.0,,23.0
25,['1'],1.0,Images/TMTstop-control_1_10linestimulus22.png,Images/TMTstop-control_1_10greenlinestimulus22.png,Images/TMTstop-control_1_10redlinestimulus22.png,TMT_Control,C10,250.0,None,5.0,250.0,1.0,320.35638427734375,320.35638427734375,0.0,,1.0,1.0,0.0,1,0.03077449998818338,320.35638427734375,320.35638427734375,0.0,,24.0
None,None,None,Images/TMTstop-control_1_10linestimulus23.png,Images/TMTstop-control_1_10greenlinestimulus23.png,Images/TMTstop-control_1_10redlinestimulus23.png,TMT_Control,C10,Feedback_last,None,5.0,Feedback_last,1.0,320.4451599121094,320.4451599121094,0.0,,1.0,1.0,0.0,,'--',320.4451599121094,320.4451599121094,0.0,,25.0

extraInfo
participant,
session,001
date,2022_Dec_20_1551
expName,TMT_fmri
psychopyVersion,2021.2.3
frameRate,59.8764031355123
﻿NumberLetter,corrAns,Correct,StimFile,Correct_StimFile,False_StimFile,Version,Paper,TrialNumber_Version,Round,Block,TrialNumber_total,n,Stim.started_mean,Stim.started_raw,Stim.started_std,Stim.stopped_raw,key_resp_2.corr_mean,key_resp_2.corr_raw,key_resp_2.corr_std,key_resp_2.keys_raw,key_resp_2.rt_raw,key_resp_2.started_mean,key_resp_2.started_raw,key_resp_2.started_std,key_resp_2.stopped_raw,order
1,['2'],2.0,Images/TMTstop-control_1_11.png,Images/TMTstop-control_1_11.png,Images/TMTstop-control_1_11.png,TMT_Control,C11,251.0,None,5.0,251.0,1.0,324.7928161621094,324.7928161621094,0.0,,1.0,1.0,0.0,3,2,0.46478170005138963,0.4926756000495516,324.7928161621094,324.7928161621094,0.0,,0.0
2,['1'],1.0,Images/TMTstop-control_1_11.png,Images/TMTstop-control_1_11firstgreen.png,Images/TMTstop-control_1_11firstred.png,TMT_Control,C11,252.0,None,5.0,252.0,1.0,325.34735107421875,325.34735107421875,0.0,,1.0,1.0,0.0,1,0.0394658999866806,325.34735107421875,325.34735107421875,0.0,,1.0
3,['2'],2.0,Images/TMTstop-control_1_11linestimulus0.png,Images/TMTstop-control_1_11greenlinestimulus0.png,Images/TMTstop-control_1_11redlinestimulus0.png,TMT_Control,C11,253.0,None,5.0,253.0,1.0,325.44744873046875,325.44744873046875,0.0,,1.0,1.0,0.0,3,2,0.1230509000015445,0.15422899997793138,325.44744873046875,325.44744873046875,0.0,,2.0
4,['1'],1.0,Images/TMTstop-control_1_11linestimulus1.png,Images/TMTstop-control_1_11greenlinestimulus1.png,Images/TMTstop-control_1_11redlinestimulus1.png,TMT_Control,C11,254.0,None,5.0,254.0,1.0,325.6887512207031,325.6887512207031,0.0,,1.0,1.0,0.0,1,0.02542590000666678,325.6887512207031,325.6887512207031,0.0,,3.0
5,['2'],2.0,Images/TMTstop-control_1_11linestimulus2.png,Images/TMTstop-control_1_11greenlinestimulus2.png,Images/TMTstop-control_1_11redlinestimulus2.png,TMT_Control,C11,255.0,None,5.0,255.0,1.0,325.7721252441406,325.7721252441406,0.0,,1.0,1.0,0.0,3,2,0.10646630002884194,0.14450039999792352,325.7721252441406,325.7721252441406,0.0,,4.0
6,['1'],1.0,Images/TMTstop-control_1_11linestimulus3.png,Images/TMTstop-control_1_11greenlinestimulus3.png,Images/TMTstop-control_1_11redlinestimulus3.png,TMT_Control,C11,256.0,None,5.0,256.0,1.0,325.9921569824219,325.9921569824219,0.0,,1.0,1.0,0.0,1,0.02627020003274083,325.9921569824219,325.9921569824219,0.0,,5.0
7,['2'],2.0,Images/TMTstop-control_1_11linestimulus4.png,Images/TMTstop-control_1_11greenlinestimulus4.png,Images/TMTstop-control_1_11redlinestimulus4.png,TMT_Control,C11,257.0,None,5.0,257.0,1.0,326.0755920410156,326.0755920410156,0.0,,1.0,1.0,0.0,3,2,0.11990920000243932,0.18390169995836914,326.0755920410156,326.0755920410156,0.0,,6.0
8,['1'],1.0,Images/TMTstop-control_1_11linestimulus4.png,Images/TMTstop-control_1_11greenlinestimulus5.png,Images/TMTstop-control_1_11redlinestimulus5.png,TMT_Control,C11,258.0,None,5.0,258.0,1.0,326.3169860839844,326.3169860839844,0.0,,1.0,1.0,0.0,1,0.06340260000433773,326.3169860839844,326.3169860839844,0.0,,7.0
9,['2'],2.0,Images/TMTstop-control_1_11linestimulus6.png,Images/TMTstop-control_1_11greenlinestimulus6.png,Images/TMTstop-control_1_11redlinestimulus6.png,TMT_Control,C11,259.0,None,5.0,259.0,1.0,326.4334411621094,326.4334411621094,0.0,,1.0,1.0,0.0,3,2,0.10499959997832775,0.15624889999162406,326.4334411621094,326.4334411621094,0.0,,8.0
10,['3'],3.0,Images/TMTstop-control_1_11linestimulus7.png,Images/TMTstop-control_1_11greenlinestimulus7.png,Images/TMTstop-control_1_11redlinestimulus7.png,TMT_Control,C11,260.0,None,5.0,260.0,1.0,326.6414794921875,326.6414794921875,0.0,,1.0,1.0,0.0,1,3,0.04610569996293634,0.22299799998290837,326.6414794921875,326.6414794921875,0.0,,9.0
11,['1'],1.0,Images/TMTstop-control_1_11linestimulus8.png,Images/TMTstop-control_1_11greenlinestimulus8.png,Images/TMTstop-control_1_11redlinestimulus8.png,TMT_Control,C11,261.0,None,5.0,261.0,1.0,326.9534912109375,326.9534912109375,0.0,,1.0,1.0,0.0,2,1,-0.03887440002290532,0.05342660000314936,326.9534912109375,326.9534912109375,0.0,,10.0
12,['3'],3.0,Images/TMTstop-control_1_11linestimulus9.png,Images/TMTstop-control_1_11greenlinestimulus9.png,Images/TMTstop-control_1_11redlinestimulus9.png,TMT_Control,C11,262.0,None,5.0,262.0,1.0,327.1035461425781,327.1035461425781,0.0,,1.0,1.0,0.0,3,0.09694830002263188,327.1035461425781,327.1035461425781,0.0,,11.0
13,['2'],2.0,Images/TMTstop-control_1_11linestimulus10.png,Images/TMTstop-control_1_11greenlinestimulus10.png,Images/TMTstop-control_1_11redlinestimulus10.png,TMT_Control,C11,263.0,None,5.0,263.0,1.0,327.27044677734375,327.27044677734375,0.0,,1.0,1.0,0.0,2,-0.032677699986379594,327.27044677734375,327.27044677734375,0.0,,12.0
14,['1'],1.0,Images/TMTstop-control_1_11linestimulus11.png,Images/TMTstop-control_1_11greenlinestimulus11.png,Images/TMTstop-control_1_11redlinestimulus11.png,TMT_Control,C11,264.0,None,5.0,264.0,1.0,327.3246765136719,327.3246765136719,0.0,,1.0,1.0,0.0,1,0.0009763999842107296,327.3246765136719,327.3246765136719,0.0,,13.0
15,['2'],2.0,Images/TMTstop-control_1_11linestimulus12.png,Images/TMTstop-control_1_11greenlinestimulus12.png,Images/TMTstop-control_1_11redlinestimulus12.png,TMT_Control,C11,265.0,None,5.0,265.0,1.0,327.3751525878906,327.3751525878906,0.0,,1.0,1.0,0.0,3,2,0.13696239999262616,0.16024639998795465,327.3751525878906,327.3751525878906,0.0,,14.0
16,['1'],1.0,Images/TMTstop-control_1_11linestimulus13.png,Images/TMTstop-control_1_11greenlinestimulus13.png,Images/TMTstop-control_1_11redlinestimulus13.png,TMT_Control,C11,266.0,None,5.0,266.0,1.0,327.6326599121094,327.6326599121094,0.0,,1.0,1.0,0.0,1,0.0018214999581687152,327.6326599121094,327.6326599121094,0.0,,15.0
17,['2'],2.0,Images/TMTstop-control_1_11linestimulus14.png,Images/TMTstop-control_1_11greenlinestimulus14.png,Images/TMTstop-control_1_11redlinestimulus14.png,TMT_Control,C11,267.0,None,5.0,267.0,1.0,327.6899719238281,327.6899719238281,0.0,,1.0,1.0,0.0,3,2,0.13052429998060688,0.15753109997604042,327.6899719238281,327.6899719238281,0.0,,16.0
18,['1'],1.0,Images/TMTstop-control_1_11linestimulus15.png,Images/TMTstop-control_1_11greenlinestimulus15.png,Images/TMTstop-control_1_11redlinestimulus15.png,TMT_Control,C11,268.0,None,5.0,268.0,1.0,327.9241638183594,327.9241638183594,0.0,,1.0,1.0,0.0,1,0.15635770000517368,327.9241638183594,327.9241638183594,0.0,,17.0
19,['2'],2.0,Images/TMTstop-control_1_11linestimulus16.png,Images/TMTstop-control_1_11greenlinestimulus16.png,Images/TMTstop-control_1_11redlinestimulus16.png,TMT_Control,C11,269.0,None,5.0,269.0,1.0,328.14923095703125,328.14923095703125,0.0,,1.0,1.0,0.0,3,2,0.09256170003209263,0.16741980001097545,328.14923095703125,328.14923095703125,0.0,,18.0
20,['1'],1.0,Images/TMTstop-control_1_11linestimulus17.png,Images/TMTstop-control_1_11greenlinestimulus17.png,Images/TMTstop-control_1_11redlinestimulus17.png,TMT_Control,C11,270.0,None,5.0,270.0,1.0,328.4144592285156,328.4144592285156,0.0,,1.0,1.0,0.0,1,-0.014850799983832985,328.4144592285156,328.4144592285156,0.0,,19.0
21,['2'],2.0,Images/TMTstop-control_1_11linestimulus18.png,Images/TMTstop-control_1_11greenlinestimulus18.png,Images/TMTstop-control_1_11redlinestimulus18.png,TMT_Control,C11,271.0,None,5.0,271.0,1.0,328.48101806640625,328.48101806640625,0.0,,1.0,1.0,0.0,3,2,0.10099410003749654,0.11760540003888309,328.48101806640625,328.48101806640625,0.0,,20.0
22,['1'],1.0,Images/TMTstop-control_1_11linestimulus19.png,Images/TMTstop-control_1_11greenlinestimulus19.png,Images/TMTstop-control_1_11redlinestimulus19.png,TMT_Control,C11,272.0,None,5.0,272.0,1.0,328.6866760253906,328.6866760253906,0.0,,1.0,1.0,0.0,1,0.007997500011697412,328.6866760253906,328.6866760253906,0.0,,21.0
23,['3'],3.0,Images/TMTstop-control_1_11linestimulus20.png,Images/TMTstop-control_1_11greenlinestimulus20.png,Images/TMTstop-control_1_11redlinestimulus20.png,TMT_Control,C11,273.0,None,5.0,273.0,1.0,328.7585144042969,328.7585144042969,0.0,,1.0,1.0,0.0,3,0.11972230003448203,328.7585144042969,328.7585144042969,0.0,,22.0
24,['1'],1.0,Images/TMTstop-control_1_11linestimulus21.png,Images/TMTstop-control_1_11greenlinestimulus21.png,Images/TMTstop-control_1_11redlinestimulus21.png,TMT_Control,C11,274.0,None,5.0,274.0,1.0,328.9496154785156,328.9496154785156,0.0,,1.0,1.0,0.0,2,1,-0.04248519998509437,0.06372859998373315,328.9496154785156,328.9496154785156,0.0,,23.0
25,['2'],2.0,Images/TMTstop-control_1_11linestimulus22.png,Images/TMTstop-control_1_11greenlinestimulus22.png,Images/TMTstop-control_1_11redlinestimulus22.png,TMT_Control,C11,275.0,None,5.0,275.0,1.0,329.1092529296875,329.1092529296875,0.0,,1.0,1.0,0.0,3,2,0.07910050003556535,0.11319550004554912,329.1092529296875,329.1092529296875,0.0,,24.0
None,None,None,Images/TMTstop-control_1_11linestimulus23.png,Images/TMTstop-control_1_11greenlinestimulus23.png,Images/TMTstop-control_1_11redlinestimulus23.png,TMT_Control,C11,Feedback_last,None,5.0,Feedback_last,1.0,329.2930908203125,329.2930908203125,0.0,,0.0,0.0,0.0,1,0.018974100006744266,329.2930908203125,329.2930908203125,0.0,,25.0

extraInfo
participant,
session,001
date,2022_Dec_20_1551
expName,TMT_fmri
psychopyVersion,2021.2.3
frameRate,59.8764031355123
﻿NumberLetter,corrAns,Correct,StimFile,Correct_StimFile,False_StimFile,Version,Paper,TrialNumber_Version,Round,Block,TrialNumber_total,n,Stim.started_mean,Stim.started_raw,Stim.started_std,Stim.stopped_raw,key_resp_2.corr_mean,key_resp_2.corr_raw,key_resp_2.corr_std,key_resp_2.keys_raw,key_resp_2.rt_raw,key_resp_2.started_mean,key_resp_2.started_raw,key_resp_2.started_std,key_resp_2.stopped_raw,order
1,['3'],3.0,Images/TMTstop-control_1_12.png,Images/TMTstop-control_1_12.png,Images/TMTstop-control_1_12.png,TMT_Control,C12,276.0,None,5.0,276.0,1.0,333.70587158203125,333.70587158203125,0.0,,1.0,1.0,0.0,3,1.6202081000083126,333.70587158203125,333.70587158203125,0.0,,0.0
2,['2'],2.0,Images/TMTstop-control_1_12.png,Images/TMTstop-control_1_12firstgreen.png,Images/TMTstop-control_1_12firstred.png,TMT_Control,C12,277.0,None,5.0,277.0,1.0,335.3861083984375,335.3861083984375,0.0,,1.0,1.0,0.0,2,-0.014587700017727911,335.3861083984375,335.3861083984375,0.0,,1.0
3,['3'],3.0,Images/TMTstop-control_1_12linestimulus0.png,Images/TMTstop-control_1_12greenlinestimulus0.png,Images/TMTstop-control_1_12redlinestimulus0.png,TMT_Control,C12,278.0,None,5.0,278.0,1.0,335.4361877441406,335.4361877441406,0.0,,1.0,1.0,0.0,1,3,0.041426700016018,0.22722160001285374,335.4361877441406,335.4361877441406,0.0,,2.0
4,['2'],2.0,Images/TMTstop-control_1_12linestimulus1.png,Images/TMTstop-control_1_12greenlinestimulus1.png,Images/TMTstop-control_1_12redlinestimulus1.png,TMT_Control,C12,279.0,None,5.0,279.0,1.0,335.7494812011719,335.7494812011719,0.0,,1.0,1.0,0.0,2,-0.04473890003282577,335.7494812011719,335.7494812011719,0.0,,3.0
5,['3'],3.0,Images/TMTstop-control_1_12linestimulus2.png,Images/TMTstop-control_1_12greenlinestimulus2.png,Images/TMTstop-control_1_12redlinestimulus2.png,TMT_Control,C12,280.0,None,5.0,280.0,1.0,335.7997131347656,335.7997131347656,0.0,,1.0,1.0,0.0,1,3,0.008894700033124536,0.1598756000166759,335.7997131347656,335.7997131347656,0.0,,4.0
6,['2'],2.0,Images/TMTstop-control_1_12linestimulus3.png,Images/TMTstop-control_1_12greenlinestimulus3.png,Images/TMTstop-control_1_12redlinestimulus3.png,TMT_Control,C12,281.0,None,5.0,281.0,1.0,336.0242614746094,336.0242614746094,0.0,,1.0,1.0,0.0,2,-0.016517899988684803,336.0242614746094,336.0242614746094,0.0,,5.0
7,['1'],1.0,Images/TMTstop-control_1_12linestimulus4.png,Images/TMTstop-control_1_12greenlinestimulus4.png,Images/TMTstop-control_1_12redlinestimulus4.png,TMT_Control,C12,282.0,None,5.0,282.0,1.0,336.07427978515625,336.07427978515625,0.0,,1.0,1.0,0.0,1,0.03621029999339953,336.07427978515625,336.07427978515625,0.0,,6.0
8,['3'],3.0,Images/TMTstop-control_1_12linestimulus4.png,Images/TMTstop-control_1_12greenlinestimulus5.png,Images/TMTstop-control_1_12redlinestimulus5.png,TMT_Control,C12,283.0,None,5.0,283.0,1.0,336.17425537109375,336.17425537109375,0.0,,1.0,1.0,0.0,3,0.12332889996469021,336.17425537109375,336.17425537109375,0.0,,7.0
9,['1'],1.0,Images/TMTstop-control_1_12linestimulus6.png,Images/TMTstop-control_1_12greenlinestimulus6.png,Images/TMTstop-control_1_12redlinestimulus6.png,TMT_Control,C12,284.0,None,5.0,284.0,1.0,336.3658752441406,336.3658752441406,0.0,,1.0,1.0,0.0,2,1,-0.03935700003057718,0.05898520001210272,336.3658752441406,336.3658752441406,0.0,,8.0
10,['2'],2.0,Images/TMTstop-control_1_12linestimulus7.png,Images/TMTstop-control_1_12greenlinestimulus7.png,Images/TMTstop-control_1_12redlinestimulus7.png,TMT_Control,C12,285.0,None,5.0,285.0,1.0,336.5269470214844,336.5269470214844,0.0,,1.0,1.0,0.0,3,2,0.09671710000839084,0.1386904999963008,336.5269470214844,336.5269470214844,0.0,,9.0
11,['3'],3.0,Images/TMTstop-control_1_12linestimulus8.png,Images/TMTstop-control_1_12greenlinestimulus8.png,Images/TMTstop-control_1_12redlinestimulus8.png,TMT_Control,C12,286.0,None,5.0,286.0,1.0,336.72760009765625,336.72760009765625,0.0,,1.0,1.0,0.0,1,3,2,1,3,0.02395750000141561,0.21533169999020174,0.22959679999621585,0.365080300020054,0.5560985999763943,336.72760009765625,336.72760009765625,0.0,,10.0
12,['1'],1.0,Images/TMTstop-control_1_12linestimulus9.png,Images/TMTstop-control_1_12greenlinestimulus9.png,Images/TMTstop-control_1_12redlinestimulus9.png,TMT_Control,C12,287.0,None,5.0,287.0,1.0,337.36370849609375,337.36370849609375,0.0,,1.0,1.0,0.0,2,1,-0.044597000000067055,0.08007699996232986,337.36370849609375,337.36370849609375,0.0,,11.0
13,['2'],2.0,Images/TMTstop-control_1_12linestimulus10.png,Images/TMTstop-control_1_12greenlinestimulus10.png,Images/TMTstop-control_1_12redlinestimulus10.png,TMT_Control,C12,288.0,None,5.0,288.0,1.0,337.516845703125,337.516845703125,0.0,,1.0,1.0,0.0,3,2,0.09669360000407323,0.13492979999864474,337.516845703125,337.516845703125,0.0,,12.0
14,['1'],1.0,Images/TMTstop-control_1_12linestimulus11.png,Images/TMTstop-control_1_12greenlinestimulus11.png,Images/TMTstop-control_1_12redlinestimulus11.png,TMT_Control,C12,289.0,None,5.0,289.0,1.0,337.7230224609375,337.7230224609375,0.0,,1.0,1.0,0.0,1,0.011669800034724176,337.7230224609375,337.7230224609375,0.0,,13.0
15,['2'],2.0,Images/TMTstop-control_1_12linestimulus12.png,Images/TMTstop-control_1_12greenlinestimulus12.png,Images/TMTstop-control_1_12redlinestimulus12.png,TMT_Control,C12,290.0,None,5.0,290.0,1.0,337.79632568359375,337.79632568359375,0.0,,1.0,1.0,0.0,3,2,0.1321254000067711,0.14819710003212094,337.79632568359375,337.79632568359375,0.0,,14.0
16,['3'],3.0,Images/TMTstop-control_1_12linestimulus13.png,Images/TMTstop-control_1_12greenlinestimulus13.png,Images/TMTstop-control_1_12redlinestimulus13.png,TMT_Control,C12,291.0,None,5.0,291.0,1.0,338.03204345703125,338.03204345703125,0.0,,1.0,1.0,0.0,1,3,0.03056560002733022,0.22259289998328313,338.03204345703125,338.03204345703125,0.0,,15.0
17,['1'],1.0,Images/TMTstop-control_1_12linestimulus14.png,Images/TMTstop-control_1_12greenlinestimulus14.png,Images/TMTstop-control_1_12redlinestimulus14.png,TMT_Control,C12,292.0,None,5.0,292.0,1.0,338.31585693359375,338.31585693359375,0.0,,1.0,1.0,0.0,2,1,-0.03266069997334853,0.11483520001638681,338.31585693359375,338.31585693359375,0.0,,16.0
18,['2'],2.0,Images/TMTstop-control_1_12linestimulus15.png,Images/TMTstop-control_1_12greenlinestimulus15.png,Images/TMTstop-control_1_12redlinestimulus15.png,TMT_Control,C12,293.0,None,5.0,293.0,1.0,338.5161437988281,338.5161437988281,0.0,,1.0,1.0,0.0,3,2,0.06533690000651404,0.10487619997002184,338.5161437988281,338.5161437988281,0.0,,17.0
19,['3'],3.0,Images/TMTstop-control_1_12linestimulus16.png,Images/TMTstop-control_1_12greenlinestimulus16.png,Images/TMTstop-control_1_12redlinestimulus16.png,TMT_Control,C12,294.0,None,5.0,294.0,1.0,338.6979675292969,338.6979675292969,0.0,,1.0,1.0,0.0,1,3,0.03220150002744049,0.22576000000117347,338.6979675292969,338.6979675292969,0.0,,18.0
20,['1'],1.0,Images/TMTstop-control_1_12linestimulus17.png,Images/TMTstop-control_1_12greenlinestimulus17.png,Images/TMTstop-control_1_12redlinestimulus17.png,TMT_Control,C12,295.0,None,5.0,295.0,1.0,338.9981994628906,338.9981994628906,0.0,,1.0,1.0,0.0,2,1,-0.03652039996813983,0.055199499998707324,338.9981994628906,338.9981994628906,0.0,,19.0
21,['2'],2.0,Images/TMTstop-control_1_12linestimulus18.png,Images/TMTstop-control_1_12greenlinestimulus18.png,Images/TMTstop-control_1_12redlinestimulus18.png,TMT_Control,C12,296.0,None,5.0,296.0,1.0,339.1483459472656,339.1483459472656,0.0,,1.0,1.0,0.0,3,2,0.09720349998679012,0.12896320002619177,339.1483459472656,339.1483459472656,0.0,,20.0
22,['1'],1.0,Images/TMTstop-control_1_12linestimulus19.png,Images/TMTstop-control_1_12greenlinestimulus19.png,Images/TMTstop-control_1_12redlinestimulus19.png,TMT_Control,C12,297.0,None,5.0,297.0,1.0,339.3492126464844,339.3492126464844,0.0,,1.0,1.0,0.0,1,0.044296099978964776,339.3492126464844,339.3492126464844,0.0,,21.0
23,['2'],2.0,Images/TMTstop-control_1_12linestimulus20.png,Images/TMTstop-control_1_12greenlinestimulus20.png,Images/TMTstop-control_1_12redlinestimulus20.png,TMT_Control,C12,298.0,None,5.0,298.0,1.0,339.4493408203125,339.4493408203125,0.0,,1.0,1.0,0.0,3,2,0.15452690003439784,0.16199190000770614,339.4493408203125,339.4493408203125,0.0,,22.0
24,['3'],3.0,Images/TMTstop-control_1_12linestimulus21.png,Images/TMTstop-control_1_12greenlinestimulus21.png,Images/TMTstop-control_1_12redlinestimulus21.png,TMT_Control,C12,299.0,None,5.0,299.0,1.0,339.6698303222656,339.6698303222656,0.0,,1.0,1.0,0.0,1,3,0.06278249999741092,0.29404909996083006,339.6698303222656,339.6698303222656,0.0,,23.0
25,['2'],2.0,Images/TMTstop-control_1_12linestimulus22.png,Images/TMTstop-control_1_12greenlinestimulus22.png,Images/TMTstop-control_1_12redlinestimulus22.png,TMT_Control,C12,300.0,None,5.0,300.0,1.0,340.03094482421875,340.03094482421875,0.0,,1.0,1.0,0.0,2,0.0022909999825060368,340.03094482421875,340.03094482421875,0.0,,24.0
None,None,None,Images/TMTstop-control_1_12linestimulus23.png,Images/TMTstop-control_1_12greenlinestimulus23.png,Images/TMTstop-control_1_12redlinestimulus23.png,TMT_Control,C12,Feedback_last,None,5.0,Feedback_last,1.0,340.1049499511719,340.1049499511719,0.0,,0.0,0.0,0.0,1,-0.009345900034531951,340.1049499511719,340.1049499511719,0.0,,25.0

extraInfo
participant,
session,001
date,2022_Dec_20_1551
expName,TMT_fmri
psychopyVersion,2021.2.3
frameRate,59.8764031355123
