NumberLetter,corrAns,Correct,StimFile,Correct_StimFile,False_StimFile,Version,Paper,TrialNumber_Version,Round,Block,n,Stim_2.started_mean,Stim_2.started_raw,Stim_2.started_std,Stim_2.stopped_raw,key_resp_8.corr_mean,key_resp_8.corr_raw,key_resp_8.corr_std,key_resp_8.keys_raw,key_resp_8.rt_raw,key_resp_8.started_mean,key_resp_8.started_raw,key_resp_8.started_std,key_resp_8.stopped_raw,order
1,['2'],2,TMTstop-control_1_3.png,TMTstop-control_1_3.png,TMTstop-control_1_3.png,TMT_Control,3,51,None,1,1.0,125.42337036132812,125.42337036132812,0.0,,1.0,1.0,0.0,1,2,0.6558132999998634,0.693584100001317,125.42337036132812,125.42337036132812,0.0,,0.0
2,['1'],1,TMTstop-control_1_3.png,TMTstop-control_1_3firstgreen.png,TMTstop-control_1_3firstred.png,TMT_Control,3,52,None,1,1.0,126.17833709716797,126.17833709716797,0.0,,1.0,1.0,0.0,3,1,0.10917079999489943,0.37749889999395236,126.17833709716797,126.17833709716797,0.0,,1.0
3,['2'],2,TMTstop-control_1_3linestimulus0.png,TMTstop-control_1_3greenlinestimulus0.png,TMTstop-control_1_3redlinestimulus0.png,TMT_Control,3,53,None,1,1.0,126.63082885742188,126.63082885742188,0.0,,1.0,1.0,0.0,2,-0.03738390000216896,126.63082885742188,126.63082885742188,0.0,,2.0
4,['1'],1,TMTstop-control_1_3linestimulus1.png,TMTstop-control_1_3greenlinestimulus1.png,TMTstop-control_1_3redlinestimulus1.png,TMT_Control,3,54,None,1,1.0,126.68096923828125,126.68096923828125,0.0,,1.0,1.0,0.0,3,1,0.06628099999943515,0.2771830999990925,126.68096923828125,126.68096923828125,0.0,,3.0
5,['3'],3,TMTstop-control_1_3linestimulus2.png,TMTstop-control_1_3greenlinestimulus2.png,TMTstop-control_1_3redlinestimulus2.png,TMT_Control,3,55,None,1,1.0,127.04959106445312,127.04959106445312,0.0,,1.0,1.0,0.0,2,3,-0.05240300000150455,0.11380159999680473,127.04959106445312,127.04959106445312,0.0,,4.0
6,['1'],1,TMTstop-control_1_3linestimulus3.png,TMTstop-control_1_3greenlinestimulus3.png,TMTstop-control_1_3redlinestimulus3.png,TMT_Control,3,56,None,1,1.0,127.2568130493164,127.2568130493164,0.0,,1.0,1.0,0.0,1,0.6736767000038526,127.2568130493164,127.2568130493164,0.0,,5.0
7,['2'],2,TMTstop-control_1_3linestimulus4.png,TMTstop-control_1_3greenlinestimulus4.png,TMTstop-control_1_3redlinestimulus4.png,TMT_Control,3,57,None,1,1.0,127.9987564086914,127.9987564086914,0.0,,1.0,1.0,0.0,2,-0.02641629999561701,127.9987564086914,127.9987564086914,0.0,,6.0
8,['3'],3,TMTstop-control_1_3linestimulus4.png,TMTstop-control_1_3greenlinestimulus5.png,TMTstop-control_1_3redlinestimulus5.png,TMT_Control,3,58,None,1,1.0,128.04905700683594,128.04905700683594,0.0,,1.0,1.0,0.0,3,0.04918580000230577,128.04905700683594,128.04905700683594,0.0,,7.0
9,['1'],1,TMTstop-control_1_3linestimulus6.png,TMTstop-control_1_3greenlinestimulus6.png,TMTstop-control_1_3redlinestimulus6.png,TMT_Control,3,59,None,1,1.0,128.1491241455078,128.1491241455078,0.0,,1.0,1.0,0.0,2,1,0.11505169999873033,0.1428611000010278,128.1491241455078,128.1491241455078,0.0,,8.0
10,['2'],2,TMTstop-control_1_3linestimulus7.png,TMTstop-control_1_3greenlinestimulus7.png,TMTstop-control_1_3redlinestimulus7.png,TMT_Control,3,60,None,1,1.0,128.36602783203125,128.36602783203125,0.0,,1.0,1.0,0.0,1,2,0.3524924999946961,0.3762308999939705,128.36602783203125,128.36602783203125,0.0,,9.0
11,['1'],1,TMTstop-control_1_3linestimulus8.png,TMTstop-control_1_3greenlinestimulus8.png,TMTstop-control_1_3redlinestimulus8.png,TMT_Control,3,61,None,1,1.0,128.8387908935547,128.8387908935547,0.0,,1.0,1.0,0.0,3,1,0.07651700000133133,0.2785317000016221,128.8387908935547,128.8387908935547,0.0,,10.0
12,['2'],2,TMTstop-control_1_3linestimulus9.png,TMTstop-control_1_3greenlinestimulus9.png,TMTstop-control_1_3redlinestimulus9.png,TMT_Control,3,62,None,1,1.0,129.19821166992188,129.19821166992188,0.0,,1.0,1.0,0.0,2,-0.0479129000013927,129.19821166992188,129.19821166992188,0.0,,11.0
13,['3'],3,TMTstop-control_1_3linestimulus10.png,TMTstop-control_1_3greenlinestimulus10.png,TMTstop-control_1_3redlinestimulus10.png,TMT_Control,3,63,None,1,1.0,129.24826049804688,129.24826049804688,0.0,,1.0,1.0,0.0,3,0.058552799993776716,129.24826049804688,129.24826049804688,0.0,,12.0
14,['2'],2,TMTstop-control_1_3linestimulus11.png,TMTstop-control_1_3greenlinestimulus11.png,TMTstop-control_1_3redlinestimulus11.png,TMT_Control,3,64,None,1,1.0,129.364990234375,129.364990234375,0.0,,1.0,1.0,0.0,1,2,0.09810470000229543,0.13230710000061663,129.364990234375,129.364990234375,0.0,,13.0
15,['1'],1,TMTstop-control_1_3linestimulus12.png,TMTstop-control_1_3greenlinestimulus12.png,TMTstop-control_1_3redlinestimulus12.png,TMT_Control,3,65,None,1,1.0,129.56520080566406,129.56520080566406,0.0,,1.0,1.0,0.0,3,1,0.08051479999994626,0.2830826999997953,129.56520080566406,129.56520080566406,0.0,,14.0
16,['3'],3,TMTstop-control_1_3linestimulus13.png,TMTstop-control_1_3greenlinestimulus13.png,TMTstop-control_1_3redlinestimulus13.png,TMT_Control,3,66,None,1,1.0,129.908935546875,129.908935546875,0.0,,1.0,1.0,0.0,2,3,1,1,2,3,0.12185950000275625,0.30177520000142977,0.30872720000479603,0.5590059000023757,0.6115405000018654,0.752145800004655,129.908935546875,129.908935546875,0.0,,15.0
17,['1'],1,TMTstop-control_1_3linestimulus14.png,TMTstop-control_1_3greenlinestimulus14.png,TMTstop-control_1_3redlinestimulus14.png,TMT_Control,3,67,None,1,1.0,130.7376708984375,130.7376708984375,0.0,,1.0,1.0,0.0,1,0.11217480000050273,130.7376708984375,130.7376708984375,0.0,,16.0
18,['3'],3,TMTstop-control_1_3linestimulus15.png,TMTstop-control_1_3greenlinestimulus15.png,TMTstop-control_1_3redlinestimulus15.png,TMT_Control,3,68,None,1,1.0,130.90444946289062,130.90444946289062,0.0,,1.0,1.0,0.0,2,1,2,3,-0.009524000000965316,0.4051947999978438,0.43064610000146786,0.6014673999961815,130.90444946289062,130.90444946289062,0.0,,17.0
19,['2'],2,TMTstop-control_1_3linestimulus16.png,TMTstop-control_1_3greenlinestimulus16.png,TMTstop-control_1_3redlinestimulus16.png,TMT_Control,3,69,None,1,1.0,131.5684814453125,131.5684814453125,0.0,,1.0,1.0,0.0,1,2,0.1242050000000745,0.16611760000523645,131.5684814453125,131.5684814453125,0.0,,18.0
20,['1'],1,TMTstop-control_1_3linestimulus17.png,TMTstop-control_1_3greenlinestimulus17.png,TMTstop-control_1_3redlinestimulus17.png,TMT_Control,3,70,None,1,1.0,131.8022003173828,131.8022003173828,0.0,,1.0,1.0,0.0,3,1,0.0931230999995023,0.26149979999900097,131.8022003173828,131.8022003173828,0.0,,19.0
21,['3'],3,TMTstop-control_1_3linestimulus18.png,TMTstop-control_1_3greenlinestimulus18.png,TMTstop-control_1_3redlinestimulus18.png,TMT_Control,3,71,None,1,1.0,132.15435791015625,132.15435791015625,0.0,,1.0,1.0,0.0,2,3,-0.04178200000023935,0.10706940000090981,132.15435791015625,132.15435791015625,0.0,,20.0
22,['2'],2,TMTstop-control_1_3linestimulus19.png,TMTstop-control_1_3greenlinestimulus19.png,TMTstop-control_1_3redlinestimulus19.png,TMT_Control,3,72,None,1,1.0,132.3546905517578,132.3546905517578,0.0,,1.0,1.0,0.0,1,2,0.07145199999649776,0.10742339999706019,132.3546905517578,132.3546905517578,0.0,,21.0
23,['3'],3,TMTstop-control_1_3linestimulus20.png,TMTstop-control_1_3greenlinestimulus20.png,TMTstop-control_1_3redlinestimulus20.png,TMT_Control,3,73,None,1,1.0,132.54026794433594,132.54026794433594,0.0,,1.0,1.0,0.0,3,0.0739977999983239,132.54026794433594,132.54026794433594,0.0,,22.0
24,['1'],1,TMTstop-control_1_3linestimulus21.png,TMTstop-control_1_3greenlinestimulus21.png,TMTstop-control_1_3redlinestimulus21.png,TMT_Control,3,74,None,1,1.0,132.67330932617188,132.67330932617188,0.0,,1.0,1.0,0.0,1,0.12383549999503884,132.67330932617188,132.67330932617188,0.0,,23.0
25,['2'],2,TMTstop-control_1_3linestimulus22.png,TMTstop-control_1_3greenlinestimulus22.png,TMTstop-control_1_3redlinestimulus22.png,TMT_Control,3,75,None,1,1.0,132.86505126953125,132.86505126953125,0.0,,1.0,1.0,0.0,2,-0.04396239999914542,132.86505126953125,132.86505126953125,0.0,,24.0
None,None,None,TMTstop-control_1_3linestimulus23.png,TMTstop-control_1_3greenlinestimulus23.png,TMTstop-control_1_3redlinestimulus23.png,TMT_Control,3,Feedback_last,None,1,1.0,132.914794921875,132.914794921875,0.0,,0.0,0.0,0.0,3,1,2,3,0.06532309999602148,0.2291038999974262,0.2872624999945401,0.4559921999971266,132.914794921875,132.914794921875,0.0,,25.0

extraInfo
participant,
session,001
date,2022_May_23_1222
expName,TMT_fmri
psychopyVersion,2021.2.3
frameRate,59.98821831237917
﻿NumberLetter,corrAns,Correct,StimFile,Correct_StimFile,False_StimFile,Version,Paper,TrialNumber_Version,Round,Block,n,Stim_2.started_mean,Stim_2.started_raw,Stim_2.started_std,Stim_2.stopped_raw,key_resp_8.corr_mean,key_resp_8.corr_raw,key_resp_8.corr_std,key_resp_8.keys_raw,key_resp_8.rt_raw,key_resp_8.started_mean,key_resp_8.started_raw,key_resp_8.started_std,key_resp_8.stopped_raw,order
1,['2'],2,TMTstop-control_1_4.png,TMTstop-control_1_4.png,TMTstop-control_1_4.png,TMT_Control,4,76,None,1,1.0,137.0596923828125,137.0596923828125,0.0,,1.0,1.0,0.0,1,2,0.37044380000588717,0.4314193000027444,137.0596923828125,137.0596923828125,0.0,,0.0
2,['1'],1,TMTstop-control_1_4.png,TMTstop-control_1_4firstgreen.png,TMTstop-control_1_4firstred.png,TMT_Control,4,77,None,1,1.0,137.58087158203125,137.58087158203125,0.0,,1.0,1.0,0.0,3,1,0.056943899995530955,0.2169032999954652,137.58087158203125,137.58087158203125,0.0,,1.0
3,['3'],3,TMTstop-control_1_4linestimulus0.png,TMTstop-control_1_4greenlinestimulus0.png,TMTstop-control_1_4redlinestimulus0.png,TMT_Control,4,78,None,1,1.0,137.87216186523438,137.87216186523438,0.0,,1.0,1.0,0.0,2,3,-0.013828100003593136,0.09895409999444382,137.87216186523438,137.87216186523438,0.0,,2.0
4,['1'],1,TMTstop-control_1_4linestimulus1.png,TMTstop-control_1_4greenlinestimulus1.png,TMTstop-control_1_4redlinestimulus1.png,TMT_Control,4,79,None,1,1.0,138.06141662597656,138.06141662597656,0.0,,1.0,1.0,0.0,1,0.06745080000109738,138.06141662597656,138.06141662597656,0.0,,3.0
5,['3'],3,TMTstop-control_1_4linestimulus2.png,TMTstop-control_1_4greenlinestimulus2.png,TMTstop-control_1_4redlinestimulus2.png,TMT_Control,4,80,None,1,1.0,138.17860412597656,138.17860412597656,0.0,,1.0,1.0,0.0,2,3,-0.0006563999995705672,0.11331090000021504,138.17860412597656,138.17860412597656,0.0,,4.0
6,['1'],1,TMTstop-control_1_4linestimulus3.png,TMTstop-control_1_4greenlinestimulus3.png,TMTstop-control_1_4redlinestimulus3.png,TMT_Control,4,81,None,1,1.0,138.36399841308594,138.36399841308594,0.0,,1.0,1.0,0.0,1,0.08796129999973346,138.36399841308594,138.36399841308594,0.0,,5.0
7,['3'],3,TMTstop-control_1_4linestimulus4.png,TMTstop-control_1_4greenlinestimulus4.png,TMTstop-control_1_4redlinestimulus4.png,TMT_Control,4,82,None,1,1.0,138.51400756835938,138.51400756835938,0.0,,1.0,1.0,0.0,2,3,-0.019688799999130424,0.08339339999656659,138.51400756835938,138.51400756835938,0.0,,6.0
8,['1'],1,TMTstop-control_1_4linestimulus4.png,TMTstop-control_1_4greenlinestimulus5.png,TMTstop-control_1_4redlinestimulus5.png,TMT_Control,4,83,None,1,1.0,138.67617797851562,138.67617797851562,0.0,,1.0,1.0,0.0,1,0.08985830000165151,138.67617797851562,138.67617797851562,0.0,,7.0
9,['3'],3,TMTstop-control_1_4linestimulus6.png,TMTstop-control_1_4greenlinestimulus6.png,TMTstop-control_1_4redlinestimulus6.png,TMT_Control,4,84,None,1,1.0,138.82643127441406,138.82643127441406,0.0,,1.0,1.0,0.0,2,3,-0.017489000005298294,0.1260413999989396,138.82643127441406,138.82643127441406,0.0,,8.0
10,['2'],2,TMTstop-control_1_4linestimulus7.png,TMTstop-control_1_4greenlinestimulus7.png,TMTstop-control_1_4redlinestimulus7.png,TMT_Control,4,85,None,1,1.0,139.0113983154297,139.0113983154297,0.0,,1.0,1.0,0.0,1,2,0.09911190000275383,0.12809159999596886,139.0113983154297,139.0113983154297,0.0,,9.0
11,['1'],1,TMTstop-control_1_4linestimulus8.png,TMTstop-control_1_4greenlinestimulus8.png,TMTstop-control_1_4redlinestimulus8.png,TMT_Control,4,86,None,1,1.0,139.2219696044922,139.2219696044922,0.0,,1.0,1.0,0.0,3,1,0.05394240000168793,0.19780180000088876,139.2219696044922,139.2219696044922,0.0,,10.0
12,['3'],3,TMTstop-control_1_4linestimulus9.png,TMTstop-control_1_4greenlinestimulus9.png,TMTstop-control_1_4redlinestimulus9.png,TMT_Control,4,87,None,1,1.0,139.486572265625,139.486572265625,0.0,,1.0,1.0,0.0,2,3,-0.0012122999978601001,0.1288163999997778,139.486572265625,139.486572265625,0.0,,11.0
13,['2'],2,TMTstop-control_1_4linestimulus10.png,TMTstop-control_1_4greenlinestimulus10.png,TMTstop-control_1_4redlinestimulus10.png,TMT_Control,4,88,None,1,1.0,139.68667602539062,139.68667602539062,0.0,,1.0,1.0,0.0,1,2,0.06088820000150008,0.12524839999969117,139.68667602539062,139.68667602539062,0.0,,12.0
14,['3'],3,TMTstop-control_1_4linestimulus11.png,TMTstop-control_1_4greenlinestimulus11.png,TMTstop-control_1_4redlinestimulus11.png,TMT_Control,4,89,None,1,1.0,139.88040161132812,139.88040161132812,0.0,,1.0,1.0,0.0,3,0.07990939999581315,139.88040161132812,139.88040161132812,0.0,,13.0
15,['2'],2,TMTstop-control_1_4linestimulus12.png,TMTstop-control_1_4greenlinestimulus12.png,TMTstop-control_1_4redlinestimulus12.png,TMT_Control,4,90,None,1,1.0,140.01393127441406,140.01393127441406,0.0,,1.0,1.0,0.0,1,2,0.10643110000091838,0.16415199999755714,140.01393127441406,140.01393127441406,0.0,,14.0
16,['1'],1,TMTstop-control_1_4linestimulus13.png,TMTstop-control_1_4greenlinestimulus13.png,TMTstop-control_1_4redlinestimulus13.png,TMT_Control,4,91,None,1,1.0,140.2312469482422,140.2312469482422,0.0,,1.0,1.0,0.0,3,1,0.09815510000044014,0.24452590000146301,140.2312469482422,140.2312469482422,0.0,,15.0
17,['3'],3,TMTstop-control_1_4linestimulus14.png,TMTstop-control_1_4greenlinestimulus14.png,TMTstop-control_1_4redlinestimulus14.png,TMT_Control,4,92,None,1,1.0,140.56808471679688,140.56808471679688,0.0,,1.0,1.0,0.0,2,3,-0.03948169999785023,0.10870250000152737,140.56808471679688,140.56808471679688,0.0,,16.0
18,['1'],1,TMTstop-control_1_4linestimulus15.png,TMTstop-control_1_4greenlinestimulus15.png,TMTstop-control_1_4redlinestimulus15.png,TMT_Control,4,93,None,1,1.0,140.77392578125,140.77392578125,0.0,,1.0,1.0,0.0,1,0.05042880000110017,140.77392578125,140.77392578125,0.0,,17.0
19,['2'],2,TMTstop-control_1_4linestimulus16.png,TMTstop-control_1_4greenlinestimulus16.png,TMTstop-control_1_4redlinestimulus16.png,TMT_Control,4,94,None,1,1.0,140.88095092773438,140.88095092773438,0.0,,1.0,1.0,0.0,2,-0.011088600003859028,140.88095092773438,140.88095092773438,0.0,,18.0
20,['1'],1,TMTstop-control_1_4linestimulus17.png,TMTstop-control_1_4greenlinestimulus17.png,TMTstop-control_1_4redlinestimulus17.png,TMT_Control,4,95,None,1,1.0,140.9309539794922,140.9309539794922,0.0,,1.0,1.0,0.0,3,1,2,3,1,0.09513600000354927,0.27976380000473,0.31356919999961974,0.48082199999771547,0.6045790999996825,140.9309539794922,140.9309539794922,0.0,,19.0
21,['2'],2,TMTstop-control_1_4linestimulus18.png,TMTstop-control_1_4greenlinestimulus18.png,TMTstop-control_1_4redlinestimulus18.png,TMT_Control,4,96,None,1,1.0,141.59652709960938,141.59652709960938,0.0,,1.0,1.0,0.0,2,0.005675800006429199,141.59652709960938,141.59652709960938,0.0,,20.0
22,['1'],1,TMTstop-control_1_4linestimulus19.png,TMTstop-control_1_4greenlinestimulus19.png,TMTstop-control_1_4redlinestimulus19.png,TMT_Control,4,97,None,1,1.0,141.6693115234375,141.6693115234375,0.0,,1.0,1.0,0.0,3,1,0.0812411999941105,0.25994949999585515,141.6693115234375,141.6693115234375,0.0,,21.0
23,['2'],2,TMTstop-control_1_4linestimulus20.png,TMTstop-control_1_4greenlinestimulus20.png,TMTstop-control_1_4redlinestimulus20.png,TMT_Control,4,98,None,1,1.0,142.00894165039062,142.00894165039062,0.0,,1.0,1.0,0.0,2,-0.0261129000064102,142.00894165039062,142.00894165039062,0.0,,22.0
24,['1'],1,TMTstop-control_1_4linestimulus21.png,TMTstop-control_1_4greenlinestimulus21.png,TMTstop-control_1_4redlinestimulus21.png,TMT_Control,4,99,None,1,1.0,142.06033325195312,142.06033325195312,0.0,,1.0,1.0,0.0,3,1,0.06497130000207108,0.2387938000028953,142.06033325195312,142.06033325195312,0.0,,23.0
25,['2'],2,TMTstop-control_1_4linestimulus22.png,TMTstop-control_1_4greenlinestimulus22.png,TMTstop-control_1_4redlinestimulus22.png,TMT_Control,4,100,None,1,1.0,142.36502075195312,142.36502075195312,0.0,,1.0,1.0,0.0,2,-0.026576399999612477,142.36502075195312,142.36502075195312,0.0,,24.0
None,None,None,TMTstop-control_1_4linestimulus23.png,TMTstop-control_1_4greenlinestimulus23.png,TMTstop-control_1_4redlinestimulus23.png,TMT_Control,4,Feedback_last,None,1,1.0,142.4150390625,142.4150390625,0.0,,0.0,0.0,0.0,3,0.05703609999909531,142.4150390625,142.4150390625,0.0,,25.0

extraInfo
participant,
session,001
date,2022_May_23_1222
expName,TMT_fmri
psychopyVersion,2021.2.3
frameRate,59.98821831237917
