Block_file,Condition_rows,NumberLetter,corrAns,Correct,StimFile,Correct_StimFile,False_StimFile,Version,Block,TrialNumber_session,Blocks_TMTControl.thisRepN,Blocks_TMTControl.thisTrialN,Blocks_TMTControl.thisN,Blocks_TMTControl.thisIndex,trials_TMTControl.thisRepN,trials_TMTControl.thisTrialN,trials_TMTControl.thisN,trials_TMTControl.thisIndex,Blocks_TMTA.thisRepN,Blocks_TMTA.thisTrialN,Blocks_TMTA.thisN,Blocks_TMTA.thisIndex,Blocks_TMTB.thisRepN,Blocks_TMTB.thisTrialN,Blocks_TMTB.thisN,Blocks_TMTB.thisIndex,trials_TMTB.thisRepN,trials_TMTB.thisTrialN,trials_TMTB.thisN,trials_TMTB.thisIndex,key_resp_7.keys,key_resp_7.rt,key_resp_7.started,key_resp_7.stopped,polygon_2.started,polygon_2.stopped,Attempts,First_attempt,Stim.started,Stim.stopped,key_resp_2.keys,key_resp_2.corr,key_resp_2.rt,key_resp_2.started,key_resp_2.stopped,participant,session,date,expName,psychopyVersion,frameRate,
,,,,,,,,,,,,,,,,,,,,,,,,,,,,,,,s,2.889754100004211,10.37876980000874,None,,,,,,,,,,,,,001,2022_May_10_0948,TMT_fmri,2021.2.3,123.47462534130955,
TMTstop-Control_1_1.xlsx,0:26,1,['2'],2,TMTstop-control_1_1.png,TMTstop-control_1_1.png,TMTstop-control_1_1.png,TMT_Control,1,1,0,0,0,0,0,0,0,0,,,,,,,,,,,,,,,,,10.37876980000874,None,1,1,13.449876000013319,None,['2'],1,[1.0379112000082387],13.449876000013319,None,,001,2022_May_10_0948,TMT_fmri,2021.2.3,123.47462534130955,
TMTstop-Control_1_1.xlsx,0:26,2,['1'],1,TMTstop-control_1_1.png,TMTstop-control_1_1firstgreen.png,TMTstop-control_1_1firstred.png,TMT_Control,1,2,0,0,0,0,0,1,1,1,,,,,,,,,,,,,,,,,,,2,0,14.677379900007509,None,"['3', '1']",1,"[0.6739318000036292, 1.1862733000016306]",14.677379900007509,None,,001,2022_May_10_0948,TMT_fmri,2021.2.3,123.47462534130955,
TMTstop-Control_1_1.xlsx,0:26,3,['3'],3,TMTstop-control_1_1linestimulus0.png,TMTstop-control_1_1greenlinestimulus0.png,TMTstop-control_1_1redlinestimulus0.png,TMT_Control,1,3,0,0,0,0,0,2,2,2,,,,,,,,,,,,,,,,,,,2,0,16.034260300002643,None,"['2', '3']",1,"[0.23259569999936502, 0.483588699993561]",16.034260300002643,None,,001,2022_May_10_0948,TMT_fmri,2021.2.3,123.47462534130955,
TMTstop-Control_1_1.xlsx,0:26,4,['1'],1,TMTstop-control_1_1linestimulus1.png,TMTstop-control_1_1greenlinestimulus1.png,TMTstop-control_1_1redlinestimulus1.png,TMT_Control,1,4,0,0,0,0,0,3,3,3,,,,,,,,,,,,,,,,,,,1,1,16.692364100003033,None,['1'],1,[-0.005950699996901676],16.692364100003033,None,,001,2022_May_10_0948,TMT_fmri,2021.2.3,123.47462534130955,
TMTstop-Control_1_1.xlsx,0:26,5,['3'],3,TMTstop-control_1_1linestimulus2.png,TMTstop-control_1_1greenlinestimulus2.png,TMTstop-control_1_1redlinestimulus2.png,TMT_Control,1,5,0,0,0,0,0,4,4,4,,,,,,,,,,,,,,,,,,,2,0,16.817130500014173,None,"['2', '3']",1,"[-0.03586039999208879, 0.0636333000002196]",16.817130500014173,None,,001,2022_May_10_0948,TMT_fmri,2021.2.3,123.47462534130955,
TMTstop-Control_1_1.xlsx,0:26,6,['1'],1,TMTstop-control_1_1linestimulus3.png,TMTstop-control_1_1greenlinestimulus3.png,TMTstop-control_1_1redlinestimulus3.png,TMT_Control,1,6,0,0,0,0,0,5,5,5,,,,,,,,,,,,,,,,,,,1,1,17.084075700011454,None,['1'],1,[-0.04808749999210704],17.084075700011454,None,,001,2022_May_10_0948,TMT_fmri,2021.2.3,123.47462534130955,
TMTstop-Control_1_1.xlsx,0:26,7,['2'],2,TMTstop-control_1_1linestimulus4.png,TMTstop-control_1_1greenlinestimulus4.png,TMTstop-control_1_1redlinestimulus4.png,TMT_Control,1,7,0,0,0,0,0,6,6,6,,,,,,,,,,,,,,,,,,,4,0,17.225044200007687,None,"['3', '1', '3', '2']",1,"[-0.04678570000396576, 0.10725619998993352, 0.2552671999874292, 1.9005747999908635]",17.225044200007687,None,,001,2022_May_10_0948,TMT_fmri,2021.2.3,123.47462534130955,
TMTstop-Control_1_1.xlsx,0:26,8,['1'],1,TMTstop-control_1_1linestimulus4.png,TMTstop-control_1_1greenlinestimulus5.png,TMTstop-control_1_1redlinestimulus5.png,TMT_Control,1,8,0,0,0,0,0,7,7,7,,,,,,,,,,,,,,,,,,,0,0,19.30357480001112,None,None,0,,19.30357480001112,None,,001,2022_May_10_0948,TMT_fmri,2021.2.3,123.47462534130955,
TMTstop-Control_1_2.xlsx,26:52,1,['2'],2,TMTstop-control_1_2.png,TMTstop-control_1_2.png,TMTstop-control_1_2.png,TMT_Control,2,26,0,1,1,1,0,0,0,0,,,,,,,,,,,,,,,,,,,0,0,26.639329540004837,None,None,0,,26.639329540004837,None,,001,2022_May_10_0948,TMT_fmri,2021.2.3,123.47462534130955,
TMTstop-Control_1_3.xlsx,52:78,1,['2'],2,TMTstop-control_1_3.png,TMTstop-control_1_3.png,TMTstop-control_1_3.png,TMT_Control,3,51,0,2,2,2,0,0,0,0,,,,,,,,,,,,,,,,,,,0,0,29.754057020007167,None,None,0,,29.754057020007167,None,,001,2022_May_10_0948,TMT_fmri,2021.2.3,123.47462534130955,
TMTstop-Control_1_4.xlsx,78:104,1,['2'],2,TMTstop-control_1_4.png,TMTstop-control_1_4.png,TMTstop-control_1_4.png,TMT_Control,4,76,0,3,3,3,0,0,0,0,,,,,,,,,,,,,,,,,,,0,0,32.84365650000109,None,None,0,,32.84365650000109,None,,001,2022_May_10_0948,TMT_fmri,2021.2.3,123.47462534130955,
TMTstop-Control_1_5.xlsx,104:130,1,['3'],3,TMTstop-control_1_5.png,TMTstop-control_1_5.png,TMTstop-control_1_5.png,TMT_Control,5,101,0,4,4,4,0,0,0,0,,,,,,,,,,,,,,,,,,,0,0,35.97075762000168,None,None,0,,35.97075762000168,None,,001,2022_May_10_0948,TMT_fmri,2021.2.3,123.47462534130955,
TMTstop-Control_1_6.xlsx,130:156,1,['3'],3,TMTstop-control_1_6.png,TMTstop-control_1_6.png,TMTstop-control_1_6.png,TMT_Control,6,126,0,5,5,5,0,0,0,0,,,,,,,,,,,,,,,,,,,0,0,39.102491519995965,None,None,0,,39.102491519995965,None,,001,2022_May_10_0948,TMT_fmri,2021.2.3,123.47462534130955,
TMTstop-Control_1_7.xlsx,156:182,1,['1'],1,TMTstop-control_1_7.png,TMTstop-control_1_7.png,TMTstop-control_1_7.png,TMT_Control,7,151,0,6,6,6,0,0,0,0,,,,,,,,,,,,,,,,,,,0,0,42.188001300004544,None,None,0,,42.188001300004544,None,,001,2022_May_10_0948,TMT_fmri,2021.2.3,123.47462534130955,
TMTstop-Control_1_8.xlsx,182:208,1,['3'],3,TMTstop-control_1_8.png,TMTstop-control_1_8.png,TMTstop-control_1_8.png,TMT_Control,8,176,0,7,7,7,0,0,0,0,,,,,,,,,,,,,,,,,,,0,0,45.35063061999972,None,None,0,,45.35063061999972,None,,001,2022_May_10_0948,TMT_fmri,2021.2.3,123.47462534130955,
TMTstop-B_1_1.xlsx,0:26,1,['3'],3,TMTstop-B_1_1.png,TMTstop-B_1_1.png,TMTstop-B_1_1.png,TMT_B,1,1,,,,,,,,,,,,,0,0,0,0,0,0,0,0,,,,,,,5,0,68.51714560000983,None,"['1', '3', '2', '1', '3']",1,"[-30.01605940000445, -29.009643800003687, -28.31561679999868, 1.672448199999053, 1.9819162999920081]",68.51714560000983,None,,001,2022_May_10_0948,TMT_fmri,2021.2.3,123.47462534130955,
TMTstop-B_1_1.xlsx,0:26,A,['1'],1,TMTstop-B_1_1.png,TMTstop-B_1_1firstgreen.png,TMTstop-B_1_1firstred.png,TMT_B,1,2,,,,,,,,,,,,,0,0,0,0,0,1,1,1,,,,,,,1,1,70.6932388000132,None,['1'],1,[0.0827244999964023],70.6932388000132,None,,001,2022_May_10_0948,TMT_fmri,2021.2.3,123.47462534130955,
TMTstop-B_1_1.xlsx,0:26,2,['3'],3,TMTstop-B_1_1linestimulus0.png,TMTstop-B_1_1greenlinestimulus0.png,TMTstop-B_1_1redlinestimulus0.png,TMT_B,1,3,,,,,,,,,,,,,0,0,0,0,0,2,2,2,,,,,,,2,0,70.94357220000529,None,"['2', '3']",1,"[-0.04855859999952372, 0.04411149999941699]",70.94357220000529,None,,001,2022_May_10_0948,TMT_fmri,2021.2.3,123.47462534130955,
TMTstop-B_1_1.xlsx,0:26,B,['2'],2,TMTstop-B_1_1linestimulus1.png,TMTstop-B_1_1greenlinestimulus1.png,TMTstop-B_1_1redlinestimulus1.png,TMT_B,1,4,,,,,,,,,,,,,0,0,0,0,0,3,3,3,,,,,,,2,0,71.0707301000075,None,"['1', '2']",1,"[0.131544899995788, 0.24311689999012742]",71.0707301000075,None,,001,2022_May_10_0948,TMT_fmri,2021.2.3,123.47462534130955,
TMTstop-B_1_1.xlsx,0:26,3,['1'],1,TMTstop-B_1_1linestimulus2.png,TMTstop-B_1_1greenlinestimulus2.png,TMTstop-B_1_1redlinestimulus2.png,TMT_B,1,5,,,,,,,,,,,,,0,0,0,0,0,4,4,4,,,,,,,2,0,71.44926310000301,None,"['3', '1']",1,"[-0.09035860000585672, 0.11175539999385364]",71.44926310000301,None,,001,2022_May_10_0948,TMT_fmri,2021.2.3,123.47462534130955,
TMTstop-B_1_1.xlsx,0:26,C,['3'],3,TMTstop-B_1_1linestimulus3.png,TMTstop-B_1_1greenlinestimulus3.png,TMTstop-B_1_1redlinestimulus3.png,TMT_B,1,6,,,,,,,,,,,,,0,0,0,0,0,5,5,5,,,,,,,2,0,71.70470560000103,None,"['2', '3']",1,"[-0.06966459999966901, 0.011582300008740276]",71.70470560000103,None,,001,2022_May_10_0948,TMT_fmri,2021.2.3,123.47462534130955,
TMTstop-B_1_1.xlsx,0:26,4,['2'],2,TMTstop-B_1_1linestimulus4.png,TMTstop-B_1_1greenlinestimulus4.png,TMTstop-B_1_1redlinestimulus4.png,TMT_B,1,7,,,,,,,,,,,,,0,0,0,0,0,6,6,6,,,,,,,2,0,71.83695130000706,None,"['1', '2']",1,"[0.0632876000017859, 0.13167329999851063]",71.83695130000706,None,,001,2022_May_10_0948,TMT_fmri,2021.2.3,123.47462534130955,
TMTstop-B_1_1.xlsx,0:26,D,['1'],1,TMTstop-B_1_1linestimulus5.png,TMTstop-B_1_1greenlinestimulus5.png,TMTstop-B_1_1redlinestimulus5.png,TMT_B,1,8,,,,,,,,,,,,,0,0,0,0,0,7,7,7,,,,,,,2,0,72.09501340000133,None,"['3', '1']",1,"[-0.03067580000788439, 0.14917499999864958]",72.09501340000133,None,,001,2022_May_10_0948,TMT_fmri,2021.2.3,123.47462534130955,
TMTstop-B_1_1.xlsx,0:26,5,['3'],3,TMTstop-B_1_1linestimulus6.png,TMTstop-B_1_1greenlinestimulus6.png,TMTstop-B_1_1redlinestimulus6.png,TMT_B,1,9,,,,,,,,,,,,,0,0,0,0,0,8,8,8,,,,,,,2,0,72.42536940000718,None,"['2', '3']",1,"[-0.08526049999636598, -0.009497799997916445]",72.42536940000718,None,,001,2022_May_10_0948,TMT_fmri,2021.2.3,123.47462534130955,
TMTstop-B_1_1.xlsx,0:26,E,['1'],1,TMTstop-B_1_1linestimulus7.png,TMTstop-B_1_1greenlinestimulus7.png,TMTstop-B_1_1redlinestimulus7.png,TMT_B,1,10,,,,,,,,,,,,,0,0,0,0,0,9,9,9,,,,,,,1,1,72.55298340000445,None,['1'],1,[0.057597399994847365],72.55298340000445,None,,001,2022_May_10_0948,TMT_fmri,2021.2.3,123.47462534130955,
TMTstop-B_1_1.xlsx,0:26,6,['3'],3,TMTstop-B_1_1linestimulus8.png,TMTstop-B_1_1greenlinestimulus8.png,TMTstop-B_1_1redlinestimulus8.png,TMT_B,1,11,,,,,,,,,,,,,0,0,0,0,0,10,10,10,,,,,,,2,0,72.69474220000848,None,"['2', '3']",1,"[-0.01769609999610111, 0.07330489999731071]",72.69474220000848,None,,001,2022_May_10_0948,TMT_fmri,2021.2.3,123.47462534130955,
TMTstop-B_1_1.xlsx,0:26,F,['1'],1,TMTstop-B_1_1linestimulus9.png,TMTstop-B_1_1greenlinestimulus9.png,TMTstop-B_1_1redlinestimulus9.png,TMT_B,1,12,,,,,,,,,,,,,0,0,0,0,0,11,11,11,,,,,,,2,0,72.94781940001121,None,"['2', '1']",1,"[0.06565029999183025, 0.1491078999970341]",72.94781940001121,None,,001,2022_May_10_0948,TMT_fmri,2021.2.3,123.47462534130955,
TMTstop-B_1_1.xlsx,0:26,7,['3'],3,TMTstop-B_1_1linestimulus10.png,TMTstop-B_1_1greenlinestimulus10.png,TMTstop-B_1_1redlinestimulus10.png,TMT_B,1,13,,,,,,,,,,,,,0,0,0,0,0,12,12,12,,,,,,,1,1,73.2166353000066,None,['3'],1,[0.0769402000005357],73.2166353000066,None,,001,2022_May_10_0948,TMT_fmri,2021.2.3,123.47462534130955,
TMTstop-B_1_1.xlsx,0:26,G,['2'],2,TMTstop-B_1_1linestimulus11.png,TMTstop-B_1_1greenlinestimulus11.png,TMTstop-B_1_1redlinestimulus11.png,TMT_B,1,14,,,,,,,,,,,,,0,0,0,0,0,13,13,13,,,,,,,2,0,73.48123870001291,None,"['1', '2']",1,"[-0.0007528000132879242, 0.09304290000000037]",73.48123870001291,None,,001,2022_May_10_0948,TMT_fmri,2021.2.3,123.47462534130955,
TMTstop-B_1_1.xlsx,0:26,8,['3'],3,TMTstop-B_1_1linestimulus12.png,TMTstop-B_1_1greenlinestimulus12.png,TMTstop-B_1_1redlinestimulus12.png,TMT_B,1,15,,,,,,,,,,,,,0,0,0,0,0,14,14,14,,,,,,,1,1,73.74683620000724,None,['3'],1,[0.01150239999697078],73.74683620000724,None,,001,2022_May_10_0948,TMT_fmri,2021.2.3,123.47462534130955,
TMTstop-B_1_1.xlsx,0:26,H,['1'],1,TMTstop-B_1_1linestimulus13.png,TMTstop-B_1_1greenlinestimulus13.png,TMTstop-B_1_1redlinestimulus13.png,TMT_B,1,16,,,,,,,,,,,,,0,0,0,0,0,15,15,15,,,,,,,1,1,73.87211500000558,None,['1'],1,[0.04435860000376124],73.87211500000558,None,,001,2022_May_10_0948,TMT_fmri,2021.2.3,123.47462534130955,
TMTstop-B_1_1.xlsx,0:26,9,['3'],3,TMTstop-B_1_1linestimulus14.png,TMTstop-B_1_1greenlinestimulus14.png,TMTstop-B_1_1redlinestimulus14.png,TMT_B,1,17,,,,,,,,,,,,,0,0,0,0,0,16,16,16,,,,,,,2,0,74.01358450000407,None,"['2', '3']",1,"[0.015453499989234842, 0.1097031999961473]",74.01358450000407,None,,001,2022_May_10_0948,TMT_fmri,2021.2.3,123.47462534130955,
TMTstop-B_1_1.xlsx,0:26,I,['2'],2,TMTstop-B_1_1linestimulus15.png,TMTstop-B_1_1greenlinestimulus15.png,TMTstop-B_1_1redlinestimulus15.png,TMT_B,1,18,,,,,,,,,,,,,0,0,0,0,0,17,17,17,,,,,,,2,0,74.28358920000028,None,"['1', '2']",1,"[0.026370999999926426, 0.10225299999001436]",74.28358920000028,None,,001,2022_May_10_0948,TMT_fmri,2021.2.3,123.47462534130955,
TMTstop-B_1_1.xlsx,0:26,10,['3'],3,TMTstop-B_1_1linestimulus16.png,TMTstop-B_1_1greenlinestimulus16.png,TMTstop-B_1_1redlinestimulus16.png,TMT_B,1,19,,,,,,,,,,,,,0,0,0,0,0,18,18,18,,,,,,,1,1,74.54840260000492,None,['3'],1,[-0.048200199991697446],74.54840260000492,None,,001,2022_May_10_0948,TMT_fmri,2021.2.3,123.47462534130955,
TMTstop-B_1_1.xlsx,0:26,J,['2'],2,TMTstop-B_1_1linestimulus17.png,TMTstop-B_1_1greenlinestimulus17.png,TMTstop-B_1_1redlinestimulus17.png,TMT_B,1,20,,,,,,,,,,,,,0,0,0,0,0,19,19,19,,,,,,,2,0,74.67515290000301,None,"['1', '2']",1,"[-0.01392630000191275, 0.05959150000126101]",74.67515290000301,None,,001,2022_May_10_0948,TMT_fmri,2021.2.3,123.47462534130955,
TMTstop-B_1_1.xlsx,0:26,11,['1'],1,TMTstop-B_1_1linestimulus18.png,TMTstop-B_1_1greenlinestimulus18.png,TMTstop-B_1_1redlinestimulus18.png,TMT_B,1,21,,,,,,,,,,,,,0,0,0,0,0,20,20,20,,,,,,,2,0,74.92787300000782,None,"['3', '1']",1,"[-0.08112089999485761, 0.0792481999960728]",74.92787300000782,None,,001,2022_May_10_0948,TMT_fmri,2021.2.3,123.47462534130955,
TMTstop-B_1_1.xlsx,0:26,K,['2'],2,TMTstop-B_1_1linestimulus19.png,TMTstop-B_1_1greenlinestimulus19.png,TMTstop-B_1_1redlinestimulus19.png,TMT_B,1,22,,,,,,,,,,,,,0,0,0,0,0,21,21,21,,,,,,,1,1,75.1796628000011,None,['2'],1,[-0.09420010000758339],75.1796628000011,None,,001,2022_May_10_0948,TMT_fmri,2021.2.3,123.47462534130955,
TMTstop-B_1_1.xlsx,0:26,12,['1'],1,TMTstop-B_1_1linestimulus20.png,TMTstop-B_1_1greenlinestimulus20.png,TMTstop-B_1_1redlinestimulus20.png,TMT_B,1,23,,,,,,,,,,,,,0,0,0,0,0,22,22,22,,,,,,,2,0,75.3057695000025,None,"['3', '1']",1,"[-0.1086970000033034, 0.05943850000039674]",75.3057695000025,None,,001,2022_May_10_0948,TMT_fmri,2021.2.3,123.47462534130955,
TMTstop-B_1_1.xlsx,0:26,L,['2'],2,TMTstop-B_1_1linestimulus21.png,TMTstop-B_1_1greenlinestimulus21.png,TMTstop-B_1_1redlinestimulus21.png,TMT_B,1,24,,,,,,,,,,,,,0,0,0,0,0,23,23,23,,,,,,,4,0,75.55935840000166,None,"['2', '3', '1', '2']",1,"[-0.11783829999330919, -0.0074757999973371625, 0.15509040000324603, 0.23013290000380948]",75.55935840000166,None,,001,2022_May_10_0948,TMT_fmri,2021.2.3,123.47462534130955,
TMTstop-B_1_1.xlsx,0:26,13,['1'],1,TMTstop-B_1_1linestimulus22.png,TMTstop-B_1_1greenlinestimulus22.png,TMTstop-B_1_1redlinestimulus22.png,TMT_B,1,25,,,,,,,,,,,,,0,0,0,0,0,24,24,24,,,,,,,2,0,75.958673000001,None,"['3', '1']",1,"[-0.06080169999040663, 0.09014460000616964]",75.958673000001,None,,001,2022_May_10_0948,TMT_fmri,2021.2.3,123.47462534130955,
TMTstop-B_1_1.xlsx,0:26,None,None,None,TMTstop-B_1_1linestimulus23.png,TMTstop-B_1_1greenlinestimulus23.png,TMTstop-B_1_1redlinestimulus23.png,TMT_B,1,Feedback_last,,,,,,,,,,,,,0,0,0,0,0,25,25,25,,,,,,,5,0,76.2269321000058,None,"['2', '3', '1', '2', '3']",0,"[-0.09479380000266246, 0.0095792999927653, 0.15009049999935087, 0.23397859999386128, 0.3436597999971127]",76.2269321000058,None,,001,2022_May_10_0948,TMT_fmri,2021.2.3,123.47462534130955,
TMTstop-B_1_2.xlsx,26:52,1,['1'],1,TMTstop-B_1_2.png,TMTstop-B_1_2.png,TMTstop-B_1_2.png,TMT_B,2,26,,,,,,,,,,,,,0,1,1,1,0,0,0,0,,,,,,,0,0,80.31053108000197,None,None,0,,80.31053108000197,None,,001,2022_May_10_0948,TMT_fmri,2021.2.3,123.47462534130955,
TMTstop-B_1_3.xlsx,52:78,1,['2'],2,TMTstop-B_1_3.png,TMTstop-B_1_3.png,TMTstop-B_1_3.png,TMT_B,3,51,,,,,,,,,,,,,0,2,2,2,0,0,0,0,,,,,,,0,0,83.38718458000221,None,None,0,,83.38718458000221,None,,001,2022_May_10_0948,TMT_fmri,2021.2.3,123.47462534130955,
TMTstop-B_1_4.xlsx,78:104,1,['3'],3,TMTstop-B_1_4.png,TMTstop-B_1_4.png,TMTstop-B_1_4.png,TMT_B,4,76,,,,,,,,,,,,,0,3,3,3,0,0,0,0,,,,,,,0,0,86.5007113800093,None,None,0,,86.5007113800093,None,,001,2022_May_10_0948,TMT_fmri,2021.2.3,123.47462534130955,
TMTstop-B_1_5.xlsx,104:130,1,['1'],1,TMTstop-B_1_5.png,TMTstop-B_1_5.png,TMTstop-B_1_5.png,TMT_B,5,101,,,,,,,,,,,,,0,4,4,4,0,0,0,0,,,,,,,0,0,89.59176178000052,None,None,0,,89.59176178000052,None,,001,2022_May_10_0948,TMT_fmri,2021.2.3,123.47462534130955,
