NumberLetter,corrAns,Correct,StimFile,Correct_StimFile,False_StimFile,Block,TrialNumber_session,n,Stim.started_mean,Stim.started_raw,Stim.started_std,Stim.stopped_raw,key_resp_2.corr_mean,key_resp_2.corr_raw,key_resp_2.corr_std,key_resp_2.keys_raw,key_resp_2.rt_raw,key_resp_2.started_mean,key_resp_2.started_raw,key_resp_2.started_std,key_resp_2.stopped_raw,order
1,['2'],2,TMTstop-A_1_1.png,TMTstop-A_1_1.png,TMTstop-A_1_1.png,1,1,1.0,95.8619384765625,95.8619384765625,0.0,,1.0,1.0,0.0,1,2,1.1183887999504805,1.2870211000554264,95.8619384765625,95.8619384765625,0.0,,0.0
2,['1'],1,TMTstop-A_1_1.png,TMTstop-A_1_1firstgreen.png,TMTstop-A_1_1firstred.png,1,2,1.0,97.22273254394531,97.22273254394531,0.0,,1.0,1.0,0.0,3,1,-0.05019069998525083,0.14183600014075637,97.22273254394531,97.22273254394531,0.0,,1.0
3,['2'],2,TMTstop-A_1_1linestimulus0.png,TMTstop-A_1_1greenlinestimulus0.png,TMTstop-A_1_1redlinestimulus0.png,1,3,1.0,97.45893096923828,97.45893096923828,0.0,,1.0,1.0,0.0,2,-0.03992050001397729,97.45893096923828,97.45893096923828,0.0,,2.0
4,['3'],3,TMTstop-A_1_1linestimulus1.png,TMTstop-A_1_1greenlinestimulus1.png,TMTstop-A_1_1redlinestimulus1.png,1,4,1.0,97.5418701171875,97.5418701171875,0.0,,1.0,1.0,0.0,3,-0.005878000054508448,97.5418701171875,97.5418701171875,0.0,,3.0
5,['2'],2,TMTstop-A_1_1linestimulus2.png,TMTstop-A_1_1greenlinestimulus2.png,TMTstop-A_1_1redlinestimulus2.png,1,5,1.0,97.61857604980469,97.61857604980469,0.0,,1.0,1.0,0.0,1,2,0.08689129981212318,0.16787449992261827,97.61857604980469,97.61857604980469,0.0,,4.0
6,['3'],3,TMTstop-A_1_1linestimulus3.png,TMTstop-A_1_1greenlinestimulus3.png,TMTstop-A_1_1redlinestimulus3.png,1,6,1.0,97.86844635009766,97.86844635009766,0.0,,1.0,1.0,0.0,3,0.020755699835717678,97.86844635009766,97.86844635009766,0.0,,5.0
7,['2'],2,TMTstop-A_1_1linestimulus4.png,TMTstop-A_1_1greenlinestimulus4.png,TMTstop-A_1_1redlinestimulus4.png,1,7,1.0,97.96685791015625,97.96685791015625,0.0,,1.0,1.0,0.0,1,2,0.1354189000558108,0.21378200012259185,97.96685791015625,97.96685791015625,0.0,,6.0
8,['1'],1,TMTstop-A_1_1linestimulus5.png,TMTstop-A_1_1greenlinestimulus5.png,TMTstop-A_1_1redlinestimulus5.png,1,8,1.0,98.26081848144531,98.26081848144531,0.0,,1.0,1.0,0.0,3,1,0.03663249989040196,0.3828308000229299,98.26081848144531,98.26081848144531,0.0,,7.0
9,['2'],2,TMTstop-A_1_1linestimulus6.png,TMTstop-A_1_1greenlinestimulus6.png,TMTstop-A_1_1redlinestimulus6.png,1,9,1.0,98.7508544921875,98.7508544921875,0.0,,1.0,1.0,0.0,2,-0.06254500010982156,98.7508544921875,98.7508544921875,0.0,,8.0
10,['1'],1,TMTstop-A_1_1linestimulus7.png,TMTstop-A_1_1greenlinestimulus7.png,TMTstop-A_1_1redlinestimulus7.png,1,10,1.0,98.81995391845703,98.81995391845703,0.0,,1.0,1.0,0.0,3,1,-0.022978199878707528,0.19244580017402768,98.81995391845703,98.81995391845703,0.0,,9.0
11,['2'],2,TMTstop-A_1_1linestimulus8.png,TMTstop-A_1_1greenlinestimulus8.png,TMTstop-A_1_1redlinestimulus8.png,1,11,1.0,99.11150360107422,99.11150360107422,0.0,,1.0,1.0,0.0,2,-0.052175499964505434,99.11150360107422,99.11150360107422,0.0,,10.0
12,['3'],3,TMTstop-A_1_1linestimulus9.png,TMTstop-A_1_1greenlinestimulus9.png,TMTstop-A_1_1redlinestimulus9.png,1,12,1.0,99.18807220458984,99.18807220458984,0.0,,1.0,1.0,0.0,3,0.015424800105392933,99.18807220458984,99.18807220458984,0.0,,11.0
13,['2'],2,TMTstop-A_1_1linestimulus10.png,TMTstop-A_1_1greenlinestimulus10.png,TMTstop-A_1_1redlinestimulus10.png,1,13,1.0,99.27816772460938,99.27816772460938,0.0,,1.0,1.0,0.0,1,2,0.34850770002231,0.39436980010941625,99.27816772460938,99.27816772460938,0.0,,12.0
14,['3'],3,TMTstop-A_1_1linestimulus11.png,TMTstop-A_1_1greenlinestimulus11.png,TMTstop-A_1_1redlinestimulus11.png,1,14,1.0,99.75727844238281,99.75727844238281,0.0,,1.0,1.0,0.0,3,0.05521010002121329,99.75727844238281,99.75727844238281,0.0,,13.0
15,['1'],1,TMTstop-A_1_1linestimulus12.png,TMTstop-A_1_1greenlinestimulus12.png,TMTstop-A_1_1redlinestimulus12.png,1,15,1.0,99.89033508300781,99.89033508300781,0.0,,1.0,1.0,0.0,1,0.09445429989136755,99.89033508300781,99.89033508300781,0.0,,14.0
16,['3'],3,TMTstop-A_1_1linestimulus13.png,TMTstop-A_1_1greenlinestimulus13.png,TMTstop-A_1_1redlinestimulus13.png,1,16,1.0,100.06976318359375,100.06976318359375,0.0,,1.0,1.0,0.0,2,3,-0.050052800215780735,0.08249489986337721,100.06976318359375,100.06976318359375,0.0,,15.0
17,['2'],2,TMTstop-A_1_1linestimulus14.png,TMTstop-A_1_1greenlinestimulus14.png,TMTstop-A_1_1redlinestimulus14.png,1,17,1.0,100.22276306152344,100.22276306152344,0.0,,1.0,1.0,0.0,1,2,0.07713350001722574,0.15152100007981062,100.22276306152344,100.22276306152344,0.0,,16.0
18,['3'],3,TMTstop-A_1_1linestimulus15.png,TMTstop-A_1_1greenlinestimulus15.png,TMTstop-A_1_1redlinestimulus15.png,1,18,1.0,100.45903015136719,100.45903015136719,0.0,,1.0,1.0,0.0,1,2,3,0.1540552000515163,0.1870816999580711,0.31282370002008975,100.45903015136719,100.45903015136719,0.0,,17.0
19,['1'],1,TMTstop-A_1_1linestimulus16.png,TMTstop-A_1_1greenlinestimulus16.png,TMTstop-A_1_1redlinestimulus16.png,1,19,1.0,100.90510559082031,100.90510559082031,0.0,,1.0,1.0,0.0,1,0.018558500101789832,100.90510559082031,100.90510559082031,0.0,,18.0
20,['3'],3,TMTstop-A_1_1linestimulus17.png,TMTstop-A_1_1greenlinestimulus17.png,TMTstop-A_1_1redlinestimulus17.png,1,20,1.0,101.02238464355469,101.02238464355469,0.0,,1.0,1.0,0.0,2,3,-0.03009709995239973,0.07209919998422265,101.02238464355469,101.02238464355469,0.0,,19.0
21,['1'],1,TMTstop-A_1_1linestimulus18.png,TMTstop-A_1_1greenlinestimulus18.png,TMTstop-A_1_1redlinestimulus18.png,1,21,1.0,101.18156433105469,101.18156433105469,0.0,,1.0,1.0,0.0,1,0.053375800140202045,101.18156433105469,101.18156433105469,0.0,,20.0
22,['3'],3,TMTstop-A_1_1linestimulus19.png,TMTstop-A_1_1greenlinestimulus19.png,TMTstop-A_1_1redlinestimulus19.png,1,22,1.0,101.3205795288086,101.3205795288086,0.0,,1.0,1.0,0.0,2,3,-0.021114900009706616,0.08417879999615252,101.3205795288086,101.3205795288086,0.0,,21.0
23,['1'],1,TMTstop-A_1_1linestimulus20.png,TMTstop-A_1_1greenlinestimulus20.png,TMTstop-A_1_1redlinestimulus20.png,1,23,1.0,101.52201080322266,101.52201080322266,0.0,,1.0,1.0,0.0,1,0.03513299999758601,101.52201080322266,101.52201080322266,0.0,,22.0
24,['2'],2,TMTstop-A_1_1linestimulus21.png,TMTstop-A_1_1greenlinestimulus21.png,TMTstop-A_1_1redlinestimulus21.png,1,24,1.0,101.63237762451172,101.63237762451172,0.0,,1.0,1.0,0.0,2,-0.01691260002553463,101.63237762451172,101.63237762451172,0.0,,23.0
25,['3'],3,TMTstop-A_1_1linestimulus22.png,TMTstop-A_1_1greenlinestimulus22.png,TMTstop-A_1_1redlinestimulus22.png,1,25,1.0,101.7087173461914,101.7087173461914,0.0,,1.0,1.0,0.0,3,0.015887999907135963,101.7087173461914,101.7087173461914,0.0,,24.0
None,None,None,TMTstop-A_1_1linestimulus23.png,TMTstop-A_1_1greenlinestimulus23.png,TMTstop-A_1_1redlinestimulus23.png,1,Feedback_last,1.0,101.80704498291016,101.80704498291016,0.0,,0.0,0.0,0.0,1,2,3,0.046930599957704544,0.09735450008884072,0.25468460004776716,101.80704498291016,101.80704498291016,0.0,,25.0

extraInfo
participant,
session,001
date,2022_Feb_02_1703
expName,TMTAstop-A
psychopyVersion,2021.2.3
frameRate,145.11702956511184
﻿NumberLetter,corrAns,Correct,StimFile,Correct_StimFile,False_StimFile,Block,TrialNumber_session,n,Stim.started_mean,Stim.started_raw,Stim.started_std,Stim.stopped_raw,key_resp_2.corr_mean,key_resp_2.corr_raw,key_resp_2.corr_std,key_resp_2.keys_raw,key_resp_2.rt_raw,key_resp_2.started_mean,key_resp_2.started_raw,key_resp_2.started_std,key_resp_2.stopped_raw,order
1,['3'],3,TMTstop-A_1_2.png,TMTstop-A_1_2.png,TMTstop-A_1_2.png,2,26,1.0,105.9302978515625,105.9302978515625,0.0,,1.0,1.0,0.0,1,2,3,0.48405249998904765,0.544050799915567,0.6406868000049144,105.9302978515625,105.9302978515625,0.0,,0.0
2,['2'],2,TMTstop-A_1_2.png,TMTstop-A_1_2firstgreen.png,TMTstop-A_1_2firstred.png,2,27,1.0,106.63921356201172,106.63921356201172,0.0,,1.0,1.0,0.0,1,2,0.09743770002387464,0.15651459991931915,106.63921356201172,106.63921356201172,0.0,,1.0
3,['3'],3,TMTstop-A_1_2linestimulus0.png,TMTstop-A_1_2greenlinestimulus0.png,TMTstop-A_1_2redlinestimulus0.png,2,28,1.0,106.89627838134766,106.89627838134766,0.0,,1.0,1.0,0.0,3,-0.005098799942061305,106.89627838134766,106.89627838134766,0.0,,2.0
4,['1'],1,TMTstop-A_1_2linestimulus1.png,TMTstop-A_1_2greenlinestimulus1.png,TMTstop-A_1_2redlinestimulus1.png,2,29,1.0,106.97059631347656,106.97059631347656,0.0,,1.0,1.0,0.0,1,0.07972100004553795,106.97059631347656,106.97059631347656,0.0,,3.0
5,['2'],2,TMTstop-A_1_2linestimulus2.png,TMTstop-A_1_2greenlinestimulus2.png,TMTstop-A_1_2redlinestimulus2.png,2,30,1.0,107.13233947753906,107.13233947753906,0.0,,1.0,1.0,0.0,2,-0.04847829998470843,107.13233947753906,107.13233947753906,0.0,,4.0
6,['3'],3,TMTstop-A_1_2linestimulus3.png,TMTstop-A_1_2greenlinestimulus3.png,TMTstop-A_1_2redlinestimulus3.png,2,31,1.0,107.20841979980469,107.20841979980469,0.0,,1.0,1.0,0.0,3,0.007835800061002374,107.20841979980469,107.20841979980469,0.0,,5.0
7,['2'],2,TMTstop-A_1_2linestimulus4.png,TMTstop-A_1_2greenlinestimulus4.png,TMTstop-A_1_2redlinestimulus4.png,2,32,1.0,107.2923583984375,107.2923583984375,0.0,,1.0,1.0,0.0,1,2,0.08101720013655722,0.11119480011984706,107.2923583984375,107.2923583984375,0.0,,6.0
8,['1'],1,TMTstop-A_1_2linestimulus5.png,TMTstop-A_1_2greenlinestimulus5.png,TMTstop-A_1_2redlinestimulus5.png,2,33,1.0,107.486572265625,107.486572265625,0.0,,1.0,1.0,0.0,3,1,0.05281839985400438,0.20749229984357953,107.486572265625,107.486572265625,0.0,,7.0
9,['2'],2,TMTstop-A_1_2linestimulus6.png,TMTstop-A_1_2greenlinestimulus6.png,TMTstop-A_1_2redlinestimulus6.png,2,34,1.0,107.77119445800781,107.77119445800781,0.0,,1.0,1.0,0.0,2,-0.04490330000407994,107.77119445800781,107.77119445800781,0.0,,8.0
10,['3'],3,TMTstop-A_1_2linestimulus7.png,TMTstop-A_1_2greenlinestimulus7.png,TMTstop-A_1_2redlinestimulus7.png,2,35,1.0,107.84088134765625,107.84088134765625,0.0,,1.0,1.0,0.0,3,0.025858100038021803,107.84088134765625,107.84088134765625,0.0,,9.0
11,['1'],1,TMTstop-A_1_2linestimulus8.png,TMTstop-A_1_2greenlinestimulus8.png,TMTstop-A_1_2redlinestimulus8.png,2,36,1.0,107.94487762451172,107.94487762451172,0.0,,1.0,1.0,0.0,1,0.07076849997974932,107.94487762451172,107.94487762451172,0.0,,10.0
12,['2'],2,TMTstop-A_1_2linestimulus9.png,TMTstop-A_1_2greenlinestimulus9.png,TMTstop-A_1_2redlinestimulus9.png,2,37,1.0,108.08354949951172,108.08354949951172,0.0,,1.0,1.0,0.0,2,-0.022984900046139956,108.08354949951172,108.08354949951172,0.0,,11.0
13,['3'],3,TMTstop-A_1_2linestimulus10.png,TMTstop-A_1_2greenlinestimulus10.png,TMTstop-A_1_2redlinestimulus10.png,2,38,1.0,108.15296936035156,108.15296936035156,0.0,,1.0,1.0,0.0,3,0.0366022998932749,108.15296936035156,108.15296936035156,0.0,,12.0
14,['1'],1,TMTstop-A_1_2linestimulus11.png,TMTstop-A_1_2greenlinestimulus11.png,TMTstop-A_1_2redlinestimulus11.png,2,39,1.0,108.2665023803711,108.2665023803711,0.0,,1.0,1.0,0.0,1,0.10006699990481138,108.2665023803711,108.2665023803711,0.0,,13.0
15,['3'],3,TMTstop-A_1_2linestimulus12.png,TMTstop-A_1_2greenlinestimulus12.png,TMTstop-A_1_2redlinestimulus12.png,2,40,1.0,108.44499969482422,108.44499969482422,0.0,,1.0,1.0,0.0,2,3,-0.01775259990245104,0.12519660010002553,108.44499969482422,108.44499969482422,0.0,,14.0
16,['1'],1,TMTstop-A_1_2linestimulus13.png,TMTstop-A_1_2greenlinestimulus13.png,TMTstop-A_1_2redlinestimulus13.png,2,41,1.0,108.67459869384766,108.67459869384766,0.0,,1.0,1.0,0.0,1,0.05494860000908375,108.67459869384766,108.67459869384766,0.0,,15.0
17,['2'],2,TMTstop-A_1_2linestimulus14.png,TMTstop-A_1_2greenlinestimulus14.png,TMTstop-A_1_2redlinestimulus14.png,2,42,1.0,108.81403350830078,108.81403350830078,0.0,,1.0,1.0,0.0,2,-0.028628400061279535,108.81403350830078,108.81403350830078,0.0,,16.0
18,['1'],1,TMTstop-A_1_2linestimulus15.png,TMTstop-A_1_2greenlinestimulus15.png,TMTstop-A_1_2redlinestimulus15.png,2,43,1.0,108.8894271850586,108.8894271850586,0.0,,1.0,1.0,0.0,3,1,0.038925400003790855,0.18887969991192222,108.8894271850586,108.8894271850586,0.0,,17.0
19,['3'],3,TMTstop-A_1_2linestimulus16.png,TMTstop-A_1_2greenlinestimulus16.png,TMTstop-A_1_2redlinestimulus16.png,2,44,1.0,109.18778228759766,109.18778228759766,0.0,,1.0,1.0,0.0,2,3,-0.06813229992985725,0.05098529998213053,109.18778228759766,109.18778228759766,0.0,,18.0
20,['1'],1,TMTstop-A_1_2linestimulus17.png,TMTstop-A_1_2greenlinestimulus17.png,TMTstop-A_1_2redlinestimulus17.png,2,45,1.0,109.3478012084961,109.3478012084961,0.0,,1.0,1.0,0.0,1,0.05546290008351207,109.3478012084961,109.3478012084961,0.0,,19.0
21,['2'],2,TMTstop-A_1_2linestimulus18.png,TMTstop-A_1_2greenlinestimulus18.png,TMTstop-A_1_2redlinestimulus18.png,2,46,1.0,109.47933197021484,109.47933197021484,0.0,,1.0,1.0,0.0,2,-0.023598199943080544,109.47933197021484,109.47933197021484,0.0,,20.0
22,['1'],1,TMTstop-A_1_2linestimulus19.png,TMTstop-A_1_2greenlinestimulus19.png,TMTstop-A_1_2redlinestimulus19.png,2,47,1.0,109.55035400390625,109.55035400390625,0.0,,1.0,1.0,0.0,3,1,0.04610730009153485,0.1932429000735283,109.55035400390625,109.55035400390625,0.0,,21.0
23,['2'],2,TMTstop-A_1_2linestimulus20.png,TMTstop-A_1_2greenlinestimulus20.png,TMTstop-A_1_2redlinestimulus20.png,2,48,1.0,109.84129333496094,109.84129333496094,0.0,,1.0,1.0,0.0,2,-0.0529511000495404,109.84129333496094,109.84129333496094,0.0,,22.0
24,['1'],1,TMTstop-A_1_2linestimulus21.png,TMTstop-A_1_2greenlinestimulus21.png,TMTstop-A_1_2redlinestimulus21.png,2,49,1.0,109.91802215576172,109.91802215576172,0.0,,1.0,1.0,0.0,3,1,2,3,1,0.033928100019693375,0.3081196998246014,0.33265539980493486,0.49265599995851517,0.6287799999117851,109.91802215576172,109.91802215576172,0.0,,23.0
25,['2'],2,TMTstop-A_1_2linestimulus22.png,TMTstop-A_1_2greenlinestimulus22.png,TMTstop-A_1_2redlinestimulus22.png,2,50,1.0,110.66674041748047,110.66674041748047,0.0,,1.0,1.0,0.0,2,-0.07318990002386272,110.66674041748047,110.66674041748047,0.0,,24.0
None,None,None,TMTstop-A_1_2linestimulus23.png,TMTstop-A_1_2greenlinestimulus23.png,TMTstop-A_1_2redlinestimulus23.png,2,Feedback_last,1.0,110.74337768554688,110.74337768554688,0.0,,0.0,0.0,0.0,3,-0.008844300173223019,110.74337768554688,110.74337768554688,0.0,,25.0

extraInfo
participant,
session,001
date,2022_Feb_02_1703
expName,TMTAstop-A
psychopyVersion,2021.2.3
frameRate,145.11702956511184
﻿NumberLetter,corrAns,Correct,StimFile,Correct_StimFile,False_StimFile,Block,TrialNumber_session,n,Stim.started_mean,Stim.started_raw,Stim.started_std,Stim.stopped_raw,key_resp_2.corr_mean,key_resp_2.corr_raw,key_resp_2.corr_std,key_resp_2.keys_raw,key_resp_2.rt_raw,key_resp_2.started_mean,key_resp_2.started_raw,key_resp_2.started_std,key_resp_2.stopped_raw,order
1,['2'],2,TMTstop-A_1_3.png,TMTstop-A_1_3.png,TMTstop-A_1_3.png,3,51,1.0,114.86772918701172,114.86772918701172,0.0,,1.0,1.0,0.0,1,2,0.3489560999441892,0.4170252999756485,114.86772918701172,114.86772918701172,0.0,,0.0
2,['1'],1,TMTstop-A_1_3.png,TMTstop-A_1_3firstgreen.png,TMTstop-A_1_3firstred.png,3,52,1.0,115.37714385986328,115.37714385986328,0.0,,1.0,1.0,0.0,3,1,2,3,1,0.0060363998636603355,0.1732987998984754,0.21362809999845922,0.3388203999493271,0.504448699997738,115.37714385986328,115.37714385986328,0.0,,1.0
3,['3'],3,TMTstop-A_1_3linestimulus0.png,TMTstop-A_1_3greenlinestimulus0.png,TMTstop-A_1_3redlinestimulus0.png,3,53,1.0,115.9515151977539,115.9515151977539,0.0,,1.0,1.0,0.0,2,3,-0.04394940007477999,0.0983861000277102,115.9515151977539,115.9515151977539,0.0,,2.0
4,['2'],2,TMTstop-A_1_3linestimulus1.png,TMTstop-A_1_3greenlinestimulus1.png,TMTstop-A_1_3redlinestimulus1.png,3,54,1.0,116.14641571044922,116.14641571044922,0.0,,1.0,1.0,0.0,1,2,0.0496930000372231,0.07161300000734627,116.14641571044922,116.14641571044922,0.0,,3.0
5,['3'],3,TMTstop-A_1_3linestimulus2.png,TMTstop-A_1_3greenlinestimulus2.png,TMTstop-A_1_3redlinestimulus2.png,3,55,1.0,116.31260681152344,116.31260681152344,0.0,,1.0,1.0,0.0,3,0.053101600147783756,116.31260681152344,116.31260681152344,0.0,,4.0
6,['2'],2,TMTstop-A_1_3linestimulus3.png,TMTstop-A_1_3greenlinestimulus3.png,TMTstop-A_1_3redlinestimulus3.png,3,56,1.0,116.44818115234375,116.44818115234375,0.0,,1.0,1.0,0.0,1,2,0.10231620003469288,0.17565419990569353,116.44818115234375,116.44818115234375,0.0,,5.0
7,['1'],1,TMTstop-A_1_3linestimulus4.png,TMTstop-A_1_3greenlinestimulus4.png,TMTstop-A_1_3redlinestimulus4.png,3,57,1.0,116.71684265136719,116.71684265136719,0.0,,1.0,1.0,0.0,1,0.3710050000809133,116.71684265136719,116.71684265136719,0.0,,6.0
8,['2'],2,TMTstop-A_1_3linestimulus5.png,TMTstop-A_1_3greenlinestimulus5.png,TMTstop-A_1_3redlinestimulus5.png,3,58,1.0,117.16663360595703,117.16663360595703,0.0,,1.0,1.0,0.0,2,-0.02713219984434545,117.16663360595703,117.16663360595703,0.0,,7.0
9,['3'],3,TMTstop-A_1_3linestimulus6.png,TMTstop-A_1_3greenlinestimulus6.png,TMTstop-A_1_3redlinestimulus6.png,3,59,1.0,117.24312591552734,117.24312591552734,0.0,,1.0,1.0,0.0,3,0.031910200137645006,117.24312591552734,117.24312591552734,0.0,,8.0
10,['2'],2,TMTstop-A_1_3linestimulus7.png,TMTstop-A_1_3greenlinestimulus7.png,TMTstop-A_1_3redlinestimulus7.png,3,60,1.0,117.34806823730469,117.34806823730469,0.0,,1.0,1.0,0.0,1,2,0.09013459994457662,0.16802199999801815,117.34806823730469,117.34806823730469,0.0,,9.0
11,['3'],3,TMTstop-A_1_3linestimulus8.png,TMTstop-A_1_3greenlinestimulus8.png,TMTstop-A_1_3redlinestimulus8.png,3,61,1.0,117.59402465820312,117.59402465820312,0.0,,1.0,1.0,0.0,3,0.009631299879401922,117.59402465820312,117.59402465820312,0.0,,10.0
12,['2'],2,TMTstop-A_1_3linestimulus9.png,TMTstop-A_1_3greenlinestimulus9.png,TMTstop-A_1_3redlinestimulus9.png,3,62,1.0,117.68058013916016,117.68058013916016,0.0,,1.0,1.0,0.0,1,2,0.07959330012090504,0.10256460006348789,117.68058013916016,117.68058013916016,0.0,,11.0
13,['1'],1,TMTstop-A_1_3linestimulus10.png,TMTstop-A_1_3greenlinestimulus10.png,TMTstop-A_1_3redlinestimulus10.png,3,63,1.0,117.88219451904297,117.88219451904297,0.0,,1.0,1.0,0.0,3,1,0.04176339996047318,0.19326159986667335,117.88219451904297,117.88219451904297,0.0,,12.0
14,['2'],2,TMTstop-A_1_3linestimulus11.png,TMTstop-A_1_3greenlinestimulus11.png,TMTstop-A_1_3redlinestimulus11.png,3,64,1.0,118.17417907714844,118.17417907714844,0.0,,1.0,1.0,0.0,2,-0.06676950003020465,118.17417907714844,118.17417907714844,0.0,,13.0
15,['1'],1,TMTstop-A_1_3linestimulus12.png,TMTstop-A_1_3greenlinestimulus12.png,TMTstop-A_1_3redlinestimulus12.png,3,65,1.0,118.25005340576172,118.25005340576172,0.0,,1.0,1.0,0.0,3,1,0.004640999948605895,0.15548499999567866,118.25005340576172,118.25005340576172,0.0,,14.0
16,['2'],2,TMTstop-A_1_3linestimulus13.png,TMTstop-A_1_3greenlinestimulus13.png,TMTstop-A_1_3redlinestimulus13.png,3,66,1.0,118.50111389160156,118.50111389160156,0.0,,1.0,1.0,0.0,2,-0.055354399839416146,118.50111389160156,118.50111389160156,0.0,,15.0
17,['3'],3,TMTstop-A_1_3linestimulus14.png,TMTstop-A_1_3greenlinestimulus14.png,TMTstop-A_1_3redlinestimulus14.png,3,67,1.0,118.57703399658203,118.57703399658203,0.0,,1.0,1.0,0.0,3,0.014001999981701374,118.57703399658203,118.57703399658203,0.0,,16.0
18,['2'],2,TMTstop-A_1_3linestimulus15.png,TMTstop-A_1_3greenlinestimulus15.png,TMTstop-A_1_3redlinestimulus15.png,3,68,1.0,118.66055297851562,118.66055297851562,0.0,,1.0,1.0,0.0,1,2,0.05875269998796284,0.11154590011574328,118.66055297851562,118.66055297851562,0.0,,17.0
19,['1'],1,TMTstop-A_1_3linestimulus16.png,TMTstop-A_1_3greenlinestimulus16.png,TMTstop-A_1_3redlinestimulus16.png,3,69,1.0,118.88238525390625,118.88238525390625,0.0,,1.0,1.0,0.0,3,1,0.032108600018545985,0.16098090005107224,118.88238525390625,118.88238525390625,0.0,,18.0
20,['2'],2,TMTstop-A_1_3linestimulus17.png,TMTstop-A_1_3greenlinestimulus17.png,TMTstop-A_1_3redlinestimulus17.png,3,70,1.0,119.12590789794922,119.12590789794922,0.0,,1.0,1.0,0.0,2,0.0010595000348985195,119.12590789794922,119.12590789794922,0.0,,19.0
21,['3'],3,TMTstop-A_1_3linestimulus18.png,TMTstop-A_1_3greenlinestimulus18.png,TMTstop-A_1_3redlinestimulus18.png,3,71,1.0,119.2015380859375,119.2015380859375,0.0,,1.0,1.0,0.0,3,0.03489620005711913,119.2015380859375,119.2015380859375,0.0,,20.0
22,['1'],1,TMTstop-A_1_3linestimulus19.png,TMTstop-A_1_3greenlinestimulus19.png,TMTstop-A_1_3redlinestimulus19.png,3,72,1.0,119.31941223144531,119.31941223144531,0.0,,1.0,1.0,0.0,1,0.06270880019292235,119.31941223144531,119.31941223144531,0.0,,21.0
23,['3'],3,TMTstop-A_1_3linestimulus20.png,TMTstop-A_1_3greenlinestimulus20.png,TMTstop-A_1_3redlinestimulus20.png,3,73,1.0,119.4655990600586,119.4655990600586,0.0,,1.0,1.0,0.0,2,3,-0.009145299904048443,0.09351440006867051,119.4655990600586,119.4655990600586,0.0,,22.0
24,['1'],1,TMTstop-A_1_3linestimulus21.png,TMTstop-A_1_3greenlinestimulus21.png,TMTstop-A_1_3redlinestimulus21.png,3,74,1.0,119.66796112060547,119.66796112060547,0.0,,1.0,1.0,0.0,1,0.027727199951186776,119.66796112060547,119.66796112060547,0.0,,23.0
25,['3'],3,TMTstop-A_1_3linestimulus22.png,TMTstop-A_1_3greenlinestimulus22.png,TMTstop-A_1_3redlinestimulus22.png,3,75,1.0,119.77764892578125,119.77764892578125,0.0,,1.0,1.0,0.0,2,3,-0.023991899797692895,0.09551130002364516,119.77764892578125,119.77764892578125,0.0,,24.0
None,None,None,TMTstop-A_1_3linestimulus23.png,TMTstop-A_1_3greenlinestimulus23.png,TMTstop-A_1_3redlinestimulus23.png,3,Feedback_last,1.0,119.97909545898438,119.97909545898438,0.0,,0.0,0.0,0.0,1,2,3,0.036429999861866236,0.10028599994257092,0.2714817998930812,119.97909545898438,119.97909545898438,0.0,,25.0

extraInfo
participant,
session,001
date,2022_Feb_02_1703
expName,TMTAstop-A
psychopyVersion,2021.2.3
frameRate,145.11702956511184
﻿NumberLetter,corrAns,Correct,StimFile,Correct_StimFile,False_StimFile,Block,TrialNumber_session,n,Stim.started_mean,Stim.started_raw,Stim.started_std,Stim.stopped_raw,key_resp_2.corr_mean,key_resp_2.corr_raw,key_resp_2.corr_std,key_resp_2.keys_raw,key_resp_2.rt_raw,key_resp_2.started_mean,key_resp_2.started_raw,key_resp_2.started_std,key_resp_2.stopped_raw,order
1,['3'],3,TMTstop-A_1_4.png,TMTstop-A_1_4.png,TMTstop-A_1_4.png,4,76,1.0,124.08479309082031,124.08479309082031,0.0,,1.0,1.0,0.0,1,2,3,0.4617294000927359,0.5594230000860989,0.6423881999216974,124.08479309082031,124.08479309082031,0.0,,0.0
2,['1'],1,TMTstop-A_1_4.png,TMTstop-A_1_4firstgreen.png,TMTstop-A_1_4firstred.png,4,77,1.0,124.81957244873047,124.81957244873047,0.0,,1.0,1.0,0.0,1,0.0467422001529485,124.81957244873047,124.81957244873047,0.0,,1.0
3,['3'],3,TMTstop-A_1_4linestimulus0.png,TMTstop-A_1_4greenlinestimulus0.png,TMTstop-A_1_4redlinestimulus0.png,4,78,1.0,124.94538879394531,124.94538879394531,0.0,,1.0,1.0,0.0,2,3,-0.02782790013588965,0.06544909998774529,124.94538879394531,124.94538879394531,0.0,,2.0
4,['1'],1,TMTstop-A_1_4linestimulus1.png,TMTstop-A_1_4greenlinestimulus1.png,TMTstop-A_1_4redlinestimulus1.png,4,79,1.0,125.09735107421875,125.09735107421875,0.0,,1.0,1.0,0.0,1,0.04619080014526844,125.09735107421875,125.09735107421875,0.0,,3.0
5,['2'],2,TMTstop-A_1_4linestimulus2.png,TMTstop-A_1_4greenlinestimulus2.png,TMTstop-A_1_4redlinestimulus2.png,4,80,1.0,125.2152328491211,125.2152328491211,0.0,,1.0,1.0,0.0,2,-0.011508499970659614,125.2152328491211,125.2152328491211,0.0,,4.0
6,['3'],3,TMTstop-A_1_4linestimulus3.png,TMTstop-A_1_4greenlinestimulus3.png,TMTstop-A_1_4redlinestimulus3.png,4,81,1.0,125.2846450805664,125.2846450805664,0.0,,1.0,1.0,0.0,3,0.02848400012589991,125.2846450805664,125.2846450805664,0.0,,5.0
7,['2'],2,TMTstop-A_1_4linestimulus4.png,TMTstop-A_1_4greenlinestimulus4.png,TMTstop-A_1_4redlinestimulus4.png,4,82,1.0,125.38496398925781,125.38496398925781,0.0,,1.0,1.0,0.0,1,2,0.05159000004641712,0.12136700004339218,125.38496398925781,125.38496398925781,0.0,,6.0
8,['3'],3,TMTstop-A_1_4linestimulus5.png,TMTstop-A_1_4greenlinestimulus5.png,TMTstop-A_1_4redlinestimulus5.png,4,83,1.0,125.59069061279297,125.59069061279297,0.0,,1.0,1.0,0.0,3,0.007225199835374951,125.59069061279297,125.59069061279297,0.0,,7.0
9,['1'],1,TMTstop-A_1_4linestimulus6.png,TMTstop-A_1_4greenlinestimulus6.png,TMTstop-A_1_4redlinestimulus6.png,4,84,1.0,125.67333221435547,125.67333221435547,0.0,,1.0,1.0,0.0,1,0.04250400001183152,125.67333221435547,125.67333221435547,0.0,,8.0
10,['2'],2,TMTstop-A_1_4linestimulus7.png,TMTstop-A_1_4greenlinestimulus7.png,TMTstop-A_1_4redlinestimulus7.png,4,85,1.0,125.79850769042969,125.79850769042969,0.0,,1.0,1.0,0.0,2,-0.04056370002217591,125.79850769042969,125.79850769042969,0.0,,9.0
11,['3'],3,TMTstop-A_1_4linestimulus8.png,TMTstop-A_1_4greenlinestimulus8.png,TMTstop-A_1_4redlinestimulus8.png,4,86,1.0,125.86827087402344,125.86827087402344,0.0,,1.0,1.0,0.0,3,0.0005092998035252094,125.86827087402344,125.86827087402344,0.0,,10.0
12,['1'],1,TMTstop-A_1_4linestimulus9.png,TMTstop-A_1_4greenlinestimulus9.png,TMTstop-A_1_4redlinestimulus9.png,4,87,1.0,125.94508361816406,125.94508361816406,0.0,,1.0,1.0,0.0,1,0.05931559996679425,125.94508361816406,125.94508361816406,0.0,,11.0
13,['2'],2,TMTstop-A_1_4linestimulus10.png,TMTstop-A_1_4greenlinestimulus10.png,TMTstop-A_1_4redlinestimulus10.png,4,88,1.0,126.08462524414062,126.08462524414062,0.0,,1.0,1.0,0.0,2,-0.01835839985869825,126.08462524414062,126.08462524414062,0.0,,12.0
14,['1'],1,TMTstop-A_1_4linestimulus11.png,TMTstop-A_1_4greenlinestimulus11.png,TMTstop-A_1_4redlinestimulus11.png,4,89,1.0,126.1600112915039,126.1600112915039,0.0,,1.0,1.0,0.0,3,1,0.014003799995407462,0.15272850007750094,126.1600112915039,126.1600112915039,0.0,,13.0
15,['2'],2,TMTstop-A_1_4linestimulus12.png,TMTstop-A_1_4greenlinestimulus12.png,TMTstop-A_1_4redlinestimulus12.png,4,90,1.0,126.41663360595703,126.41663360595703,0.0,,1.0,1.0,0.0,2,-0.05962709989398718,126.41663360595703,126.41663360595703,0.0,,14.0
16,['3'],3,TMTstop-A_1_4linestimulus13.png,TMTstop-A_1_4greenlinestimulus13.png,TMTstop-A_1_4redlinestimulus13.png,4,91,1.0,126.49278259277344,126.49278259277344,0.0,,1.0,1.0,0.0,3,-0.028761900030076504,126.49278259277344,126.49278259277344,0.0,,15.0
17,['1'],1,TMTstop-A_1_4linestimulus14.png,TMTstop-A_1_4greenlinestimulus14.png,TMTstop-A_1_4redlinestimulus14.png,4,92,1.0,126.56231689453125,126.56231689453125,0.0,,1.0,1.0,0.0,1,0.029841500101611018,126.56231689453125,126.56231689453125,0.0,,16.0
18,['2'],2,TMTstop-A_1_4linestimulus15.png,TMTstop-A_1_4greenlinestimulus15.png,TMTstop-A_1_4redlinestimulus15.png,4,93,1.0,126.6671142578125,126.6671142578125,0.0,,1.0,1.0,0.0,2,0.015987299848347902,126.6671142578125,126.6671142578125,0.0,,17.0
19,['1'],1,TMTstop-A_1_4linestimulus16.png,TMTstop-A_1_4greenlinestimulus16.png,TMTstop-A_1_4redlinestimulus16.png,4,94,1.0,126.77096557617188,126.77096557617188,0.0,,1.0,1.0,0.0,3,1,0.0050137999933212996,0.1487300000153482,126.77096557617188,126.77096557617188,0.0,,18.0
20,['3'],3,TMTstop-A_1_4linestimulus17.png,TMTstop-A_1_4greenlinestimulus17.png,TMTstop-A_1_4redlinestimulus17.png,4,95,1.0,127.02750396728516,127.02750396728516,0.0,,1.0,1.0,0.0,2,3,-0.034671599976718426,0.08296340005472302,127.02750396728516,127.02750396728516,0.0,,19.0
21,['1'],1,TMTstop-A_1_4linestimulus18.png,TMTstop-A_1_4greenlinestimulus18.png,TMTstop-A_1_4redlinestimulus18.png,4,96,1.0,127.1874771118164,127.1874771118164,0.0,,1.0,1.0,0.0,1,0.05610690009780228,127.1874771118164,127.1874771118164,0.0,,20.0
22,['3'],3,TMTstop-A_1_4linestimulus19.png,TMTstop-A_1_4greenlinestimulus19.png,TMTstop-A_1_4redlinestimulus19.png,4,97,1.0,127.33311462402344,127.33311462402344,0.0,,1.0,1.0,0.0,2,3,-0.02423750003799796,0.08451840002089739,127.33311462402344,127.33311462402344,0.0,,21.0
23,['2'],2,TMTstop-A_1_4linestimulus20.png,TMTstop-A_1_4greenlinestimulus20.png,TMTstop-A_1_4redlinestimulus20.png,4,98,1.0,127.49369049072266,127.49369049072266,0.0,,1.0,1.0,0.0,1,2,0.06768040009774268,0.13145750015974045,127.49369049072266,127.49369049072266,0.0,,22.0
24,['3'],3,TMTstop-A_1_4linestimulus21.png,TMTstop-A_1_4greenlinestimulus21.png,TMTstop-A_1_4redlinestimulus21.png,4,99,1.0,127.722412109375,127.722412109375,0.0,,1.0,1.0,0.0,3,0.018069699872285128,127.722412109375,127.722412109375,0.0,,23.0
25,['2'],2,TMTstop-A_1_4linestimulus22.png,TMTstop-A_1_4greenlinestimulus22.png,TMTstop-A_1_4redlinestimulus22.png,4,100,1.0,127.81916809082031,127.81916809082031,0.0,,1.0,1.0,0.0,1,2,0.06298590009100735,0.1081175000872463,127.81916809082031,127.81916809082031,0.0,,24.0
None,None,None,TMTstop-A_1_4linestimulus23.png,TMTstop-A_1_4greenlinestimulus23.png,TMTstop-A_1_4redlinestimulus23.png,4,Feedback_last,1.0,128.03445434570312,128.03445434570312,0.0,,0.0,0.0,0.0,3,1,2,3,0.03600910003297031,0.17395059997215867,0.2231358999852091,0.4566961000673473,128.03445434570312,128.03445434570312,0.0,,25.0

extraInfo
participant,
session,001
date,2022_Feb_02_1703
expName,TMTAstop-A
psychopyVersion,2021.2.3
frameRate,145.11702956511184
﻿NumberLetter,corrAns,Correct,StimFile,Correct_StimFile,False_StimFile,Block,TrialNumber_session,n,Stim.started_mean,Stim.started_raw,Stim.started_std,Stim.stopped_raw,key_resp_2.corr_mean,key_resp_2.corr_raw,key_resp_2.corr_std,key_resp_2.keys_raw,key_resp_2.rt_raw,key_resp_2.started_mean,key_resp_2.started_raw,key_resp_2.started_std,key_resp_2.stopped_raw,order
1,['2'],2,TMTstop-A_1_5.png,TMTstop-A_1_5.png,TMTstop-A_1_5.png,5,101,1.0,132.1669158935547,132.1669158935547,0.0,,1.0,1.0,0.0,1,2,0.3593295000027865,0.4561950999777764,132.1669158935547,132.1669158935547,0.0,,0.0
2,['1'],1,TMTstop-A_1_5.png,TMTstop-A_1_5firstgreen.png,TMTstop-A_1_5firstred.png,5,102,1.0,132.736328125,132.736328125,0.0,,1.0,1.0,0.0,3,1,2,3,1,-0.027320799883455038,0.1263357000425458,0.15796059998683631,0.298790100030601,0.44095310010015965,132.736328125,132.736328125,0.0,,1.0
3,['3'],3,TMTstop-A_1_5linestimulus0.png,TMTstop-A_1_5greenlinestimulus0.png,TMTstop-A_1_5redlinestimulus0.png,5,103,1.0,133.2571563720703,133.2571563720703,0.0,,1.0,1.0,0.0,2,3,-0.05248169996775687,0.0996771000791341,133.2571563720703,133.2571563720703,0.0,,2.0
4,['2'],2,TMTstop-A_1_5linestimulus1.png,TMTstop-A_1_5greenlinestimulus1.png,TMTstop-A_1_5redlinestimulus1.png,5,104,1.0,133.4513702392578,133.4513702392578,0.0,,1.0,1.0,0.0,1,2,0.07550090015865862,0.11090820003300905,133.4513702392578,133.4513702392578,0.0,,3.0
5,['3'],3,TMTstop-A_1_5linestimulus2.png,TMTstop-A_1_5greenlinestimulus2.png,TMTstop-A_1_5redlinestimulus2.png,5,105,1.0,133.63856506347656,133.63856506347656,0.0,,1.0,1.0,0.0,3,0.09563060011714697,133.63856506347656,133.63856506347656,0.0,,4.0
6,['1'],1,TMTstop-A_1_5linestimulus3.png,TMTstop-A_1_5greenlinestimulus3.png,TMTstop-A_1_5redlinestimulus3.png,5,106,1.0,133.81280517578125,133.81280517578125,0.0,,1.0,1.0,0.0,1,0.10470170015469193,133.81280517578125,133.81280517578125,0.0,,5.0
7,['3'],3,TMTstop-A_1_5linestimulus4.png,TMTstop-A_1_5greenlinestimulus4.png,TMTstop-A_1_5redlinestimulus4.png,5,107,1.0,133.99949645996094,133.99949645996094,0.0,,1.0,1.0,0.0,2,3,0.007581199984997511,0.15439240005798638,133.99949645996094,133.99949645996094,0.0,,6.0
8,['2'],2,TMTstop-A_1_5linestimulus5.png,TMTstop-A_1_5greenlinestimulus5.png,TMTstop-A_1_5redlinestimulus5.png,5,108,1.0,134.26344299316406,134.26344299316406,0.0,,1.0,1.0,0.0,1,2,0.21045769983902574,0.2847647999878973,134.26344299316406,134.26344299316406,0.0,,7.0
9,['1'],1,TMTstop-A_1_5linestimulus6.png,TMTstop-A_1_5greenlinestimulus6.png,TMTstop-A_1_5redlinestimulus6.png,5,109,1.0,134.6314239501953,134.6314239501953,0.0,,1.0,1.0,0.0,3,1,0.015831900062039495,0.17218980006873608,134.6314239501953,134.6314239501953,0.0,,8.0
10,['3'],3,TMTstop-A_1_5linestimulus7.png,TMTstop-A_1_5greenlinestimulus7.png,TMTstop-A_1_5redlinestimulus7.png,5,110,1.0,134.90293884277344,134.90293884277344,0.0,,1.0,1.0,0.0,2,3,-0.06624409998767078,0.066910499939695,134.90293884277344,134.90293884277344,0.0,,9.0
11,['2'],2,TMTstop-A_1_5linestimulus8.png,TMTstop-A_1_5greenlinestimulus8.png,TMTstop-A_1_5redlinestimulus8.png,5,111,1.0,135.05555725097656,135.05555725097656,0.0,,1.0,1.0,0.0,1,2,0.06232899986207485,0.09176169987767935,135.05555725097656,135.05555725097656,0.0,,10.0
12,['3'],3,TMTstop-A_1_5linestimulus9.png,TMTstop-A_1_5greenlinestimulus9.png,TMTstop-A_1_5redlinestimulus9.png,5,112,1.0,135.24021911621094,135.24021911621094,0.0,,1.0,1.0,0.0,3,0.04994890000671148,135.24021911621094,135.24021911621094,0.0,,11.0
13,['1'],1,TMTstop-A_1_5linestimulus10.png,TMTstop-A_1_5greenlinestimulus10.png,TMTstop-A_1_5redlinestimulus10.png,5,113,1.0,135.3675537109375,135.3675537109375,0.0,,1.0,1.0,0.0,1,0.05593220004811883,135.3675537109375,135.3675537109375,0.0,,12.0
14,['3'],3,TMTstop-A_1_5linestimulus11.png,TMTstop-A_1_5greenlinestimulus11.png,TMTstop-A_1_5redlinestimulus11.png,5,114,1.0,135.49974060058594,135.49974060058594,0.0,,1.0,1.0,0.0,2,3,0.014305799966678023,0.10685999994166195,135.49974060058594,135.49974060058594,0.0,,13.0
15,['1'],1,TMTstop-A_1_5linestimulus12.png,TMTstop-A_1_5greenlinestimulus12.png,TMTstop-A_1_5redlinestimulus12.png,5,115,1.0,135.7079315185547,135.7079315185547,0.0,,1.0,1.0,0.0,1,0.05841800011694431,135.7079315185547,135.7079315185547,0.0,,14.0
16,['3'],3,TMTstop-A_1_5linestimulus13.png,TMTstop-A_1_5greenlinestimulus13.png,TMTstop-A_1_5redlinestimulus13.png,5,116,1.0,135.8493194580078,135.8493194580078,0.0,,1.0,1.0,0.0,2,3,-0.0559648999478668,0.0913289999589324,135.8493194580078,135.8493194580078,0.0,,15.0
17,['2'],2,TMTstop-A_1_5linestimulus14.png,TMTstop-A_1_5greenlinestimulus14.png,TMTstop-A_1_5redlinestimulus14.png,5,117,1.0,136.0416259765625,136.0416259765625,0.0,,1.0,1.0,0.0,1,2,0.05830569984391332,0.13174579991027713,136.0416259765625,136.0416259765625,0.0,,16.0
18,['1'],1,TMTstop-A_1_5linestimulus15.png,TMTstop-A_1_5greenlinestimulus15.png,TMTstop-A_1_5redlinestimulus15.png,5,118,1.0,136.25653076171875,136.25653076171875,0.0,,1.0,1.0,0.0,3,1,0.03952530003152788,0.1858522999100387,136.25653076171875,136.25653076171875,0.0,,17.0
19,['3'],3,TMTstop-A_1_5linestimulus16.png,TMTstop-A_1_5greenlinestimulus16.png,TMTstop-A_1_5redlinestimulus16.png,5,119,1.0,136.5420684814453,136.5420684814453,0.0,,1.0,1.0,0.0,2,3,-0.05511690001003444,0.08036860008724034,136.5420684814453,136.5420684814453,0.0,,18.0
20,['1'],1,TMTstop-A_1_5linestimulus17.png,TMTstop-A_1_5greenlinestimulus17.png,TMTstop-A_1_5redlinestimulus17.png,5,120,1.0,136.70225524902344,136.70225524902344,0.0,,1.0,1.0,0.0,1,0.06529920012690127,136.70225524902344,136.70225524902344,0.0,,19.0
21,['2'],2,TMTstop-A_1_5linestimulus18.png,TMTstop-A_1_5greenlinestimulus18.png,TMTstop-A_1_5redlinestimulus18.png,5,121,1.0,136.84054565429688,136.84054565429688,0.0,,1.0,1.0,0.0,2,-0.009067599894478917,136.84054565429688,136.84054565429688,0.0,,20.0
22,['3'],3,TMTstop-A_1_5linestimulus19.png,TMTstop-A_1_5greenlinestimulus19.png,TMTstop-A_1_5redlinestimulus19.png,5,122,1.0,136.91673278808594,136.91673278808594,0.0,,1.0,1.0,0.0,3,0.043648599879816175,136.91673278808594,136.91673278808594,0.0,,21.0
23,['2'],2,TMTstop-A_1_5linestimulus20.png,TMTstop-A_1_5greenlinestimulus20.png,TMTstop-A_1_5redlinestimulus20.png,5,123,1.0,137.0413055419922,137.0413055419922,0.0,,1.0,1.0,0.0,1,2,0.057812999933958054,0.126559300115332,137.0413055419922,137.0413055419922,0.0,,22.0
24,['3'],3,TMTstop-A_1_5linestimulus21.png,TMTstop-A_1_5greenlinestimulus21.png,TMTstop-A_1_5redlinestimulus21.png,5,124,1.0,137.25686645507812,137.25686645507812,0.0,,1.0,1.0,0.0,3,0.05394080001860857,137.25686645507812,137.25686645507812,0.0,,23.0
25,['2'],2,TMTstop-A_1_5linestimulus22.png,TMTstop-A_1_5greenlinestimulus22.png,TMTstop-A_1_5redlinestimulus22.png,5,125,1.0,137.3955535888672,137.3955535888672,0.0,,1.0,1.0,0.0,1,2,0.04208189994096756,0.11484219995327294,137.3955535888672,137.3955535888672,0.0,,24.0
None,None,None,TMTstop-A_1_5linestimulus23.png,TMTstop-A_1_5greenlinestimulus23.png,TMTstop-A_1_5redlinestimulus23.png,5,Feedback_last,1.0,137.59678649902344,137.59678649902344,0.0,,0.0,0.0,0.0,3,0.07510240003466606,137.59678649902344,137.59678649902344,0.0,,25.0

extraInfo
participant,
session,001
date,2022_Feb_02_1703
expName,TMTAstop-A
psychopyVersion,2021.2.3
frameRate,145.11702956511184
﻿NumberLetter,corrAns,Correct,StimFile,Correct_StimFile,False_StimFile,Block,TrialNumber_session,n,Stim.started_mean,Stim.started_raw,Stim.started_std,Stim.stopped_raw,key_resp_2.corr_mean,key_resp_2.corr_raw,key_resp_2.corr_std,key_resp_2.keys_raw,key_resp_2.rt_raw,key_resp_2.started_mean,key_resp_2.started_raw,key_resp_2.started_std,key_resp_2.stopped_raw,order
1,['1'],1,TMTstop-A_1_6.png,TMTstop-A_1_6.png,TMTstop-A_1_6.png,6,126,1.0,141.72117614746094,141.72117614746094,0.0,,1.0,1.0,0.0,1,0.4589080000296235,141.72117614746094,141.72117614746094,0.0,,0.0
2,['2'],2,TMTstop-A_1_6.png,TMTstop-A_1_6firstgreen.png,TMTstop-A_1_6firstred.png,6,127,1.0,142.24974060058594,142.24974060058594,0.0,,1.0,1.0,0.0,2,0.016355499858036637,142.24974060058594,142.24974060058594,0.0,,1.0
3,['3'],3,TMTstop-A_1_6linestimulus0.png,TMTstop-A_1_6greenlinestimulus0.png,TMTstop-A_1_6redlinestimulus0.png,6,128,1.0,142.3484649658203,142.3484649658203,0.0,,1.0,1.0,0.0,3,0.013681200100108981,142.3484649658203,142.3484649658203,0.0,,2.0
4,['1'],1,TMTstop-A_1_6linestimulus1.png,TMTstop-A_1_6greenlinestimulus1.png,TMTstop-A_1_6redlinestimulus1.png,6,129,1.0,142.44375610351562,142.44375610351562,0.0,,1.0,1.0,0.0,1,0.06972669996321201,142.44375610351562,142.44375610351562,0.0,,3.0
5,['3'],3,TMTstop-A_1_6linestimulus2.png,TMTstop-A_1_6greenlinestimulus2.png,TMTstop-A_1_6redlinestimulus2.png,6,130,1.0,142.58285522460938,142.58285522460938,0.0,,1.0,1.0,0.0,2,3,-0.028326999861747026,0.09659780003130436,142.58285522460938,142.58285522460938,0.0,,4.0
6,['1'],1,TMTstop-A_1_6linestimulus3.png,TMTstop-A_1_6greenlinestimulus3.png,TMTstop-A_1_6redlinestimulus3.png,6,131,1.0,142.78517150878906,142.78517150878906,0.0,,1.0,1.0,0.0,1,0.03543629986234009,142.78517150878906,142.78517150878906,0.0,,5.0
7,['3'],3,TMTstop-A_1_6linestimulus4.png,TMTstop-A_1_6greenlinestimulus4.png,TMTstop-A_1_6redlinestimulus4.png,6,132,1.0,142.91033935546875,142.91033935546875,0.0,,1.0,1.0,0.0,2,3,-0.06307999999262393,0.08097800007089972,142.91033935546875,142.91033935546875,0.0,,6.0
8,['1'],1,TMTstop-A_1_6linestimulus5.png,TMTstop-A_1_6greenlinestimulus5.png,TMTstop-A_1_6redlinestimulus5.png,6,133,1.0,143.10427856445312,143.10427856445312,0.0,,1.0,1.0,0.0,1,0.053083900129422545,143.10427856445312,143.10427856445312,0.0,,7.0
9,['2'],2,TMTstop-A_1_6linestimulus6.png,TMTstop-A_1_6greenlinestimulus6.png,TMTstop-A_1_6redlinestimulus6.png,6,134,1.0,143.2438201904297,143.2438201904297,0.0,,1.0,1.0,0.0,2,-0.02031600009649992,143.2438201904297,143.2438201904297,0.0,,8.0
10,['3'],3,TMTstop-A_1_6linestimulus7.png,TMTstop-A_1_6greenlinestimulus7.png,TMTstop-A_1_6redlinestimulus7.png,6,135,1.0,143.31243896484375,143.31243896484375,0.0,,1.0,1.0,0.0,3,0.04179339995607734,143.31243896484375,143.31243896484375,0.0,,9.0
11,['1'],1,TMTstop-A_1_6linestimulus8.png,TMTstop-A_1_6greenlinestimulus8.png,TMTstop-A_1_6redlinestimulus8.png,6,136,1.0,143.4300537109375,143.4300537109375,0.0,,1.0,1.0,0.0,1,0.05981249990873039,143.4300537109375,143.4300537109375,0.0,,10.0
12,['3'],3,TMTstop-A_1_6linestimulus9.png,TMTstop-A_1_6greenlinestimulus9.png,TMTstop-A_1_6redlinestimulus9.png,6,137,1.0,143.57337951660156,143.57337951660156,0.0,,1.0,1.0,0.0,2,3,-0.024545200169086456,0.09678849996998906,143.57337951660156,143.57337951660156,0.0,,11.0
13,['2'],2,TMTstop-A_1_6linestimulus10.png,TMTstop-A_1_6greenlinestimulus10.png,TMTstop-A_1_6redlinestimulus10.png,6,138,1.0,143.7632598876953,143.7632598876953,0.0,,1.0,1.0,0.0,1,2,0.07009850000031292,0.1090351000893861,143.7632598876953,143.7632598876953,0.0,,12.0
14,['3'],3,TMTstop-A_1_6linestimulus11.png,TMTstop-A_1_6greenlinestimulus11.png,TMTstop-A_1_6redlinestimulus11.png,6,139,1.0,143.9580078125,143.9580078125,0.0,,1.0,1.0,0.0,3,0.055969399865716696,143.9580078125,143.9580078125,0.0,,13.0
15,['2'],2,TMTstop-A_1_6linestimulus12.png,TMTstop-A_1_6greenlinestimulus12.png,TMTstop-A_1_6redlinestimulus12.png,6,140,1.0,144.08961486816406,144.08961486816406,0.0,,1.0,1.0,0.0,1,2,0.061253099935129285,0.10600930009968579,144.08961486816406,144.08961486816406,0.0,,14.0
16,['1'],1,TMTstop-A_1_6linestimulus13.png,TMTstop-A_1_6greenlinestimulus13.png,TMTstop-A_1_6redlinestimulus13.png,6,141,1.0,144.31329345703125,144.31329345703125,0.0,,1.0,1.0,0.0,3,1,0.03640430001541972,0.17686080001294613,144.31329345703125,144.31329345703125,0.0,,15.0
17,['3'],3,TMTstop-A_1_6linestimulus14.png,TMTstop-A_1_6greenlinestimulus14.png,TMTstop-A_1_6redlinestimulus14.png,6,142,1.0,144.5902099609375,144.5902099609375,0.0,,1.0,1.0,0.0,2,3,-0.026962400181218982,0.10068389982916415,144.5902099609375,144.5902099609375,0.0,,16.0
18,['1'],1,TMTstop-A_1_6linestimulus15.png,TMTstop-A_1_6greenlinestimulus15.png,TMTstop-A_1_6redlinestimulus15.png,6,143,1.0,144.79458618164062,144.79458618164062,0.0,,1.0,1.0,0.0,1,0.04290749994106591,144.79458618164062,144.79458618164062,0.0,,17.0
19,['2'],2,TMTstop-A_1_6linestimulus16.png,TMTstop-A_1_6greenlinestimulus16.png,TMTstop-A_1_6redlinestimulus16.png,6,144,1.0,144.9163360595703,144.9163360595703,0.0,,1.0,1.0,0.0,2,-0.034913199953734875,144.9163360595703,144.9163360595703,0.0,,18.0
20,['3'],3,TMTstop-A_1_6linestimulus17.png,TMTstop-A_1_6greenlinestimulus17.png,TMTstop-A_1_6redlinestimulus17.png,6,145,1.0,144.98553466796875,144.98553466796875,0.0,,1.0,1.0,0.0,3,0.037156299920752645,144.98553466796875,144.98553466796875,0.0,,19.0
21,['2'],2,TMTstop-A_1_6linestimulus18.png,TMTstop-A_1_6greenlinestimulus18.png,TMTstop-A_1_6redlinestimulus18.png,6,146,1.0,145.09999084472656,145.09999084472656,0.0,,1.0,1.0,0.0,1,2,0.05960889998823404,0.12401150004006922,145.09999084472656,145.09999084472656,0.0,,20.0
22,['3'],3,TMTstop-A_1_6linestimulus19.png,TMTstop-A_1_6greenlinestimulus19.png,TMTstop-A_1_6redlinestimulus19.png,6,147,1.0,145.33950805664062,145.33950805664062,0.0,,1.0,1.0,0.0,3,0.011649899883195758,145.33950805664062,145.33950805664062,0.0,,21.0
23,['1'],1,TMTstop-A_1_6linestimulus20.png,TMTstop-A_1_6greenlinestimulus20.png,TMTstop-A_1_6redlinestimulus20.png,6,148,1.0,145.42396545410156,145.42396545410156,0.0,,1.0,1.0,0.0,1,0.07607499998994172,145.42396545410156,145.42396545410156,0.0,,22.0
24,['2'],2,TMTstop-A_1_6linestimulus21.png,TMTstop-A_1_6greenlinestimulus21.png,TMTstop-A_1_6redlinestimulus21.png,6,149,1.0,145.5688934326172,145.5688934326172,0.0,,1.0,1.0,0.0,2,-0.02088490012101829,145.5688934326172,145.5688934326172,0.0,,23.0
25,['3'],3,TMTstop-A_1_6linestimulus22.png,TMTstop-A_1_6greenlinestimulus22.png,TMTstop-A_1_6redlinestimulus22.png,6,150,1.0,145.638427734375,145.638427734375,0.0,,1.0,1.0,0.0,3,0.045994099928066134,145.638427734375,145.638427734375,0.0,,24.0
None,None,None,TMTstop-A_1_6linestimulus23.png,TMTstop-A_1_6greenlinestimulus23.png,TMTstop-A_1_6redlinestimulus23.png,6,Feedback_last,1.0,145.7567596435547,145.7567596435547,0.0,,0.0,0.0,0.0,1,2,3,2,3,0.07440640009008348,0.1305264001712203,0.26985480007715523,0.4680797001346946,0.5995245000813156,145.7567596435547,145.7567596435547,0.0,,25.0

extraInfo
participant,
session,001
date,2022_Feb_02_1703
expName,TMTAstop-A
psychopyVersion,2021.2.3
frameRate,145.11702956511184
