Condition_rows,NumberLetter,corrAns,Correct,StimFile,Correct_StimFile,False_StimFile,Block,restartpractice.thisRepN,restartpractice.thisTrialN,restartpractice.thisN,restartpractice.thisIndex,trials_practice.thisRepN,trials_practice.thisTrialN,trials_practice.thisN,trials_practice.thisIndex,Condition_trials.thisRepN,Condition_trials.thisTrialN,Condition_trials.thisN,Condition_trials.thisIndex,trials.thisRepN,trials.thisTrialN,trials.thisN,trials.thisIndex,Instruct.started,Instruct.stopped,image_2.started,image_2.stopped,key_resp_6.keys,key_resp_6.rt,key_resp_6.started,key_resp_6.stopped,polygon.started,polygon.stopped,Stim_practice.started,Stim_practice.stopped,key_resp_practice.keys,key_resp_practice.rt,key_resp_practice.started,key_resp_practice.stopped,text_5.started,text_5.stopped,key_resp_5.keys,key_resp_5.rt,key_resp_5.started,key_resp_5.stopped,Stim.started,Stim.stopped,key_resp_2.keys,key_resp_2.corr,key_resp_2.rt,key_resp_2.started,key_resp_2.stopped,participant,session,date,expName,psychopyVersion,frameRate,
,,,,,,,,,,,,,,,,,,,,,,,,6.10035500000231,None,6.732582400087267,None,2,0.5291572997812182,6.732582400087267,None,,,,,,,,,,,,,,,,,,,,,,,001,2022_Jan_12_1732,TMTAstop-A,2021.2.3,143.91947423279117,
0:26,1,['2'],2,TMTstop-A_1_1.png,TMTstop-A_1_1.png,TMTstop-A_1_1.png,1,,,,,,,,,0,0,0,0,0,0,0,0,,,,,,,,,15.071389799937606,None,13.421639499953017,None,None,0.013660899829119444,13.421639499953017,None,14.474571299972013,None,2,0.5793842000421137,14.474571299972013,None,18.14381209993735,None,"['1', '3', '1', '2']",1,"[0.8673336000647396, 1.0547832001466304, 1.1972968999762088, 1.2645589001476765]",18.14381209993735,None,,001,2022_Jan_12_1732,TMTAstop-A,2021.2.3,143.91947423279117,
0:26,2,['1'],1,TMTstop-A_1_1.png,TMTstop-A_1_1firstgreen.png,TMTstop-A_1_1firstred.png,1,,,,,,,,,0,0,0,0,0,1,1,1,,,,,,,,,,,,,,,,,,,,,,,19.526631199987605,None,"['3', '1']",1,"[0.0852390001527965, 0.6399894000496715]",19.526631199987605,None,,001,2022_Jan_12_1732,TMTAstop-A,2021.2.3,143.91947423279117,
0:26,3,['2'],2,TMTstop-A_1_1linestimulus0.png,TMTstop-A_1_1greenlinestimulus0.png,TMTstop-A_1_1redlinestimulus0.png,1,,,,,,,,,0,0,0,0,0,2,2,2,,,,,,,,,,,,,,,,,,,,,,,20.24745999998413,None,['2'],1,[-0.021285400027409196],20.24745999998413,None,,001,2022_Jan_12_1732,TMTAstop-A,2021.2.3,143.91947423279117,
0:26,4,['3'],3,TMTstop-A_1_1linestimulus1.png,TMTstop-A_1_1greenlinestimulus1.png,TMTstop-A_1_1redlinestimulus1.png,1,,,,,,,,,0,0,0,0,0,3,3,3,,,,,,,,,,,,,,,,,,,,,,,20.323633200023323,None,['3'],1,[0.002679200144484639],20.323633200023323,None,,001,2022_Jan_12_1732,TMTAstop-A,2021.2.3,143.91947423279117,
0:26,5,['2'],2,TMTstop-A_1_1linestimulus2.png,TMTstop-A_1_1greenlinestimulus2.png,TMTstop-A_1_1redlinestimulus2.png,1,,,,,,,,,0,0,0,0,0,4,4,4,,,,,,,,,,,,,,,,,,,,,,,20.407504400005564,None,"['1', '2']",1,"[0.08328949986025691, 0.13173629995435476]",20.407504400005564,None,,001,2022_Jan_12_1732,TMTAstop-A,2021.2.3,143.91947423279117,
0:26,6,['3'],3,TMTstop-A_1_1linestimulus3.png,TMTstop-A_1_1greenlinestimulus3.png,TMTstop-A_1_1redlinestimulus3.png,1,,,,,,,,,0,0,0,0,0,5,5,5,,,,,,,,,,,,,,,,,,,,,,,20.650526100071147,None,['3'],1,[0.0009141000919044018],20.650526100071147,None,,001,2022_Jan_12_1732,TMTAstop-A,2021.2.3,143.91947423279117,
0:26,7,['2'],2,TMTstop-A_1_1linestimulus4.png,TMTstop-A_1_1greenlinestimulus4.png,TMTstop-A_1_1redlinestimulus4.png,1,,,,,,,,,0,0,0,0,0,6,6,6,,,,,,,,,,,,,,,,,,,,,,,20.719997300067917,None,"['1', '1', '2']",1,"[0.14475509990006685, 0.4678338998928666, 0.5414417998399585]",20.719997300067917,None,,001,2022_Jan_12_1732,TMTAstop-A,2021.2.3,143.91947423279117,
0:26,8,['1'],1,TMTstop-A_1_1linestimulus5.png,TMTstop-A_1_1greenlinestimulus5.png,TMTstop-A_1_1redlinestimulus5.png,1,,,,,,,,,0,0,0,0,0,7,7,7,,,,,,,,,,,,,,,,,,,,,,,21.358995500020683,None,"['3', '1']",1,"[-0.0016827001236379147, 0.13953249994665384]",21.358995500020683,None,,001,2022_Jan_12_1732,TMTAstop-A,2021.2.3,143.91947423279117,
0:26,9,['2'],2,TMTstop-A_1_1linestimulus6.png,TMTstop-A_1_1greenlinestimulus6.png,TMTstop-A_1_1redlinestimulus6.png,1,,,,,,,,,0,0,0,0,0,8,8,8,,,,,,,,,,,,,,,,,,,,,,,21.59523139987141,None,['2'],1,[-0.049100799951702356],21.59523139987141,None,,001,2022_Jan_12_1732,TMTAstop-A,2021.2.3,143.91947423279117,
0:26,10,['1'],1,TMTstop-A_1_1linestimulus7.png,TMTstop-A_1_1greenlinestimulus7.png,TMTstop-A_1_1redlinestimulus7.png,1,,,,,,,,,0,0,0,0,0,9,9,9,,,,,,,,,,,,,,,,,,,,,,,21.671315300045535,None,"['3', '1']",1,"[-0.025026099989190698, 0.10042349994182587]",21.671315300045535,None,,001,2022_Jan_12_1732,TMTAstop-A,2021.2.3,143.91947423279117,
0:26,11,['2'],2,TMTstop-A_1_1linestimulus8.png,TMTstop-A_1_1greenlinestimulus8.png,TMTstop-A_1_1redlinestimulus8.png,1,,,,,,,,,0,0,0,0,0,10,10,10,,,,,,,,,,,,,,,,,,,,,,,21.872670599957928,None,['2'],1,[-0.048357299994677305],21.872670599957928,None,,001,2022_Jan_12_1732,TMTAstop-A,2021.2.3,143.91947423279117,
0:26,12,['3'],3,TMTstop-A_1_1linestimulus9.png,TMTstop-A_1_1greenlinestimulus9.png,TMTstop-A_1_1redlinestimulus9.png,1,,,,,,,,,0,0,0,0,0,11,11,11,,,,,,,,,,,,,,,,,,,,,,,21.94950190000236,None,['3'],1,[-0.03342129988595843],21.94950190000236,None,,001,2022_Jan_12_1732,TMTAstop-A,2021.2.3,143.91947423279117,
0:26,13,['2'],2,TMTstop-A_1_1linestimulus10.png,TMTstop-A_1_1greenlinestimulus10.png,TMTstop-A_1_1redlinestimulus10.png,1,,,,,,,,,0,0,0,0,0,12,12,12,,,,,,,,,,,,,,,,,,,,,,,22.025592499878258,None,"['1', '2']",1,"[0.020771499956026673, 0.06789060006849468]",22.025592499878258,None,,001,2022_Jan_12_1732,TMTAstop-A,2021.2.3,143.91947423279117,
0:26,14,['3'],3,TMTstop-A_1_1linestimulus11.png,TMTstop-A_1_1greenlinestimulus11.png,TMTstop-A_1_1redlinestimulus11.png,1,,,,,,,,,0,0,0,0,0,13,13,13,,,,,,,,,,,,,,,,,,,,,,,22.171164999948815,None,['3'],1,[0.015401099808514118],22.171164999948815,None,,001,2022_Jan_12_1732,TMTAstop-A,2021.2.3,143.91947423279117,
0:26,15,['1'],1,TMTstop-A_1_1linestimulus12.png,TMTstop-A_1_1greenlinestimulus12.png,TMTstop-A_1_1redlinestimulus12.png,1,,,,,,,,,0,0,0,0,0,14,14,14,,,,,,,,,,,,,,,,,,,,,,,22.27547249989584,None,['1'],1,[0.03406530013307929],22.27547249989584,None,,001,2022_Jan_12_1732,TMTAstop-A,2021.2.3,143.91947423279117,
0:26,16,['3'],3,TMTstop-A_1_1linestimulus13.png,TMTstop-A_1_1greenlinestimulus13.png,TMTstop-A_1_1redlinestimulus13.png,1,,,,,,,,,0,0,0,0,0,15,15,15,,,,,,,,,,,,,,,,,,,,,,,22.39398210006766,None,"['2', '3']",1,"[-0.0527254999615252, 0.04713550000451505]",22.39398210006766,None,,001,2022_Jan_12_1732,TMTAstop-A,2021.2.3,143.91947423279117,
0:26,17,['2'],2,TMTstop-A_1_1linestimulus14.png,TMTstop-A_1_1greenlinestimulus14.png,TMTstop-A_1_1redlinestimulus14.png,1,,,,,,,,,0,0,0,0,0,16,16,16,,,,,,,,,,,,,,,,,,,,,,,22.594851299887523,None,"['1', '2']",1,"[-0.016291199950501323, 0.03603160008788109]",22.594851299887523,None,,001,2022_Jan_12_1732,TMTAstop-A,2021.2.3,143.91947423279117,
0:26,18,['3'],3,TMTstop-A_1_1linestimulus15.png,TMTstop-A_1_1greenlinestimulus15.png,TMTstop-A_1_1redlinestimulus15.png,1,,,,,,,,,0,0,0,0,0,17,17,17,,,,,,,,,,,,,,,,,,,,,,,22.71277319989167,None,['3'],1,[0.021190800005570054],22.71277319989167,None,,001,2022_Jan_12_1732,TMTAstop-A,2021.2.3,143.91947423279117,
0:26,19,['1'],1,TMTstop-A_1_1linestimulus16.png,TMTstop-A_1_1greenlinestimulus16.png,TMTstop-A_1_1redlinestimulus16.png,1,,,,,,,,,0,0,0,0,0,18,18,18,,,,,,,,,,,,,,,,,,,,,,,22.817289700033143,None,['1'],1,[0.06028820015490055],22.817289700033143,None,,001,2022_Jan_12_1732,TMTAstop-A,2021.2.3,143.91947423279117,
0:26,20,['3'],3,TMTstop-A_1_1linestimulus17.png,TMTstop-A_1_1greenlinestimulus17.png,TMTstop-A_1_1redlinestimulus17.png,1,,,,,,,,,0,0,0,0,0,19,19,19,,,,,,,,,,,,,,,,,,,,,,,22.94918129988946,None,"['2', '3']",1,"[-0.017037099925801158, 0.08181860018521547]",22.94918129988946,None,,001,2022_Jan_12_1732,TMTAstop-A,2021.2.3,143.91947423279117,
0:26,21,['1'],1,TMTstop-A_1_1linestimulus18.png,TMTstop-A_1_1greenlinestimulus18.png,TMTstop-A_1_1redlinestimulus18.png,1,,,,,,,,,0,0,0,0,0,20,20,20,,,,,,,,,,,,,,,,,,,,,,,23.108797499909997,None,['1'],1,[0.04685889999382198],23.108797499909997,None,,001,2022_Jan_12_1732,TMTAstop-A,2021.2.3,143.91947423279117,
0:26,22,['3'],3,TMTstop-A_1_1linestimulus19.png,TMTstop-A_1_1greenlinestimulus19.png,TMTstop-A_1_1redlinestimulus19.png,1,,,,,,,,,0,0,0,0,0,21,21,21,,,,,,,,,,,,,,,,,,,,,,,23.241016200045124,None,"['2', '3']",1,"[-0.015720600029453635, 0.0693365999031812]",23.241016200045124,None,,001,2022_Jan_12_1732,TMTAstop-A,2021.2.3,143.91947423279117,
0:26,23,['1'],1,TMTstop-A_1_1linestimulus20.png,TMTstop-A_1_1greenlinestimulus20.png,TMTstop-A_1_1redlinestimulus20.png,1,,,,,,,,,0,0,0,0,0,22,22,22,,,,,,,,,,,,,,,,,,,,,,,23.40220050001517,None,['1'],1,[0.05601940001361072],23.40220050001517,None,,001,2022_Jan_12_1732,TMTAstop-A,2021.2.3,143.91947423279117,
0:26,24,['2'],2,TMTstop-A_1_1linestimulus21.png,TMTstop-A_1_1greenlinestimulus21.png,TMTstop-A_1_1redlinestimulus21.png,1,,,,,,,,,0,0,0,0,0,23,23,23,,,,,,,,,,,,,,,,,,,,,,,23.546911699930206,None,['2'],1,[-0.048612199956551194],23.546911699930206,None,,001,2022_Jan_12_1732,TMTAstop-A,2021.2.3,143.91947423279117,
0:26,25,['3'],3,TMTstop-A_1_1linestimulus22.png,TMTstop-A_1_1greenlinestimulus22.png,TMTstop-A_1_1redlinestimulus22.png,1,,,,,,,,,0,0,0,0,0,24,24,24,,,,,,,,,,,,,,,,,,,,,,,23.629786300007254,None,['3'],1,[-0.02270430000498891],23.629786300007254,None,,001,2022_Jan_12_1732,TMTAstop-A,2021.2.3,143.91947423279117,
0:26,None,None,None,TMTstop-A_1_1linestimulus23.png,TMTstop-A_1_1greenlinestimulus23.png,TMTstop-A_1_1redlinestimulus23.png,1,,,,,,,,,0,0,0,0,0,25,25,25,,,,,,,,,,,,,,,,,,,,,,,23.706569199915975,None,"['1', '2', '3', '1']",0,"[0.05461649992503226, 0.10272670001722872, 0.2497103998903185, 0.35858680005185306]",23.706569199915975,None,,001,2022_Jan_12_1732,TMTAstop-A,2021.2.3,143.91947423279117,
26:52,1,['3'],3,TMTstop-A_1_2.png,TMTstop-A_1_2.png,TMTstop-A_1_2.png,2,,,,,,,,,0,1,1,1,0,0,0,0,,,,,,,,,24.773036299971864,None,,,,,,,,,,,,,27.823565499857068,None,"['1', '2', '3']",1,"[0.36603399994783103, 0.507943999953568, 0.6276540998369455]",27.823565499857068,None,,001,2022_Jan_12_1732,TMTAstop-A,2021.2.3,143.91947423279117,
26:52,2,['2'],2,TMTstop-A_1_2.png,TMTstop-A_1_2firstgreen.png,TMTstop-A_1_2firstred.png,2,,,,,,,,,0,1,1,1,0,1,1,1,,,,,,,,,,,,,,,,,,,,,,,28.55313379992731,None,"['1', '2']",1,"[0.09887700015679002, 0.18940290017053485]",28.55313379992731,None,,001,2022_Jan_12_1732,TMTAstop-A,2021.2.3,143.91947423279117,
26:52,3,['3'],3,TMTstop-A_1_2linestimulus0.png,TMTstop-A_1_2greenlinestimulus0.png,TMTstop-A_1_2redlinestimulus0.png,2,,,,,,,,,0,1,1,1,0,2,2,2,,,,,,,,,,,,,,,,,,,,,,,28.851460499921814,None,['3'],1,[0.04464360000565648],28.851460499921814,None,,001,2022_Jan_12_1732,TMTAstop-A,2021.2.3,143.91947423279117,
26:52,4,['1'],1,TMTstop-A_1_2linestimulus1.png,TMTstop-A_1_2greenlinestimulus1.png,TMTstop-A_1_2redlinestimulus1.png,2,,,,,,,,,0,1,1,1,0,3,3,3,,,,,,,,,,,,,,,,,,,,,,,28.97696159989573,None,['1'],1,[0.09087849990464747],28.97696159989573,None,,001,2022_Jan_12_1732,TMTAstop-A,2021.2.3,143.91947423279117,
26:52,5,['2'],2,TMTstop-A_1_2linestimulus2.png,TMTstop-A_1_2greenlinestimulus2.png,TMTstop-A_1_2redlinestimulus2.png,2,,,,,,,,,0,1,1,1,0,4,4,4,,,,,,,,,,,,,,,,,,,,,,,29.14359509991482,None,['2'],1,[0.021992099937051535],29.14359509991482,None,,001,2022_Jan_12_1732,TMTAstop-A,2021.2.3,143.91947423279117,
26:52,6,['3'],3,TMTstop-A_1_2linestimulus3.png,TMTstop-A_1_2greenlinestimulus3.png,TMTstop-A_1_2redlinestimulus3.png,2,,,,,,,,,0,1,1,1,0,5,5,5,,,,,,,,,,,,,,,,,,,,,,,29.240377299953252,None,"['1', '2', '3']",1,"[0.18952799984253943, 0.26461199996992946, 0.36831419984810054]",29.240377299953252,None,,001,2022_Jan_12_1732,TMTAstop-A,2021.2.3,143.91947423279117,
26:52,7,['2'],2,TMTstop-A_1_2linestimulus4.png,TMTstop-A_1_2greenlinestimulus4.png,TMTstop-A_1_2redlinestimulus4.png,2,,,,,,,,,0,1,1,1,0,6,6,6,,,,,,,,,,,,,,,,,,,,,,,29.71269609988667,None,"['1', '2']",1,"[0.05608300003223121, 0.11470370017923415]",29.71269609988667,None,,001,2022_Jan_12_1732,TMTAstop-A,2021.2.3,143.91947423279117,
26:52,8,['1'],1,TMTstop-A_1_2linestimulus5.png,TMTstop-A_1_2greenlinestimulus5.png,TMTstop-A_1_2redlinestimulus5.png,2,,,,,,,,,0,1,1,1,0,7,7,7,,,,,,,,,,,,,,,,,,,,,,,29.943210300058126,None,"['3', '1']",1,"[-0.017575300065800548, 0.11875169980339706]",29.943210300058126,None,,001,2022_Jan_12_1732,TMTAstop-A,2021.2.3,143.91947423279117,
26:52,9,['2'],2,TMTstop-A_1_2linestimulus6.png,TMTstop-A_1_2greenlinestimulus6.png,TMTstop-A_1_2redlinestimulus6.png,2,,,,,,,,,0,1,1,1,0,8,8,8,,,,,,,,,,,,,,,,,,,,,,,30.172324399929494,None,"['1', '2']",1,"[0.15587389981374145, 0.43632249999791384]",30.172324399929494,None,,001,2022_Jan_12_1732,TMTAstop-A,2021.2.3,143.91947423279117,
26:52,10,['3'],3,TMTstop-A_1_2linestimulus7.png,TMTstop-A_1_2greenlinestimulus7.png,TMTstop-A_1_2redlinestimulus7.png,2,,,,,,,,,0,1,1,1,0,9,9,9,,,,,,,,,,,,,,,,,,,,,,,30.698953500017524,None,"['1', '3']",1,"[-0.029723000014200807, 0.08806909993290901]",30.698953500017524,None,,001,2022_Jan_12_1732,TMTAstop-A,2021.2.3,143.91947423279117,
26:52,11,['1'],1,TMTstop-A_1_2linestimulus8.png,TMTstop-A_1_2greenlinestimulus8.png,TMTstop-A_1_2redlinestimulus8.png,2,,,,,,,,,0,1,1,1,0,10,10,10,,,,,,,,,,,,,,,,,,,,,,,30.89351119985804,None,['1'],1,[0.046179400058463216],30.89351119985804,None,,001,2022_Jan_12_1732,TMTAstop-A,2021.2.3,143.91947423279117,
26:52,12,['2'],2,TMTstop-A_1_2linestimulus9.png,TMTstop-A_1_2greenlinestimulus9.png,TMTstop-A_1_2redlinestimulus9.png,2,,,,,,,,,0,1,1,1,0,11,11,11,,,,,,,,,,,,,,,,,,,,,,,31.059814299922436,None,['2'],1,[-0.019594599958509207],31.059814299922436,None,,001,2022_Jan_12_1732,TMTAstop-A,2021.2.3,143.91947423279117,
26:52,13,['3'],3,TMTstop-A_1_2linestimulus10.png,TMTstop-A_1_2greenlinestimulus10.png,TMTstop-A_1_2redlinestimulus10.png,2,,,,,,,,,0,1,1,1,0,12,12,12,,,,,,,,,,,,,,,,,,,,,,,31.136807499919087,None,['3'],1,[0.0024838000535964966],31.136807499919087,None,,001,2022_Jan_12_1732,TMTAstop-A,2021.2.3,143.91947423279117,
26:52,14,['1'],1,TMTstop-A_1_2linestimulus11.png,TMTstop-A_1_2greenlinestimulus11.png,TMTstop-A_1_2redlinestimulus11.png,2,,,,,,,,,0,1,1,1,0,13,13,13,,,,,,,,,,,,,,,,,,,,,,,31.21981450007297,None,['1'],1,[0.040008299984037876],31.21981450007297,None,,001,2022_Jan_12_1732,TMTAstop-A,2021.2.3,143.91947423279117,
26:52,15,['3'],3,TMTstop-A_1_2linestimulus12.png,TMTstop-A_1_2greenlinestimulus12.png,TMTstop-A_1_2redlinestimulus12.png,2,,,,,,,,,0,1,1,1,0,14,14,14,,,,,,,,,,,,,,,,,,,,,,,31.330729099921882,None,"['2', '3']",1,"[-0.008132500108331442, 0.08471249998547137]",31.330729099921882,None,,001,2022_Jan_12_1732,TMTAstop-A,2021.2.3,143.91947423279117,
26:52,16,['1'],1,TMTstop-A_1_2linestimulus13.png,TMTstop-A_1_2greenlinestimulus13.png,TMTstop-A_1_2redlinestimulus13.png,2,,,,,,,,,0,1,1,1,0,15,15,15,,,,,,,,,,,,,,,,,,,,,,,31.51896549994126,None,['1'],1,[0.03212859993800521],31.51896549994126,None,,001,2022_Jan_12_1732,TMTAstop-A,2021.2.3,143.91947423279117,
26:52,17,['2'],2,TMTstop-A_1_2linestimulus14.png,TMTstop-A_1_2greenlinestimulus14.png,TMTstop-A_1_2redlinestimulus14.png,2,,,,,,,,,0,1,1,1,0,16,16,16,,,,,,,,,,,,,,,,,,,,,,,31.63013059995137,None,['2'],1,[-0.00045199994929134846],31.63013059995137,None,,001,2022_Jan_12_1732,TMTAstop-A,2021.2.3,143.91947423279117,
26:52,18,['1'],1,TMTstop-A_1_2linestimulus15.png,TMTstop-A_1_2greenlinestimulus15.png,TMTstop-A_1_2redlinestimulus15.png,2,,,,,,,,,0,1,1,1,0,17,17,17,,,,,,,,,,,,,,,,,,,,,,,31.69877819996327,None,"['3', '1']",1,"[0.015642999904230237, 0.15401339996606112]",31.69877819996327,None,,001,2022_Jan_12_1732,TMTAstop-A,2021.2.3,143.91947423279117,
26:52,19,['3'],3,TMTstop-A_1_2linestimulus16.png,TMTstop-A_1_2greenlinestimulus16.png,TMTstop-A_1_2redlinestimulus16.png,2,,,,,,,,,0,1,1,1,0,18,18,18,,,,,,,,,,,,,,,,,,,,,,,31.969848999986425,None,"['2', '3']",1,"[-0.04843289987184107, 0.047725200187414885]",31.969848999986425,None,,001,2022_Jan_12_1732,TMTAstop-A,2021.2.3,143.91947423279117,
26:52,20,['1'],1,TMTstop-A_1_2linestimulus17.png,TMTstop-A_1_2greenlinestimulus17.png,TMTstop-A_1_2redlinestimulus17.png,2,,,,,,,,,0,1,1,1,0,19,19,19,,,,,,,,,,,,,,,,,,,,,,,32.12266399990767,None,['1'],1,[0.033366700168699026],32.12266399990767,None,,001,2022_Jan_12_1732,TMTAstop-A,2021.2.3,143.91947423279117,
26:52,21,['2'],2,TMTstop-A_1_2linestimulus18.png,TMTstop-A_1_2greenlinestimulus18.png,TMTstop-A_1_2redlinestimulus18.png,2,,,,,,,,,0,1,1,1,0,20,20,20,,,,,,,,,,,,,,,,,,,,,,,32.22666689986363,None,['2'],1,[-0.0181000002194196],32.22666689986363,None,,001,2022_Jan_12_1732,TMTAstop-A,2021.2.3,143.91947423279117,
26:52,22,['1'],1,TMTstop-A_1_2linestimulus19.png,TMTstop-A_1_2greenlinestimulus19.png,TMTstop-A_1_2redlinestimulus19.png,2,,,,,,,,,0,1,1,1,0,21,21,21,,,,,,,,,,,,,,,,,,,,,,,32.29599989997223,None,"['3', '1']",1,"[0.026796899968758225, 0.15560489986091852]",32.29599989997223,None,,001,2022_Jan_12_1732,TMTAstop-A,2021.2.3,143.91947423279117,
26:52,23,['2'],2,TMTstop-A_1_2linestimulus20.png,TMTstop-A_1_2greenlinestimulus20.png,TMTstop-A_1_2redlinestimulus20.png,2,,,,,,,,,0,1,1,1,0,22,22,22,,,,,,,,,,,,,,,,,,,,,,,32.5602901999373,None,['2'],1,[-0.04566579987294972],32.5602901999373,None,,001,2022_Jan_12_1732,TMTAstop-A,2021.2.3,143.91947423279117,
26:52,24,['1'],1,TMTstop-A_1_2linestimulus21.png,TMTstop-A_1_2greenlinestimulus21.png,TMTstop-A_1_2redlinestimulus21.png,2,,,,,,,,,0,1,1,1,0,23,23,23,,,,,,,,,,,,,,,,,,,,,,,32.6362260999158,None,"['3', '1']",1,"[-0.006600500084459782, 0.10455809999257326]",32.6362260999158,None,,001,2022_Jan_12_1732,TMTAstop-A,2021.2.3,143.91947423279117,
26:52,25,['2'],2,TMTstop-A_1_2linestimulus22.png,TMTstop-A_1_2greenlinestimulus22.png,TMTstop-A_1_2redlinestimulus22.png,2,,,,,,,,,0,1,1,1,0,24,24,24,,,,,,,,,,,,,,,,,,,,,,,32.837968999985605,None,['2'],1,[-0.03350810008123517],32.837968999985605,None,,001,2022_Jan_12_1732,TMTAstop-A,2021.2.3,143.91947423279117,
26:52,None,None,None,TMTstop-A_1_2linestimulus23.png,TMTstop-A_1_2greenlinestimulus23.png,TMTstop-A_1_2redlinestimulus23.png,2,,,,,,,,,0,1,1,1,0,25,25,25,,,,,,,,,,,,,,,,,,,,,,,32.9071549999062,None,"['3', '1', '2', '3', '1', '2']",0,"[0.01496539986692369, 0.14361570007167757, 0.1943961998913437, 0.29958270001225173, 0.44204330001957715, 0.5317245000042021]",32.9071549999062,None,,001,2022_Jan_12_1732,TMTAstop-A,2021.2.3,143.91947423279117,
52:78,1,['2'],2,TMTstop-A_1_3.png,TMTstop-A_1_3.png,TMTstop-A_1_3.png,3,,,,,,,,,0,2,2,2,0,0,0,0,,,,,,,,,33.98099959990941,None,,,,,,,,,,,,,37.01750570000149,None,['2'],1,[0.7530761999078095],37.01750570000149,None,,001,2022_Jan_12_1732,TMTAstop-A,2021.2.3,143.91947423279117,
52:78,2,['1'],1,TMTstop-A_1_3.png,TMTstop-A_1_3firstgreen.png,TMTstop-A_1_3firstred.png,3,,,,,,,,,0,2,2,2,0,1,1,1,,,,,,,,,,,,,,,,,,,,,,,37.85198349994607,None,['1'],1,[0.05619839997962117],37.85198349994607,None,,001,2022_Jan_12_1732,TMTAstop-A,2021.2.3,143.91947423279117,
52:78,3,['3'],3,TMTstop-A_1_3linestimulus0.png,TMTstop-A_1_3greenlinestimulus0.png,TMTstop-A_1_3redlinestimulus0.png,3,,,,,,,,,0,2,2,2,0,2,2,2,,,,,,,,,,,,,,,,,,,,,,,37.983259700005874,None,['3'],1,[-0.01600740011781454],37.983259700005874,None,,001,2022_Jan_12_1732,TMTAstop-A,2021.2.3,143.91947423279117,
52:78,4,['2'],2,TMTstop-A_1_3linestimulus1.png,TMTstop-A_1_3greenlinestimulus1.png,TMTstop-A_1_3redlinestimulus1.png,3,,,,,,,,,0,2,2,2,0,3,3,3,,,,,,,,,,,,,,,,,,,,,,,38.05299889994785,None,"['1', '2']",1,"[0.11067890003323555, 0.15146619989536703]",38.05299889994785,None,,001,2022_Jan_12_1732,TMTAstop-A,2021.2.3,143.91947423279117,
52:78,5,['3'],3,TMTstop-A_1_3linestimulus2.png,TMTstop-A_1_3greenlinestimulus2.png,TMTstop-A_1_3redlinestimulus2.png,3,,,,,,,,,0,2,2,2,0,4,4,4,,,,,,,,,,,,,,,,,,,,,,,38.27527670003474,None,['3'],1,[0.05091770016588271],38.27527670003474,None,,001,2022_Jan_12_1732,TMTAstop-A,2021.2.3,143.91947423279117,
52:78,6,['2'],2,TMTstop-A_1_3linestimulus3.png,TMTstop-A_1_3greenlinestimulus3.png,TMTstop-A_1_3redlinestimulus3.png,3,,,,,,,,,0,2,2,2,0,5,5,5,,,,,,,,,,,,,,,,,,,,,,,38.40046039992012,None,"['1', '2']",1,"[0.058114799903705716, 0.12117219995707273]",38.40046039992012,None,,001,2022_Jan_12_1732,TMTAstop-A,2021.2.3,143.91947423279117,
52:78,7,['1'],1,TMTstop-A_1_3linestimulus4.png,TMTstop-A_1_3greenlinestimulus4.png,TMTstop-A_1_3redlinestimulus4.png,3,,,,,,,,,0,2,2,2,0,6,6,6,,,,,,,,,,,,,,,,,,,,,,,38.62320540007204,None,"['3', '1']",1,"[0.003147199982777238, 0.12560630007646978]",38.62320540007204,None,,001,2022_Jan_12_1732,TMTAstop-A,2021.2.3,143.91947423279117,
52:78,8,['2'],2,TMTstop-A_1_3linestimulus5.png,TMTstop-A_1_3greenlinestimulus5.png,TMTstop-A_1_3redlinestimulus5.png,3,,,,,,,,,0,2,2,2,0,7,7,7,,,,,,,,,,,,,,,,,,,,,,,38.83060129988007,None,['2'],1,[-0.05133719998411834],38.83060129988007,None,,001,2022_Jan_12_1732,TMTAstop-A,2021.2.3,143.91947423279117,
52:78,9,['3'],3,TMTstop-A_1_3linestimulus6.png,TMTstop-A_1_3greenlinestimulus6.png,TMTstop-A_1_3redlinestimulus6.png,3,,,,,,,,,0,2,2,2,0,8,8,8,,,,,,,,,,,,,,,,,,,,,,,38.90679550007917,None,['3'],1,[0.004655699944123626],38.90679550007917,None,,001,2022_Jan_12_1732,TMTAstop-A,2021.2.3,143.91947423279117,
52:78,10,['2'],2,TMTstop-A_1_3linestimulus7.png,TMTstop-A_1_3greenlinestimulus7.png,TMTstop-A_1_3redlinestimulus7.png,3,,,,,,,,,0,2,2,2,0,9,9,9,,,,,,,,,,,,,,,,,,,,,,,38.99044599989429,None,"['1', '2']",1,"[0.05634810007177293, 0.09377559996210039]",38.99044599989429,None,,001,2022_Jan_12_1732,TMTAstop-A,2021.2.3,143.91947423279117,
52:78,11,['3'],3,TMTstop-A_1_3linestimulus8.png,TMTstop-A_1_3greenlinestimulus8.png,TMTstop-A_1_3redlinestimulus8.png,3,,,,,,,,,0,2,2,2,0,10,10,10,,,,,,,,,,,,,,,,,,,,,,,39.15707929991186,None,['3'],1,[0.046383799985051155],39.15707929991186,None,,001,2022_Jan_12_1732,TMTAstop-A,2021.2.3,143.91947423279117,
52:78,12,['2'],2,TMTstop-A_1_3linestimulus9.png,TMTstop-A_1_3greenlinestimulus9.png,TMTstop-A_1_3redlinestimulus9.png,3,,,,,,,,,0,2,2,2,0,11,11,11,,,,,,,,,,,,,,,,,,,,,,,39.282321400009096,None,"['1', '2']",1,"[0.046022600028663874, 0.12106849998235703]",39.282321400009096,None,,001,2022_Jan_12_1732,TMTAstop-A,2021.2.3,143.91947423279117,
52:78,13,['1'],1,TMTstop-A_1_3linestimulus10.png,TMTstop-A_1_3greenlinestimulus10.png,TMTstop-A_1_3redlinestimulus10.png,3,,,,,,,,,0,2,2,2,0,12,12,12,,,,,,,,,,,,,,,,,,,,,,,39.49839639989659,None,"['3', '1']",1,"[-0.02022089995443821, 0.1026488000061363]",39.49839639989659,None,,001,2022_Jan_12_1732,TMTAstop-A,2021.2.3,143.91947423279117,
52:78,14,['2'],2,TMTstop-A_1_3linestimulus11.png,TMTstop-A_1_3greenlinestimulus11.png,TMTstop-A_1_3redlinestimulus11.png,3,,,,,,,,,0,2,2,2,0,13,13,13,,,,,,,,,,,,,,,,,,,,,,,39.699234399944544,None,['2'],1,[-0.024938399903476238],39.699234399944544,None,,001,2022_Jan_12_1732,TMTAstop-A,2021.2.3,143.91947423279117,
52:78,15,['1'],1,TMTstop-A_1_3linestimulus12.png,TMTstop-A_1_3greenlinestimulus12.png,TMTstop-A_1_3redlinestimulus12.png,3,,,,,,,,,0,2,2,2,0,14,14,14,,,,,,,,,,,,,,,,,,,,,,,39.77491439995356,None,"['3', '1']",1,"[0.0006353000644594431, 0.14136529993265867]",39.77491439995356,None,,001,2022_Jan_12_1732,TMTAstop-A,2021.2.3,143.91947423279117,
52:78,16,['2'],2,TMTstop-A_1_3linestimulus13.png,TMTstop-A_1_3greenlinestimulus13.png,TMTstop-A_1_3redlinestimulus13.png,3,,,,,,,,,0,2,2,2,0,15,15,15,,,,,,,,,,,,,,,,,,,,,,,40.01140549988486,None,['2'],1,[-0.05660949996672571],40.01140549988486,None,,001,2022_Jan_12_1732,TMTAstop-A,2021.2.3,143.91947423279117,
52:78,17,['3'],3,TMTstop-A_1_3linestimulus14.png,TMTstop-A_1_3greenlinestimulus14.png,TMTstop-A_1_3redlinestimulus14.png,3,,,,,,,,,0,2,2,2,0,16,16,16,,,,,,,,,,,,,,,,,,,,,,,40.08731579990126,None,['3'],1,[-0.019405100028961897],40.08731579990126,None,,001,2022_Jan_12_1732,TMTAstop-A,2021.2.3,143.91947423279117,
52:78,18,['2'],2,TMTstop-A_1_3linestimulus15.png,TMTstop-A_1_3greenlinestimulus15.png,TMTstop-A_1_3redlinestimulus15.png,3,,,,,,,,,0,2,2,2,0,17,17,17,,,,,,,,,,,,,,,,,,,,,,,40.15725139994174,None,"['1', '2']",1,"[0.026182000059634447, 0.09993969998322427]",40.15725139994174,None,,001,2022_Jan_12_1732,TMTAstop-A,2021.2.3,143.91947423279117,
52:78,19,['1'],1,TMTstop-A_1_3linestimulus16.png,TMTstop-A_1_3greenlinestimulus16.png,TMTstop-A_1_3redlinestimulus16.png,3,,,,,,,,,0,2,2,2,0,18,18,18,,,,,,,,,,,,,,,,,,,,,,,40.35276570008136,None,"['3', '1']",1,"[0.024345400044694543, 0.15019670012407005]",40.35276570008136,None,,001,2022_Jan_12_1732,TMTAstop-A,2021.2.3,143.91947423279117,
52:78,20,['2'],2,TMTstop-A_1_3linestimulus17.png,TMTstop-A_1_3greenlinestimulus17.png,TMTstop-A_1_3redlinestimulus17.png,3,,,,,,,,,0,2,2,2,0,19,19,19,,,,,,,,,,,,,,,,,,,,,,,40.61795870005153,None,['2'],1,[-0.07740519987419248],40.61795870005153,None,,001,2022_Jan_12_1732,TMTAstop-A,2021.2.3,143.91947423279117,
52:78,21,['3'],3,TMTstop-A_1_3linestimulus18.png,TMTstop-A_1_3greenlinestimulus18.png,TMTstop-A_1_3redlinestimulus18.png,3,,,,,,,,,0,2,2,2,0,20,20,20,,,,,,,,,,,,,,,,,,,,,,,40.70703769987449,None,['3'],1,[-0.038848500000312924],40.70703769987449,None,,001,2022_Jan_12_1732,TMTAstop-A,2021.2.3,143.91947423279117,
52:78,22,['1'],1,TMTstop-A_1_3linestimulus19.png,TMTstop-A_1_3greenlinestimulus19.png,TMTstop-A_1_3redlinestimulus19.png,3,,,,,,,,,0,2,2,2,0,21,21,21,,,,,,,,,,,,,,,,,,,,,,,40.78191319992766,None,['1'],1,[0.026229700073599815],40.78191319992766,None,,001,2022_Jan_12_1732,TMTAstop-A,2021.2.3,143.91947423279117,
52:78,23,['3'],3,TMTstop-A_1_3linestimulus20.png,TMTstop-A_1_3greenlinestimulus20.png,TMTstop-A_1_3redlinestimulus20.png,3,,,,,,,,,0,2,2,2,0,22,22,22,,,,,,,,,,,,,,,,,,,,,,,40.88604489993304,None,"['2', '3']",1,"[-0.02658020006492734, 0.09136690013110638]",40.88604489993304,None,,001,2022_Jan_12_1732,TMTAstop-A,2021.2.3,143.91947423279117,
52:78,24,['1'],1,TMTstop-A_1_3linestimulus21.png,TMTstop-A_1_3greenlinestimulus21.png,TMTstop-A_1_3redlinestimulus21.png,3,,,,,,,,,0,2,2,2,0,23,23,23,,,,,,,,,,,,,,,,,,,,,,,41.080553099978715,None,['1'],1,[0.01279209996573627],41.080553099978715,None,,001,2022_Jan_12_1732,TMTAstop-A,2021.2.3,143.91947423279117,
52:78,25,['3'],3,TMTstop-A_1_3linestimulus22.png,TMTstop-A_1_3greenlinestimulus22.png,TMTstop-A_1_3redlinestimulus22.png,3,,,,,,,,,0,2,2,2,0,24,24,24,,,,,,,,,,,,,,,,,,,,,,,41.17072939989157,None,"['2', '3']",1,"[-0.01823089993558824, 0.11476480006240308]",41.17072939989157,None,,001,2022_Jan_12_1732,TMTAstop-A,2021.2.3,143.91947423279117,
52:78,None,None,None,TMTstop-A_1_3linestimulus23.png,TMTstop-A_1_3greenlinestimulus23.png,TMTstop-A_1_3redlinestimulus23.png,3,,,,,,,,,0,2,2,2,0,25,25,25,,,,,,,,,,,,,,,,,,,,,,,41.37226219987497,None,"['1', '3', '1', '2', '3']",0,"[0.06330400006845593, 0.21536210016347468, 0.3613896002061665, 0.4496048002038151, 0.5662192001473159]",41.37226219987497,None,,001,2022_Jan_12_1732,TMTAstop-A,2021.2.3,143.91947423279117,
78:104,1,['3'],3,TMTstop-A_1_4.png,TMTstop-A_1_4.png,TMTstop-A_1_4.png,4,,,,,,,,,0,3,3,3,0,0,0,0,,,,,,,,,42.453335100086406,None,,,,,,,,,,,,,45.46868179994635,None,"['1', '2', '3']",1,"[0.5640223999507725, 0.613993400009349, 0.7283516998868436]",45.46868179994635,None,,001,2022_Jan_12_1732,TMTAstop-A,2021.2.3,143.91947423279117,
78:104,2,['1'],1,TMTstop-A_1_4.png,TMTstop-A_1_4firstgreen.png,TMTstop-A_1_4firstred.png,4,,,,,,,,,0,3,3,3,0,1,1,1,,,,,,,,,,,,,,,,,,,,,,,46.28179259994067,None,['1'],1,[0.05345330014824867],46.28179259994067,None,,001,2022_Jan_12_1732,TMTAstop-A,2021.2.3,143.91947423279117,
78:104,3,['3'],3,TMTstop-A_1_4linestimulus0.png,TMTstop-A_1_4greenlinestimulus0.png,TMTstop-A_1_4redlinestimulus0.png,4,,,,,,,,,0,3,3,3,0,2,2,2,,,,,,,,,,,,,,,,,,,,,,,46.40670940000564,None,"['2', '3']",1,"[0.0053773000836372375, 0.10719690006226301]",46.40670940000564,None,,001,2022_Jan_12_1732,TMTAstop-A,2021.2.3,143.91947423279117,
78:104,4,['1'],1,TMTstop-A_1_4linestimulus1.png,TMTstop-A_1_4greenlinestimulus1.png,TMTstop-A_1_4redlinestimulus1.png,4,,,,,,,,,0,3,3,3,0,3,3,3,,,,,,,,,,,,,,,,,,,,,,,46.6084278000053,None,['1'],1,[0.04072909988462925],46.6084278000053,None,,001,2022_Jan_12_1732,TMTAstop-A,2021.2.3,143.91947423279117,
78:104,5,['2'],2,TMTstop-A_1_4linestimulus2.png,TMTstop-A_1_4greenlinestimulus2.png,TMTstop-A_1_4redlinestimulus2.png,4,,,,,,,,,0,3,3,3,0,4,4,4,,,,,,,,,,,,,,,,,,,,,,,46.719201100058854,None,['2'],1,[0.0033454999793320894],46.719201100058854,None,,001,2022_Jan_12_1732,TMTAstop-A,2021.2.3,143.91947423279117,
78:104,6,['3'],3,TMTstop-A_1_4linestimulus3.png,TMTstop-A_1_4greenlinestimulus3.png,TMTstop-A_1_4redlinestimulus3.png,4,,,,,,,,,0,3,3,3,0,5,5,5,,,,,,,,,,,,,,,,,,,,,,,46.80245509999804,None,['3'],1,[0.017024400178343058],46.80245509999804,None,,001,2022_Jan_12_1732,TMTAstop-A,2021.2.3,143.91947423279117,
78:104,7,['2'],2,TMTstop-A_1_4linestimulus4.png,TMTstop-A_1_4greenlinestimulus4.png,TMTstop-A_1_4redlinestimulus4.png,4,,,,,,,,,0,3,3,3,0,6,6,6,,,,,,,,,,,,,,,,,,,,,,,46.900001799920574,None,"['1', '2']",1,"[0.06099709984846413, 0.12871109996922314]",46.900001799920574,None,,001,2022_Jan_12_1732,TMTAstop-A,2021.2.3,143.91947423279117,
78:104,8,['3'],3,TMTstop-A_1_4linestimulus5.png,TMTstop-A_1_4greenlinestimulus5.png,TMTstop-A_1_4redlinestimulus5.png,4,,,,,,,,,0,3,3,3,0,7,7,7,,,,,,,,,,,,,,,,,,,,,,,47.11502410005778,None,['3'],1,[0.010001000016927719],47.11502410005778,None,,001,2022_Jan_12_1732,TMTAstop-A,2021.2.3,143.91947423279117,
78:104,9,['1'],1,TMTstop-A_1_4linestimulus6.png,TMTstop-A_1_4greenlinestimulus6.png,TMTstop-A_1_4redlinestimulus6.png,4,,,,,,,,,0,3,3,3,0,8,8,8,,,,,,,,,,,,,,,,,,,,,,,47.19861449999735,None,['1'],1,[0.09626040002331138],47.19861449999735,None,,001,2022_Jan_12_1732,TMTAstop-A,2021.2.3,143.91947423279117,
78:104,10,['2'],2,TMTstop-A_1_4linestimulus7.png,TMTstop-A_1_4greenlinestimulus7.png,TMTstop-A_1_4redlinestimulus7.png,4,,,,,,,,,0,3,3,3,0,9,9,9,,,,,,,,,,,,,,,,,,,,,,,47.365079999901354,None,['2'],1,[-0.023022999987006187],47.365079999901354,None,,001,2022_Jan_12_1732,TMTAstop-A,2021.2.3,143.91947423279117,
78:104,11,['3'],3,TMTstop-A_1_4linestimulus8.png,TMTstop-A_1_4greenlinestimulus8.png,TMTstop-A_1_4redlinestimulus8.png,4,,,,,,,,,0,3,3,3,0,10,10,10,,,,,,,,,,,,,,,,,,,,,,,47.434426999883726,None,['3'],1,[0.044074300210922956],47.434426999883726,None,,001,2022_Jan_12_1732,TMTAstop-A,2021.2.3,143.91947423279117,
78:104,12,['1'],1,TMTstop-A_1_4linestimulus9.png,TMTstop-A_1_4greenlinestimulus9.png,TMTstop-A_1_4redlinestimulus9.png,4,,,,,,,,,0,3,3,3,0,11,11,11,,,,,,,,,,,,,,,,,,,,,,,47.552649199962616,None,['1'],1,[0.05853319982998073],47.552649199962616,None,,001,2022_Jan_12_1732,TMTAstop-A,2021.2.3,143.91947423279117,
78:104,13,['2'],2,TMTstop-A_1_4linestimulus10.png,TMTstop-A_1_4greenlinestimulus10.png,TMTstop-A_1_4redlinestimulus10.png,4,,,,,,,,,0,3,3,3,0,12,12,12,,,,,,,,,,,,,,,,,,,,,,,47.69155099987984,None,['2'],1,[-0.0011885999701917171],47.69155099987984,None,,001,2022_Jan_12_1732,TMTAstop-A,2021.2.3,143.91947423279117,
78:104,14,['1'],1,TMTstop-A_1_4linestimulus11.png,TMTstop-A_1_4greenlinestimulus11.png,TMTstop-A_1_4redlinestimulus11.png,4,,,,,,,,,0,3,3,3,0,13,13,13,,,,,,,,,,,,,,,,,,,,,,,47.76085780002177,None,"['3', '1']",1,"[0.027263900032266974, 0.1888339000288397]",47.76085780002177,None,,001,2022_Jan_12_1732,TMTAstop-A,2021.2.3,143.91947423279117,
78:104,15,['2'],2,TMTstop-A_1_4linestimulus12.png,TMTstop-A_1_4greenlinestimulus12.png,TMTstop-A_1_4redlinestimulus12.png,4,,,,,,,,,0,3,3,3,0,14,14,14,,,,,,,,,,,,,,,,,,,,,,,48.031484599923715,None,['2'],1,[-0.013172599952667952],48.031484599923715,None,,001,2022_Jan_12_1732,TMTAstop-A,2021.2.3,143.91947423279117,
78:104,16,['3'],3,TMTstop-A_1_4linestimulus13.png,TMTstop-A_1_4greenlinestimulus13.png,TMTstop-A_1_4redlinestimulus13.png,4,,,,,,,,,0,3,3,3,0,15,15,15,,,,,,,,,,,,,,,,,,,,,,,48.1010364999529,None,['3'],1,[0.01844000001437962],48.1010364999529,None,,001,2022_Jan_12_1732,TMTAstop-A,2021.2.3,143.91947423279117,
78:104,17,['1'],1,TMTstop-A_1_4linestimulus14.png,TMTstop-A_1_4greenlinestimulus14.png,TMTstop-A_1_4redlinestimulus14.png,4,,,,,,,,,0,3,3,3,0,16,16,16,,,,,,,,,,,,,,,,,,,,,,,48.1984458998777,None,['1'],1,[0.05147170019336045],48.1984458998777,None,,001,2022_Jan_12_1732,TMTAstop-A,2021.2.3,143.91947423279117,
78:104,18,['2'],2,TMTstop-A_1_4linestimulus15.png,TMTstop-A_1_4greenlinestimulus15.png,TMTstop-A_1_4redlinestimulus15.png,4,,,,,,,,,0,3,3,3,0,17,17,17,,,,,,,,,,,,,,,,,,,,,,,48.33079129992984,None,['2'],1,[-0.007351600099354982],48.33079129992984,None,,001,2022_Jan_12_1732,TMTAstop-A,2021.2.3,143.91947423279117,
78:104,19,['1'],1,TMTstop-A_1_4linestimulus16.png,TMTstop-A_1_4greenlinestimulus16.png,TMTstop-A_1_4redlinestimulus16.png,4,,,,,,,,,0,3,3,3,0,18,18,18,,,,,,,,,,,,,,,,,,,,,,,48.40650100004859,None,"['3', '1']",1,"[0.03615659987553954, 0.18284939997829497]",48.40650100004859,None,,001,2022_Jan_12_1732,TMTAstop-A,2021.2.3,143.91947423279117,
78:104,20,['3'],3,TMTstop-A_1_4linestimulus17.png,TMTstop-A_1_4greenlinestimulus17.png,TMTstop-A_1_4redlinestimulus17.png,4,,,,,,,,,0,3,3,3,0,19,19,19,,,,,,,,,,,,,,,,,,,,,,,48.68456589989364,None,"['2', '1', '2', '3']",1,"[0.03255530004389584, 0.40213459986262023, 0.5142709999345243, 0.5915121000725776]",48.68456589989364,None,,001,2022_Jan_12_1732,TMTAstop-A,2021.2.3,143.91947423279117,
78:104,21,['1'],1,TMTstop-A_1_4linestimulus18.png,TMTstop-A_1_4greenlinestimulus18.png,TMTstop-A_1_4redlinestimulus18.png,4,,,,,,,,,0,3,3,3,0,20,20,20,,,,,,,,,,,,,,,,,,,,,,,49.38640769990161,None,['1'],1,[0.0319779000710696],49.38640769990161,None,,001,2022_Jan_12_1732,TMTAstop-A,2021.2.3,143.91947423279117,
78:104,22,['3'],3,TMTstop-A_1_4linestimulus19.png,TMTstop-A_1_4greenlinestimulus19.png,TMTstop-A_1_4redlinestimulus19.png,4,,,,,,,,,0,3,3,3,0,21,21,21,,,,,,,,,,,,,,,,,,,,,,,49.49749509990215,None,"['2', '3']",1,"[0.006188499974086881, 0.10768939997069538]",49.49749509990215,None,,001,2022_Jan_12_1732,TMTAstop-A,2021.2.3,143.91947423279117,
78:104,23,['2'],2,TMTstop-A_1_4linestimulus20.png,TMTstop-A_1_4greenlinestimulus20.png,TMTstop-A_1_4redlinestimulus20.png,4,,,,,,,,,0,3,3,3,0,22,22,22,,,,,,,,,,,,,,,,,,,,,,,49.70591409993358,None,"['1', '2']",1,"[0.01905660005286336, 0.10501990001648664]",49.70591409993358,None,,001,2022_Jan_12_1732,TMTAstop-A,2021.2.3,143.91947423279117,
78:104,24,['3'],3,TMTstop-A_1_4linestimulus21.png,TMTstop-A_1_4greenlinestimulus21.png,TMTstop-A_1_4redlinestimulus21.png,4,,,,,,,,,0,3,3,3,0,23,23,23,,,,,,,,,,,,,,,,,,,,,,,49.885841799899936,None,['3'],1,[0.03436140017583966],49.885841799899936,None,,001,2022_Jan_12_1732,TMTAstop-A,2021.2.3,143.91947423279117,
78:104,25,['2'],2,TMTstop-A_1_4linestimulus22.png,TMTstop-A_1_4greenlinestimulus22.png,TMTstop-A_1_4redlinestimulus22.png,4,,,,,,,,,0,3,3,3,0,24,24,24,,,,,,,,,,,,,,,,,,,,,,,50.00400110008195,None,"['1', '2']",1,"[0.022385799791663885, 0.11073359986767173]",50.00400110008195,None,,001,2022_Jan_12_1732,TMTAstop-A,2021.2.3,143.91947423279117,
78:104,None,None,None,TMTstop-A_1_4linestimulus23.png,TMTstop-A_1_4greenlinestimulus23.png,TMTstop-A_1_4redlinestimulus23.png,4,,,,,,,,,0,3,3,3,0,25,25,25,,,,,,,,,,,,,,,,,,,,,,,50.19148819986731,None,None,1,,50.19148819986731,None,,001,2022_Jan_12_1732,TMTAstop-A,2021.2.3,143.91947423279117,
104:130,1,['2'],2,TMTstop-A_1_5.png,TMTstop-A_1_5.png,TMTstop-A_1_5.png,5,,,,,,,,,0,4,4,4,0,0,0,0,,,,,,,,,51.258510099956766,None,,,,,,,,,,,,,54.288439200026914,None,"['1', '2']",1,"[0.5115910000167787, 0.5350385999772698]",54.288439200026914,None,,001,2022_Jan_12_1732,TMTAstop-A,2021.2.3,143.91947423279117,
104:130,2,['1'],1,TMTstop-A_1_5.png,TMTstop-A_1_5firstgreen.png,TMTstop-A_1_5firstred.png,5,,,,,,,,,0,4,4,4,0,1,1,1,,,,,,,,,,,,,,,,,,,,,,,54.91328049986623,None,"['3', '1']",1,"[0.06088040000759065, 0.21520560001954436]",54.91328049986623,None,,001,2022_Jan_12_1732,TMTAstop-A,2021.2.3,143.91947423279117,
104:130,3,['3'],3,TMTstop-A_1_5linestimulus0.png,TMTstop-A_1_5greenlinestimulus0.png,TMTstop-A_1_5redlinestimulus0.png,5,,,,,,,,,0,4,4,4,0,2,2,2,,,,,,,,,,,,,,,,,,,,,,,55.21941770007834,None,"['2', '3']",1,"[-0.054159900173544884, 0.07389789982698858]",55.21941770007834,None,,001,2022_Jan_12_1732,TMTAstop-A,2021.2.3,143.91947423279117,
104:130,4,['2'],2,TMTstop-A_1_5linestimulus1.png,TMTstop-A_1_5greenlinestimulus1.png,TMTstop-A_1_5redlinestimulus1.png,5,,,,,,,,,0,4,4,4,0,3,3,3,,,,,,,,,,,,,,,,,,,,,,,55.37914049997926,None,"['1', '2']",1,"[0.04743599984794855, 0.10367450001649559]",55.37914049997926,None,,001,2022_Jan_12_1732,TMTAstop-A,2021.2.3,143.91947423279117,
104:130,5,['3'],3,TMTstop-A_1_5linestimulus2.png,TMTstop-A_1_5greenlinestimulus2.png,TMTstop-A_1_5redlinestimulus2.png,5,,,,,,,,,0,4,4,4,0,4,4,4,,,,,,,,,,,,,,,,,,,,,,,55.59452320006676,None,['3'],1,[-0.0015688999556005],55.59452320006676,None,,001,2022_Jan_12_1732,TMTAstop-A,2021.2.3,143.91947423279117,
104:130,6,['1'],1,TMTstop-A_1_5linestimulus3.png,TMTstop-A_1_5greenlinestimulus3.png,TMTstop-A_1_5redlinestimulus3.png,5,,,,,,,,,0,4,4,4,0,5,5,5,,,,,,,,,,,,,,,,,,,,,,,55.67119150003418,None,['1'],1,[0.07553879986517131],55.67119150003418,None,,001,2022_Jan_12_1732,TMTAstop-A,2021.2.3,143.91947423279117,
104:130,7,['3'],3,TMTstop-A_1_5linestimulus4.png,TMTstop-A_1_5greenlinestimulus4.png,TMTstop-A_1_5redlinestimulus4.png,5,,,,,,,,,0,4,4,4,0,6,6,6,,,,,,,,,,,,,,,,,,,,,,,55.823660699883476,None,"['2', '3']",1,"[-0.03468989999964833, 0.0883739001583308]",55.823660699883476,None,,001,2022_Jan_12_1732,TMTAstop-A,2021.2.3,143.91947423279117,
104:130,8,['2'],2,TMTstop-A_1_5linestimulus5.png,TMTstop-A_1_5greenlinestimulus5.png,TMTstop-A_1_5redlinestimulus5.png,5,,,,,,,,,0,4,4,4,0,7,7,7,,,,,,,,,,,,,,,,,,,,,,,56.0178437998984,None,"['1', '2']",1,"[0.032324899919331074, 0.06831960007548332]",56.0178437998984,None,,001,2022_Jan_12_1732,TMTAstop-A,2021.2.3,143.91947423279117,
104:130,9,['1'],1,TMTstop-A_1_5linestimulus6.png,TMTstop-A_1_5greenlinestimulus6.png,TMTstop-A_1_5redlinestimulus6.png,5,,,,,,,,,0,4,4,4,0,8,8,8,,,,,,,,,,,,,,,,,,,,,,,56.17051890003495,None,"['3', '1']",1,"[0.03286230005323887, 0.19089520000852644]",56.17051890003495,None,,001,2022_Jan_12_1732,TMTAstop-A,2021.2.3,143.91947423279117,
104:130,10,['3'],3,TMTstop-A_1_5linestimulus7.png,TMTstop-A_1_5greenlinestimulus7.png,TMTstop-A_1_5redlinestimulus7.png,5,,,,,,,,,0,4,4,4,0,9,9,9,,,,,,,,,,,,,,,,,,,,,,,56.448619599919766,None,"['2', '3']",1,"[-0.03757189982570708, 0.08125000004656613]",56.448619599919766,None,,001,2022_Jan_12_1732,TMTAstop-A,2021.2.3,143.91947423279117,
104:130,11,['2'],2,TMTstop-A_1_5linestimulus8.png,TMTstop-A_1_5greenlinestimulus8.png,TMTstop-A_1_5redlinestimulus8.png,5,,,,,,,,,0,4,4,4,0,10,10,10,,,,,,,,,,,,,,,,,,,,,,,56.6012355000712,None,"['1', '2']",1,"[0.09502830007113516, 0.12896679993718863]",56.6012355000712,None,,001,2022_Jan_12_1732,TMTAstop-A,2021.2.3,143.91947423279117,
104:130,12,['3'],3,TMTstop-A_1_5linestimulus9.png,TMTstop-A_1_5greenlinestimulus9.png,TMTstop-A_1_5redlinestimulus9.png,5,,,,,,,,,0,4,4,4,0,11,11,11,,,,,,,,,,,,,,,,,,,,,,,56.80240779998712,None,['3'],1,[0.051545700058341026],56.80240779998712,None,,001,2022_Jan_12_1732,TMTAstop-A,2021.2.3,143.91947423279117,
104:130,13,['1'],1,TMTstop-A_1_5linestimulus10.png,TMTstop-A_1_5greenlinestimulus10.png,TMTstop-A_1_5redlinestimulus10.png,5,,,,,,,,,0,4,4,4,0,12,12,12,,,,,,,,,,,,,,,,,,,,,,,56.92760970001109,None,['1'],1,[0.05457370006479323],56.92760970001109,None,,001,2022_Jan_12_1732,TMTAstop-A,2021.2.3,143.91947423279117,
104:130,14,['3'],3,TMTstop-A_1_5linestimulus11.png,TMTstop-A_1_5greenlinestimulus11.png,TMTstop-A_1_5redlinestimulus11.png,5,,,,,,,,,0,4,4,4,0,13,13,13,,,,,,,,,,,,,,,,,,,,,,,57.05249759997241,None,"['2', '3']",1,"[-0.0070876001846045256, 0.11218969989567995]",57.05249759997241,None,,001,2022_Jan_12_1732,TMTAstop-A,2021.2.3,143.91947423279117,
104:130,15,['1'],1,TMTstop-A_1_5linestimulus12.png,TMTstop-A_1_5greenlinestimulus12.png,TMTstop-A_1_5redlinestimulus12.png,5,,,,,,,,,0,4,4,4,0,14,14,14,,,,,,,,,,,,,,,,,,,,,,,57.24717479990795,None,['1'],1,[0.045623600017279387],57.24717479990795,None,,001,2022_Jan_12_1732,TMTAstop-A,2021.2.3,143.91947423279117,
104:130,16,['3'],3,TMTstop-A_1_5linestimulus13.png,TMTstop-A_1_5greenlinestimulus13.png,TMTstop-A_1_5redlinestimulus13.png,5,,,,,,,,,0,4,4,4,0,15,15,15,,,,,,,,,,,,,,,,,,,,,,,57.3788395000156,None,"['2', '3']",1,"[-0.019486399833112955, 0.0836335001513362]",57.3788395000156,None,,001,2022_Jan_12_1732,TMTAstop-A,2021.2.3,143.91947423279117,
104:130,17,['2'],2,TMTstop-A_1_5linestimulus14.png,TMTstop-A_1_5greenlinestimulus14.png,TMTstop-A_1_5redlinestimulus14.png,5,,,,,,,,,0,4,4,4,0,16,16,16,,,,,,,,,,,,,,,,,,,,,,,57.531857999973,None,"['1', '2']",1,"[0.07697740010917187, 0.1087007001042366]",57.531857999973,None,,001,2022_Jan_12_1732,TMTAstop-A,2021.2.3,143.91947423279117,
104:130,18,['1'],1,TMTstop-A_1_5linestimulus15.png,TMTstop-A_1_5greenlinestimulus15.png,TMTstop-A_1_5redlinestimulus15.png,5,,,,,,,,,0,4,4,4,0,17,17,17,,,,,,,,,,,,,,,,,,,,,,,57.726345899980515,None,"['3', '1']",1,"[0.04577820003032684, 0.18294880003668368]",57.726345899980515,None,,001,2022_Jan_12_1732,TMTAstop-A,2021.2.3,143.91947423279117,
104:130,19,['3'],3,TMTstop-A_1_5linestimulus16.png,TMTstop-A_1_5greenlinestimulus16.png,TMTstop-A_1_5redlinestimulus16.png,5,,,,,,,,,0,4,4,4,0,18,18,18,,,,,,,,,,,,,,,,,,,,,,,58.01785869989544,None,"['2', '3']",1,"[-0.04290129989385605, 0.07012490020133555]",58.01785869989544,None,,001,2022_Jan_12_1732,TMTAstop-A,2021.2.3,143.91947423279117,
104:130,20,['1'],1,TMTstop-A_1_5linestimulus17.png,TMTstop-A_1_5greenlinestimulus17.png,TMTstop-A_1_5redlinestimulus17.png,5,,,,,,,,,0,4,4,4,0,19,19,19,,,,,,,,,,,,,,,,,,,,,,,58.17814900004305,None,['1'],1,[0.051618400029838085],58.17814900004305,None,,001,2022_Jan_12_1732,TMTAstop-A,2021.2.3,143.91947423279117,
104:130,21,['2'],2,TMTstop-A_1_5linestimulus18.png,TMTstop-A_1_5greenlinestimulus18.png,TMTstop-A_1_5redlinestimulus18.png,5,,,,,,,,,0,4,4,4,0,20,20,20,,,,,,,,,,,,,,,,,,,,,,,58.34668299998157,None,['2'],1,[-0.055625899927690625],58.34668299998157,None,,001,2022_Jan_12_1732,TMTAstop-A,2021.2.3,143.91947423279117,
104:130,22,['3'],3,TMTstop-A_1_5linestimulus19.png,TMTstop-A_1_5greenlinestimulus19.png,TMTstop-A_1_5redlinestimulus19.png,5,,,,,,,,,0,4,4,4,0,21,21,21,,,,,,,,,,,,,,,,,,,,,,,58.4203854999505,None,['3'],1,[-0.0031938001047819853],58.4203854999505,None,,001,2022_Jan_12_1732,TMTAstop-A,2021.2.3,143.91947423279117,
104:130,23,['2'],2,TMTstop-A_1_5linestimulus20.png,TMTstop-A_1_5greenlinestimulus20.png,TMTstop-A_1_5redlinestimulus20.png,5,,,,,,,,,0,4,4,4,0,22,22,22,,,,,,,,,,,,,,,,,,,,,,,58.490508100017905,None,"['1', '2']",1,"[0.04878320009447634, 0.07443509995937347]",58.490508100017905,None,,001,2022_Jan_12_1732,TMTAstop-A,2021.2.3,143.91947423279117,
104:130,24,['3'],3,TMTstop-A_1_5linestimulus21.png,TMTstop-A_1_5greenlinestimulus21.png,TMTstop-A_1_5redlinestimulus21.png,5,,,,,,,,,0,4,4,4,0,23,23,23,,,,,,,,,,,,,,,,,,,,,,,58.66371489991434,None,['3'],1,[0.052645600168034434],58.66371489991434,None,,001,2022_Jan_12_1732,TMTAstop-A,2021.2.3,143.91947423279117,
104:130,25,['2'],2,TMTstop-A_1_5linestimulus22.png,TMTstop-A_1_5greenlinestimulus22.png,TMTstop-A_1_5redlinestimulus22.png,5,,,,,,,,,0,4,4,4,0,24,24,24,,,,,,,,,,,,,,,,,,,,,,,58.78887789999135,None,"['1', '2']",1,"[0.06742360000498593, 0.12346879998221993]",58.78887789999135,None,,001,2022_Jan_12_1732,TMTAstop-A,2021.2.3,143.91947423279117,
104:130,None,None,None,TMTstop-A_1_5linestimulus23.png,TMTstop-A_1_5greenlinestimulus23.png,TMTstop-A_1_5redlinestimulus23.png,5,,,,,,,,,0,4,4,4,0,25,25,25,,,,,,,,,,,,,,,,,,,,,,,59.02446860005148,None,"['3', '1', '2', '3', '1', '2', '3']",0,"[0.005059299990534782, 0.14392209984362125, 0.2046544998884201, 0.3409092999063432, 0.4833690000232309, 0.5655300999060273, 0.6883437000215054]",59.02446860005148,None,,001,2022_Jan_12_1732,TMTAstop-A,2021.2.3,143.91947423279117,
130:156,1,['1'],1,TMTstop-A_1_6.png,TMTstop-A_1_6.png,TMTstop-A_1_6.png,6,,,,,,,,,0,5,5,5,0,0,0,0,,,,,,,,,60.154045399976894,None,,,,,,,,,,,,,63.15608919993974,None,['1'],1,[0.4454836000222713],63.15608919993974,None,,001,2022_Jan_12_1732,TMTAstop-A,2021.2.3,143.91947423279117,
130:156,2,['2'],2,TMTstop-A_1_6.png,TMTstop-A_1_6firstgreen.png,TMTstop-A_1_6firstred.png,6,,,,,,,,,0,5,5,5,0,1,1,1,,,,,,,,,,,,,,,,,,,,,,,63.68445029994473,None,['2'],1,[-0.025275700027123094],63.68445029994473,None,,001,2022_Jan_12_1732,TMTAstop-A,2021.2.3,143.91947423279117,
130:156,3,['3'],3,TMTstop-A_1_6linestimulus0.png,TMTstop-A_1_6greenlinestimulus0.png,TMTstop-A_1_6redlinestimulus0.png,6,,,,,,,,,0,5,5,5,0,2,2,2,,,,,,,,,,,,,,,,,,,,,,,63.754261299967766,None,['3'],1,[0.014985600020736456],63.754261299967766,None,,001,2022_Jan_12_1732,TMTAstop-A,2021.2.3,143.91947423279117,
130:156,4,['1'],1,TMTstop-A_1_6linestimulus1.png,TMTstop-A_1_6greenlinestimulus1.png,TMTstop-A_1_6redlinestimulus1.png,6,,,,,,,,,0,5,5,5,0,3,3,3,,,,,,,,,,,,,,,,,,,,,,,63.850906499894336,None,['1'],1,[0.07008469989523292],63.850906499894336,None,,001,2022_Jan_12_1732,TMTAstop-A,2021.2.3,143.91947423279117,
130:156,5,['3'],3,TMTstop-A_1_6linestimulus2.png,TMTstop-A_1_6greenlinestimulus2.png,TMTstop-A_1_6redlinestimulus2.png,6,,,,,,,,,0,5,5,5,0,4,4,4,,,,,,,,,,,,,,,,,,,,,,,64.01133250002749,None,"['2', '3']",1,"[-0.001973200123757124, 0.09715399984270334]",64.01133250002749,None,,001,2022_Jan_12_1732,TMTAstop-A,2021.2.3,143.91947423279117,
130:156,6,['1'],1,TMTstop-A_1_6linestimulus3.png,TMTstop-A_1_6greenlinestimulus3.png,TMTstop-A_1_6redlinestimulus3.png,6,,,,,,,,,0,5,5,5,0,5,5,5,,,,,,,,,,,,,,,,,,,,,,,64.21976780006662,None,['1'],1,[0.05671019991859794],64.21976780006662,None,,001,2022_Jan_12_1732,TMTAstop-A,2021.2.3,143.91947423279117,
130:156,7,['3'],3,TMTstop-A_1_6linestimulus4.png,TMTstop-A_1_6greenlinestimulus4.png,TMTstop-A_1_6redlinestimulus4.png,6,,,,,,,,,0,5,5,5,0,6,6,6,,,,,,,,,,,,,,,,,,,,,,,64.35795890004374,None,"['2', '3']",1,"[-0.0570802001748234, 0.097184999845922]",64.35795890004374,None,,001,2022_Jan_12_1732,TMTAstop-A,2021.2.3,143.91947423279117,
130:156,8,['1'],1,TMTstop-A_1_6linestimulus5.png,TMTstop-A_1_6greenlinestimulus5.png,TMTstop-A_1_6redlinestimulus5.png,6,,,,,,,,,0,5,5,5,0,7,7,7,,,,,,,,,,,,,,,,,,,,,,,64.55255290004425,None,['1'],1,[0.06024859985336661],64.55255290004425,None,,001,2022_Jan_12_1732,TMTAstop-A,2021.2.3,143.91947423279117,
130:156,9,['2'],2,TMTstop-A_1_6linestimulus6.png,TMTstop-A_1_6greenlinestimulus6.png,TMTstop-A_1_6redlinestimulus6.png,6,,,,,,,,,0,5,5,5,0,8,8,8,,,,,,,,,,,,,,,,,,,,,,,64.68418990005739,None,['2'],1,[-0.023395900148898363],64.68418990005739,None,,001,2022_Jan_12_1732,TMTAstop-A,2021.2.3,143.91947423279117,
130:156,10,['3'],3,TMTstop-A_1_6linestimulus7.png,TMTstop-A_1_6greenlinestimulus7.png,TMTstop-A_1_6redlinestimulus7.png,6,,,,,,,,,0,5,5,5,0,9,9,9,,,,,,,,,,,,,,,,,,,,,,,64.76096179988235,None,['3'],1,[0.020161600084975362],64.76096179988235,None,,001,2022_Jan_12_1732,TMTAstop-A,2021.2.3,143.91947423279117,
130:156,11,['1'],1,TMTstop-A_1_6linestimulus8.png,TMTstop-A_1_6greenlinestimulus8.png,TMTstop-A_1_6redlinestimulus8.png,6,,,,,,,,,0,5,5,5,0,10,10,10,,,,,,,,,,,,,,,,,,,,,,,64.87177559989505,None,"['1', '2', '3', '1', '2', '3', '1']",1,"[0.09782809996977448, 0.10275970003567636, 0.2530330999288708, 0.4212233000434935, 0.4248907999135554, 0.5374920000322163, 0.6679845000617206]",64.87177559989505,None,,001,2022_Jan_12_1732,TMTAstop-A,2021.2.3,143.91947423279117,
130:156,12,['3'],3,TMTstop-A_1_6linestimulus9.png,TMTstop-A_1_6greenlinestimulus9.png,TMTstop-A_1_6redlinestimulus9.png,6,,,,,,,,,0,5,5,5,0,11,11,11,,,,,,,,,,,,,,,,,,,,,,,65.6286919999402,None,"['2', '3']",1,"[-0.03270659991540015, 0.09162209997884929]",65.6286919999402,None,,001,2022_Jan_12_1732,TMTAstop-A,2021.2.3,143.91947423279117,
130:156,13,['2'],2,TMTstop-A_1_6linestimulus10.png,TMTstop-A_1_6greenlinestimulus10.png,TMTstop-A_1_6redlinestimulus10.png,6,,,,,,,,,0,5,5,5,0,12,12,12,,,,,,,,,,,,,,,,,,,,,,,65.82293780008331,None,"['1', '2']",1,"[0.06091780005954206, 0.1250770001206547]",65.82293780008331,None,,001,2022_Jan_12_1732,TMTAstop-A,2021.2.3,143.91947423279117,
130:156,14,['3'],3,TMTstop-A_1_6linestimulus11.png,TMTstop-A_1_6greenlinestimulus11.png,TMTstop-A_1_6redlinestimulus11.png,6,,,,,,,,,0,5,5,5,0,13,13,13,,,,,,,,,,,,,,,,,,,,,,,66.04535620007664,None,['3'],1,[0.025628400035202503],66.04535620007664,None,,001,2022_Jan_12_1732,TMTAstop-A,2021.2.3,143.91947423279117,
130:156,15,['2'],2,TMTstop-A_1_6linestimulus12.png,TMTstop-A_1_6greenlinestimulus12.png,TMTstop-A_1_6redlinestimulus12.png,6,,,,,,,,,0,5,5,5,0,14,14,14,,,,,,,,,,,,,,,,,,,,,,,66.1495107000228,None,"['1', '2']",1,"[0.11749619990587234, 0.15484380000270903]",66.1495107000228,None,,001,2022_Jan_12_1732,TMTAstop-A,2021.2.3,143.91947423279117,
130:156,16,['1'],1,TMTstop-A_1_6linestimulus13.png,TMTstop-A_1_6greenlinestimulus13.png,TMTstop-A_1_6redlinestimulus13.png,6,,,,,,,,,0,5,5,5,0,15,15,15,,,,,,,,,,,,,,,,,,,,,,,66.38557370007038,None,"['3', '1']",1,"[0.07415689993649721, 0.2238101998809725]",66.38557370007038,None,,001,2022_Jan_12_1732,TMTAstop-A,2021.2.3,143.91947423279117,
130:156,17,['3'],3,TMTstop-A_1_6linestimulus14.png,TMTstop-A_1_6greenlinestimulus14.png,TMTstop-A_1_6redlinestimulus14.png,6,,,,,,,,,0,5,5,5,0,16,16,16,,,,,,,,,,,,,,,,,,,,,,,66.72591069992632,None,"['2', '3']",1,"[-0.06071739993058145, 0.05771750002168119]",66.72591069992632,None,,001,2022_Jan_12_1732,TMTAstop-A,2021.2.3,143.91947423279117,
130:156,18,['1'],1,TMTstop-A_1_6linestimulus15.png,TMTstop-A_1_6greenlinestimulus15.png,TMTstop-A_1_6redlinestimulus15.png,6,,,,,,,,,0,5,5,5,0,17,17,17,,,,,,,,,,,,,,,,,,,,,,,66.87859410000965,None,['1'],1,[0.05841519986279309],66.87859410000965,None,,001,2022_Jan_12_1732,TMTAstop-A,2021.2.3,143.91947423279117,
130:156,19,['2'],2,TMTstop-A_1_6linestimulus16.png,TMTstop-A_1_6greenlinestimulus16.png,TMTstop-A_1_6redlinestimulus16.png,6,,,,,,,,,0,5,5,5,0,18,18,18,,,,,,,,,,,,,,,,,,,,,,,67.01745430007577,None,['2'],1,[-0.021424500038847327],67.01745430007577,None,,001,2022_Jan_12_1732,TMTAstop-A,2021.2.3,143.91947423279117,
130:156,20,['3'],3,TMTstop-A_1_6linestimulus17.png,TMTstop-A_1_6greenlinestimulus17.png,TMTstop-A_1_6redlinestimulus17.png,6,,,,,,,,,0,5,5,5,0,19,19,19,,,,,,,,,,,,,,,,,,,,,,,67.08795919991098,None,['3'],1,[0.04021800006739795],67.08795919991098,None,,001,2022_Jan_12_1732,TMTAstop-A,2021.2.3,143.91947423279117,
130:156,21,['2'],2,TMTstop-A_1_6linestimulus18.png,TMTstop-A_1_6greenlinestimulus18.png,TMTstop-A_1_6redlinestimulus18.png,6,,,,,,,,,0,5,5,5,0,20,20,20,,,,,,,,,,,,,,,,,,,,,,,67.20495799998753,None,"['1', '2']",1,"[0.07394660008139908, 0.15313920006155968]",67.20495799998753,None,,001,2022_Jan_12_1732,TMTAstop-A,2021.2.3,143.91947423279117,
130:156,22,['3'],3,TMTstop-A_1_6linestimulus19.png,TMTstop-A_1_6greenlinestimulus19.png,TMTstop-A_1_6redlinestimulus19.png,6,,,,,,,,,0,5,5,5,0,21,21,21,,,,,,,,,,,,,,,,,,,,,,,67.44103479990736,None,['3'],1,[0.03386960015632212],67.44103479990736,None,,001,2022_Jan_12_1732,TMTAstop-A,2021.2.3,143.91947423279117,
130:156,23,['1'],1,TMTstop-A_1_6linestimulus20.png,TMTstop-A_1_6greenlinestimulus20.png,TMTstop-A_1_6redlinestimulus20.png,6,,,,,,,,,0,5,5,5,0,22,22,22,,,,,,,,,,,,,,,,,,,,,,,67.55960909998976,None,['1'],1,[0.051529600052163005],67.55960909998976,None,,001,2022_Jan_12_1732,TMTAstop-A,2021.2.3,143.91947423279117,
130:156,24,['2'],2,TMTstop-A_1_6linestimulus21.png,TMTstop-A_1_6greenlinestimulus21.png,TMTstop-A_1_6redlinestimulus21.png,6,,,,,,,,,0,5,5,5,0,23,23,23,,,,,,,,,,,,,,,,,,,,,,,67.68431119993329,None,['2'],1,[-0.013728499878197908],67.68431119993329,None,,001,2022_Jan_12_1732,TMTAstop-A,2021.2.3,143.91947423279117,
130:156,25,['3'],3,TMTstop-A_1_6linestimulus22.png,TMTstop-A_1_6greenlinestimulus22.png,TMTstop-A_1_6redlinestimulus22.png,6,,,,,,,,,0,5,5,5,0,24,24,24,,,,,,,,,,,,,,,,,,,,,,,67.75359770003706,None,['3'],1,[0.0518694999627769],67.75359770003706,None,,001,2022_Jan_12_1732,TMTAstop-A,2021.2.3,143.91947423279117,
130:156,None,None,None,TMTstop-A_1_6linestimulus23.png,TMTstop-A_1_6greenlinestimulus23.png,TMTstop-A_1_6redlinestimulus23.png,6,,,,,,,,,0,5,5,5,0,25,25,25,,,,,,,,,,,,,,,,,,,,,,,67.87171779992059,None,"['1', '2', '3', '1', '2', '3']",0,"[0.06769880000501871, 0.1301343000959605, 0.2592313000932336, 0.40968529996462166, 0.4633834999985993, 0.580860200105235]",67.87171779992059,None,,001,2022_Jan_12_1732,TMTAstop-A,2021.2.3,143.91947423279117,
,,,,,,,,,,,,,,,,,,,,,,,,,,,,,,,,69.00802959990688,None,,,,,,,,,,,,,,,,,,,,,,,,,,
