NumberLetter,corrAns,Correct,StimFile,Correct_StimFile,False_StimFile,Version,Block,TrialNumber_session,n,Stim.started_mean,Stim.started_raw,Stim.started_std,Stim.stopped_raw,key_resp_2.corr_mean,key_resp_2.corr_raw,key_resp_2.corr_std,key_resp_2.keys_raw,key_resp_2.rt_raw,key_resp_2.started_mean,key_resp_2.started_raw,key_resp_2.started_std,key_resp_2.stopped_raw,order
1,['2'],2,TMTstop-control_1_1.png,TMTstop-control_1_1.png,TMTstop-control_1_1.png,TMT_Control,1,1,1.0,11.5335111618042,11.5335111618042,0.0,,1.0,1.0,0.0,3,2,1.9322653999988688,2.3609880000003614,11.5335111618042,11.5335111618042,0.0,,0.0
2,['1'],1,TMTstop-control_1_1.png,TMTstop-control_1_1firstgreen.png,TMTstop-control_1_1firstred.png,TMT_Control,1,2,1.0,13.944486618041992,13.944486618041992,0.0,,1.0,1.0,0.0,1,0.31091259999084286,13.944486618041992,13.944486618041992,0.0,,1.0
3,['3'],3,TMTstop-control_1_1linestimulus0.png,TMTstop-control_1_1greenlinestimulus0.png,TMTstop-control_1_1redlinestimulus0.png,TMT_Control,1,3,1.0,14.319341659545898,14.319341659545898,0.0,,1.0,1.0,0.0,2,3,0.17794549999234732,0.1857875999994576,14.319341659545898,14.319341659545898,0.0,,2.0
4,['1'],1,TMTstop-control_1_1linestimulus1.png,TMTstop-control_1_1greenlinestimulus1.png,TMTstop-control_1_1redlinestimulus1.png,TMT_Control,1,4,1.0,14.610785484313965,14.610785484313965,0.0,,1.0,1.0,0.0,1,0.0028097999893361703,14.610785484313965,14.610785484313965,0.0,,3.0
5,['3'],3,TMTstop-control_1_1linestimulus2.png,TMTstop-control_1_1greenlinestimulus2.png,TMTstop-control_1_1redlinestimulus2.png,TMT_Control,1,5,1.0,14.693702697753906,14.693702697753906,0.0,,1.0,1.0,0.0,3,0.07176829999662004,14.693702697753906,14.693702697753906,0.0,,4.0
6,['1'],1,TMTstop-control_1_1linestimulus3.png,TMTstop-control_1_1greenlinestimulus3.png,TMTstop-control_1_1redlinestimulus3.png,TMT_Control,1,6,1.0,14.831092834472656,14.831092834472656,0.0,,1.0,1.0,0.0,2,1,-0.037060000002384186,0.09073609999904875,14.831092834472656,14.831092834472656,0.0,,5.0
7,['2'],2,TMTstop-control_1_1linestimulus4.png,TMTstop-control_1_1greenlinestimulus4.png,TMTstop-control_1_1redlinestimulus4.png,TMT_Control,1,7,1.0,14.986148834228516,14.986148834228516,0.0,,1.0,1.0,0.0,3,2,0.0735487999918405,0.10295179999957327,14.986148834228516,14.986148834228516,0.0,,6.0
8,['1'],1,TMTstop-control_1_1linestimulus4.png,TMTstop-control_1_1greenlinestimulus5.png,TMTstop-control_1_1redlinestimulus5.png,TMT_Control,1,8,1.0,15.178608894348145,15.178608894348145,0.0,,1.0,1.0,0.0,1,0.02963150000141468,15.178608894348145,15.178608894348145,0.0,,7.0
9,['3'],3,TMTstop-control_1_1linestimulus6.png,TMTstop-control_1_1greenlinestimulus6.png,TMTstop-control_1_1redlinestimulus6.png,TMT_Control,1,9,1.0,15.267498970031738,15.267498970031738,0.0,,1.0,1.0,0.0,3,2,1,2,3,0.08945099999255035,0.09407209999335464,0.2449027999973623,0.41421859999536537,0.41886320000048727,15.267498970031738,15.267498970031738,0.0,,8.0
10,['2'],2,TMTstop-control_1_1linestimulus7.png,TMTstop-control_1_1greenlinestimulus7.png,TMTstop-control_1_1redlinestimulus7.png,TMT_Control,1,10,1.0,15.782007217407227,15.782007217407227,0.0,,1.0,1.0,0.0,1,2,0.06007120000140276,0.20968439998978283,15.782007217407227,15.782007217407227,0.0,,9.0
11,['1'],1,TMTstop-control_1_1linestimulus8.png,TMTstop-control_1_1greenlinestimulus8.png,TMTstop-control_1_1redlinestimulus8.png,TMT_Control,1,11,1.0,16.055458068847656,16.055458068847656,0.0,,1.0,1.0,0.0,1,0.11352440000337083,16.055458068847656,16.055458068847656,0.0,,10.0
12,['2'],2,TMTstop-control_1_1linestimulus9.png,TMTstop-control_1_1greenlinestimulus9.png,TMTstop-control_1_1redlinestimulus9.png,TMT_Control,1,12,1.0,16.221786499023438,16.221786499023438,0.0,,1.0,1.0,0.0,3,2,0.09212919999845326,0.18156339999404736,16.221786499023438,16.221786499023438,0.0,,11.0
13,['3'],3,TMTstop-control_1_1linestimulus10.png,TMTstop-control_1_1greenlinestimulus10.png,TMTstop-control_1_1redlinestimulus10.png,TMT_Control,1,13,1.0,16.487258911132812,16.487258911132812,0.0,,1.0,1.0,0.0,1,2,3,0.011441199996625073,0.13438019999011885,0.13888079999014735,16.487258911132812,16.487258911132812,0.0,,12.0
14,['2'],2,TMTstop-control_1_1linestimulus11.png,TMTstop-control_1_1greenlinestimulus11.png,TMTstop-control_1_1redlinestimulus11.png,TMT_Control,1,14,1.0,16.71632194519043,16.71632194519043,0.0,,1.0,1.0,0.0,1,2,3,1,3,2,0.06725950000691228,0.24525950000679586,0.24995160000980832,0.41040730000531767,0.5845732000016142,0.5892959000047995,16.71632194519043,16.71632194519043,0.0,,13.0
15,['3'],3,TMTstop-control_1_1linestimulus12.png,TMTstop-control_1_1greenlinestimulus12.png,TMTstop-control_1_1redlinestimulus12.png,TMT_Control,1,15,1.0,17.389249801635742,17.389249801635742,0.0,,1.0,1.0,0.0,1,2,1,2,3,0.08109240001067519,0.2270110000099521,0.41854800000146497,0.6365886999992654,0.6398487999977078,17.389249801635742,17.389249801635742,0.0,,14.0
16,['2'],2,TMTstop-control_1_1linestimulus13.png,TMTstop-control_1_1greenlinestimulus13.png,TMTstop-control_1_1redlinestimulus13.png,TMT_Control,1,16,1.0,18.125568389892578,18.125568389892578,0.0,,1.0,1.0,0.0,1,2,3,1,2,3,1,1,2,0.07040289998985827,0.24523069999122526,0.24837190000107512,0.4003284999926109,0.5469363999873167,0.5529286999953911,0.7208737999899313,1.2287960999965435,1.3991765999962809,18.125568389892578,18.125568389892578,0.0,,15.0
17,['3'],3,TMTstop-control_1_1linestimulus14.png,TMTstop-control_1_1greenlinestimulus14.png,TMTstop-control_1_1redlinestimulus14.png,TMT_Control,1,17,1.0,19.61612319946289,19.61612319946289,0.0,,1.0,1.0,0.0,1,2,3,0.12744529999326915,0.20279699999082368,0.32867269999405835,19.61612319946289,19.61612319946289,0.0,,16.0
18,['2'],2,TMTstop-control_1_1linestimulus15.png,TMTstop-control_1_1greenlinestimulus15.png,TMTstop-control_1_1redlinestimulus15.png,TMT_Control,1,18,1.0,20.009735107421875,20.009735107421875,0.0,,1.0,1.0,0.0,1,2,0.08695490000536665,0.26718360000813846,20.009735107421875,20.009735107421875,0.0,,17.0
19,['1'],1,TMTstop-control_1_1linestimulus16.png,TMTstop-control_1_1greenlinestimulus16.png,TMTstop-control_1_1redlinestimulus16.png,TMT_Control,1,19,1.0,20.37298583984375,20.37298583984375,0.0,,1.0,1.0,0.0,1,0.02856469999824185,20.37298583984375,20.37298583984375,0.0,,18.0
20,['3'],3,TMTstop-control_1_1linestimulus17.png,TMTstop-control_1_1greenlinestimulus17.png,TMTstop-control_1_1redlinestimulus17.png,TMT_Control,1,20,1.0,20.473163604736328,20.473163604736328,0.0,,1.0,1.0,0.0,3,0.055211099999723956,20.473163604736328,20.473163604736328,0.0,,19.0
21,['1'],1,TMTstop-control_1_1linestimulus18.png,TMTstop-control_1_1greenlinestimulus18.png,TMTstop-control_1_1redlinestimulus18.png,TMT_Control,1,21,1.0,20.58994483947754,20.58994483947754,0.0,,1.0,1.0,0.0,2,1,-0.04265000000305008,0.12167350000527222,20.58994483947754,20.58994483947754,0.0,,20.0
22,['2'],2,TMTstop-control_1_1linestimulus19.png,TMTstop-control_1_1greenlinestimulus19.png,TMTstop-control_1_1redlinestimulus19.png,TMT_Control,1,22,1.0,20.80122947692871,20.80122947692871,0.0,,1.0,1.0,0.0,3,2,0.04235059999336954,0.08469160000095144,20.80122947692871,20.80122947692871,0.0,,21.0
23,['3'],3,TMTstop-control_1_1linestimulus20.png,TMTstop-control_1_1greenlinestimulus20.png,TMTstop-control_1_1redlinestimulus20.png,TMT_Control,1,23,1.0,20.952329635620117,20.952329635620117,0.0,,1.0,1.0,0.0,1,3,0.07726769999135286,0.225541499996325,20.952329635620117,20.952329635620117,0.0,,22.0
24,['2'],2,TMTstop-control_1_1linestimulus21.png,TMTstop-control_1_1greenlinestimulus21.png,TMTstop-control_1_1redlinestimulus21.png,TMT_Control,1,24,1.0,21.245344161987305,21.245344161987305,0.0,,1.0,1.0,0.0,2,-0.026856800002860837,21.245344161987305,21.245344161987305,0.0,,23.0
25,['1'],1,TMTstop-control_1_1linestimulus22.png,TMTstop-control_1_1greenlinestimulus22.png,TMTstop-control_1_1redlinestimulus22.png,TMT_Control,1,25,1.0,21.295438766479492,21.295438766479492,0.0,,1.0,1.0,0.0,1,0.0401034999958938,21.295438766479492,21.295438766479492,0.0,,24.0
None,None,None,TMTstop-control_1_1linestimulus23.png,TMTstop-control_1_1greenlinestimulus23.png,TMTstop-control_1_1redlinestimulus23.png,TMT_Control,1,Feedback_last,1.0,21.395851135253906,21.395851135253906,0.0,,0.0,0.0,0.0,3,2,1,3,2,0.10164310000254773,0.13821530000132043,0.26705919999221805,0.40255980000074487,0.4504612000018824,21.395851135253906,21.395851135253906,0.0,,25.0

extraInfo
participant,
session,001
date,2022_May_10_1514
expName,TMT_fmri
psychopyVersion,2021.2.3
frameRate,59.87841090009852
﻿NumberLetter,corrAns,Correct,StimFile,Correct_StimFile,False_StimFile,Version,Block,TrialNumber_session,n,Stim.started_mean,Stim.started_raw,Stim.started_std,Stim.stopped_raw,key_resp_2.corr_mean,key_resp_2.corr_raw,key_resp_2.corr_std,key_resp_2.keys_raw,key_resp_2.rt_raw,key_resp_2.started_mean,key_resp_2.started_raw,key_resp_2.started_std,key_resp_2.stopped_raw,order
1,['2'],2,TMTstop-control_1_2.png,TMTstop-control_1_2.png,TMTstop-control_1_2.png,TMT_Control,2,26,1.0,25.51396369934082,25.51396369934082,0.0,,1.0,1.0,0.0,2,0.5962321999977576,25.51396369934082,25.51396369934082,0.0,,0.0
2,['3'],3,TMTstop-control_1_2.png,TMTstop-control_1_2firstgreen.png,TMTstop-control_1_2firstred.png,TMT_Control,2,27,1.0,26.172626495361328,26.172626495361328,0.0,,1.0,1.0,0.0,3,0.21261719999893103,26.172626495361328,26.172626495361328,0.0,,1.0
3,['2'],2,TMTstop-control_1_2linestimulus0.png,TMTstop-control_1_2greenlinestimulus0.png,TMTstop-control_1_2redlinestimulus0.png,TMT_Control,2,28,1.0,26.44676399230957,26.44676399230957,0.0,,1.0,1.0,0.0,1,2,3,1,3,2,0.05424940001103096,0.2509018999990076,0.2554043999989517,0.3975691000086954,0.5813061000080779,0.5850031000009039,26.44676399230957,26.44676399230957,0.0,,2.0
4,['3'],3,TMTstop-control_1_2linestimulus1.png,TMTstop-control_1_2greenlinestimulus1.png,TMTstop-control_1_2redlinestimulus1.png,TMT_Control,2,29,1.0,27.10797691345215,27.10797691345215,0.0,,1.0,1.0,0.0,1,3,2,1,3,0.08064679999370128,0.26621000000159256,0.27036179999413434,0.41530860000057146,0.5806827999913367,27.10797691345215,27.10797691345215,0.0,,3.0
5,['2'],2,TMTstop-control_1_2linestimulus2.png,TMTstop-control_1_2greenlinestimulus2.png,TMTstop-control_1_2redlinestimulus2.png,TMT_Control,2,30,1.0,27.759069442749023,27.759069442749023,0.0,,1.0,1.0,0.0,2,-0.0429535000002943,27.759069442749023,27.759069442749023,0.0,,4.0
6,['3'],3,TMTstop-control_1_2linestimulus3.png,TMTstop-control_1_2greenlinestimulus3.png,TMTstop-control_1_2redlinestimulus3.png,TMT_Control,2,31,1.0,27.811098098754883,27.811098098754883,0.0,,1.0,1.0,0.0,1,3,0.06111199999577366,0.21303129999432713,27.811098098754883,27.811098098754883,0.0,,5.0
7,['2'],2,TMTstop-control_1_2linestimulus4.png,TMTstop-control_1_2greenlinestimulus4.png,TMTstop-control_1_2redlinestimulus4.png,TMT_Control,2,32,1.0,28.094667434692383,28.094667434692383,0.0,,1.0,1.0,0.0,2,-0.03456550001283176,28.094667434692383,28.094667434692383,0.0,,6.0
8,['1'],1,TMTstop-control_1_2linestimulus4.png,TMTstop-control_1_2greenlinestimulus5.png,TMTstop-control_1_2redlinestimulus5.png,TMT_Control,2,33,1.0,28.14472007751465,28.14472007751465,0.0,,1.0,1.0,0.0,1,0.061642300002858974,28.14472007751465,28.14472007751465,0.0,,7.0
9,['3'],3,TMTstop-control_1_2linestimulus6.png,TMTstop-control_1_2greenlinestimulus6.png,TMTstop-control_1_2redlinestimulus6.png,TMT_Control,2,34,1.0,28.260990142822266,28.260990142822266,0.0,,1.0,1.0,0.0,3,0.0968523999908939,28.260990142822266,28.260990142822266,0.0,,8.0
10,['2'],2,TMTstop-control_1_2linestimulus7.png,TMTstop-control_1_2greenlinestimulus7.png,TMTstop-control_1_2redlinestimulus7.png,TMT_Control,2,35,1.0,28.41117286682129,28.41117286682129,0.0,,1.0,1.0,0.0,2,-0.011198299995157868,28.41117286682129,28.41117286682129,0.0,,9.0
11,['3'],3,TMTstop-control_1_2linestimulus8.png,TMTstop-control_1_2greenlinestimulus8.png,TMTstop-control_1_2redlinestimulus8.png,TMT_Control,2,36,1.0,28.461435317993164,28.461435317993164,0.0,,1.0,1.0,0.0,1,3,0.08476369999698363,0.2228233000059845,28.461435317993164,28.461435317993164,0.0,,10.0
12,['2'],2,TMTstop-control_1_2linestimulus9.png,TMTstop-control_1_2greenlinestimulus9.png,TMTstop-control_1_2redlinestimulus9.png,TMT_Control,2,37,1.0,28.752052307128906,28.752052307128906,0.0,,1.0,1.0,0.0,2,-0.029664200003026053,28.752052307128906,28.752052307128906,0.0,,11.0
13,['3'],3,TMTstop-control_1_2linestimulus10.png,TMTstop-control_1_2greenlinestimulus10.png,TMTstop-control_1_2redlinestimulus10.png,TMT_Control,2,38,1.0,28.80175018310547,28.80175018310547,0.0,,1.0,1.0,0.0,1,3,0.08363389999431092,0.2497573000000557,28.80175018310547,28.80175018310547,0.0,,12.0
14,['2'],2,TMTstop-control_1_2linestimulus11.png,TMTstop-control_1_2greenlinestimulus11.png,TMTstop-control_1_2redlinestimulus11.png,TMT_Control,2,39,1.0,29.14599609375,29.14599609375,0.0,,1.0,1.0,0.0,2,-0.0452246000058949,29.14599609375,29.14599609375,0.0,,13.0
15,['3'],3,TMTstop-control_1_2linestimulus12.png,TMTstop-control_1_2greenlinestimulus12.png,TMTstop-control_1_2redlinestimulus12.png,TMT_Control,2,40,1.0,29.196016311645508,29.196016311645508,0.0,,1.0,1.0,0.0,1,3,2,1,3,2,1,3,0.09054799999285024,0.2607787000015378,0.2927874000015436,0.44750059999933,0.6072866000031354,0.6478666000039084,0.8007464999973308,0.9531828000035603,29.196016311645508,29.196016311645508,0.0,,14.0
16,['1'],1,TMTstop-control_1_2linestimulus13.png,TMTstop-control_1_2greenlinestimulus13.png,TMTstop-control_1_2redlinestimulus13.png,TMT_Control,2,41,1.0,30.205890655517578,30.205890655517578,0.0,,1.0,1.0,0.0,2,1,-0.026068999999552034,0.14877800000249408,30.205890655517578,30.205890655517578,0.0,,15.0
17,['2'],2,TMTstop-control_1_2linestimulus14.png,TMTstop-control_1_2greenlinestimulus14.png,TMTstop-control_1_2redlinestimulus14.png,TMT_Control,2,42,1.0,30.409700393676758,30.409700393676758,0.0,,1.0,1.0,0.0,3,2,0.12825700000394136,0.21929710000404157,30.409700393676758,30.409700393676758,0.0,,16.0
18,['1'],1,TMTstop-control_1_2linestimulus15.png,TMTstop-control_1_2greenlinestimulus15.png,TMTstop-control_1_2redlinestimulus15.png,TMT_Control,2,43,1.0,30.698820114135742,30.698820114135742,0.0,,1.0,1.0,0.0,1,0.0473342000041157,30.698820114135742,30.698820114135742,0.0,,17.0
19,['2'],2,TMTstop-control_1_2linestimulus16.png,TMTstop-control_1_2greenlinestimulus16.png,TMTstop-control_1_2redlinestimulus16.png,TMT_Control,2,44,1.0,30.809720993041992,30.809720993041992,0.0,,1.0,1.0,0.0,3,2,0.062249800001154654,0.09067809999396559,30.809720993041992,30.809720993041992,0.0,,18.0
20,['3'],3,TMTstop-control_1_2linestimulus17.png,TMTstop-control_1_2greenlinestimulus17.png,TMTstop-control_1_2redlinestimulus17.png,TMT_Control,2,45,1.0,31.000930786132812,31.000930786132812,0.0,,1.0,1.0,0.0,1,3,0.06848899999749847,0.20705420000012964,31.000930786132812,31.000930786132812,0.0,,19.0
21,['1'],1,TMTstop-control_1_2linestimulus18.png,TMTstop-control_1_2greenlinestimulus18.png,TMTstop-control_1_2redlinestimulus18.png,TMT_Control,2,46,1.0,31.273361206054688,31.273361206054688,0.0,,1.0,1.0,0.0,2,1,-0.010103400010848418,0.17806249999557622,31.273361206054688,31.273361206054688,0.0,,20.0
22,['3'],3,TMTstop-control_1_2linestimulus19.png,TMTstop-control_1_2greenlinestimulus19.png,TMTstop-control_1_2redlinestimulus19.png,TMT_Control,2,47,1.0,31.52375602722168,31.52375602722168,0.0,,1.0,1.0,0.0,3,0.08927310000581201,31.52375602722168,31.52375602722168,0.0,,21.0
23,['2'],2,TMTstop-control_1_2linestimulus20.png,TMTstop-control_1_2greenlinestimulus20.png,TMTstop-control_1_2redlinestimulus20.png,TMT_Control,2,48,1.0,31.673803329467773,31.673803329467773,0.0,,1.0,1.0,0.0,2,-0.021940700011327863,31.673803329467773,31.673803329467773,0.0,,22.0
24,['3'],3,TMTstop-control_1_2linestimulus21.png,TMTstop-control_1_2greenlinestimulus21.png,TMTstop-control_1_2redlinestimulus21.png,TMT_Control,2,49,1.0,31.72393035888672,31.72393035888672,0.0,,1.0,1.0,0.0,1,3,0.10717699999804609,0.24147810001159087,31.72393035888672,31.72393035888672,0.0,,23.0
25,['1'],1,TMTstop-control_1_2linestimulus22.png,TMTstop-control_1_2greenlinestimulus22.png,TMTstop-control_1_2redlinestimulus22.png,TMT_Control,2,50,1.0,32.0527458190918,32.0527458190918,0.0,,1.0,1.0,0.0,2,1,-0.04846890000044368,0.11369209999975283,32.0527458190918,32.0527458190918,0.0,,24.0
None,None,None,TMTstop-control_1_2linestimulus23.png,TMTstop-control_1_2greenlinestimulus23.png,TMTstop-control_1_2redlinestimulus23.png,TMT_Control,2,Feedback_last,1.0,32.25295639038086,32.25295639038086,0.0,,0.0,0.0,0.0,3,2,1,3,2,1,0.03331410000100732,0.07016550000116695,0.27529749998939224,0.4220828999968944,0.46951939999416936,0.71257419999165,32.25295639038086,32.25295639038086,0.0,,25.0

extraInfo
participant,
session,001
date,2022_May_10_1514
expName,TMT_fmri
psychopyVersion,2021.2.3
frameRate,59.87841090009852
