Block_file,Condition_rows,NumberLetter,corrAns,Correct,StimFile,Correct_StimFile,False_StimFile,Version,Block,TrialNumber_session,Blocks_TMTControl.thisRepN,Blocks_TMTControl.thisTrialN,Blocks_TMTControl.thisN,Blocks_TMTControl.thisIndex,trials_TMTControl.thisRepN,trials_TMTControl.thisTrialN,trials_TMTControl.thisN,trials_TMTControl.thisIndex,Blocks_TMTA.thisRepN,Blocks_TMTA.thisTrialN,Blocks_TMTA.thisN,Blocks_TMTA.thisIndex,trials_TMTA.thisRepN,trials_TMTA.thisTrialN,trials_TMTA.thisN,trials_TMTA.thisIndex,key_resp_7.keys,key_resp_7.rt,key_resp_7.started,key_resp_7.stopped,polygon_2.started,polygon_2.stopped,Attempts,First_attempt,Stim.started,Stim.stopped,key_resp_2.keys,key_resp_2.corr,key_resp_2.rt,key_resp_2.started,key_resp_2.stopped,participant,session,date,expName,psychopyVersion,frameRate,
,,,,,,,,,,,,,,,,,,,,,,,,,,,s,1.3490989999845624,13.154594099993119,None,,,,,,,,,,,,,001,2022_Apr_29_1051,TMT_fmri,2021.2.3,140.0330758361401,
TMTstop-Control_1_1.xlsx,0:26,1,['2'],2,TMTstop-control_1_1.png,TMTstop-control_1_1.png,TMTstop-control_1_1.png,TMT_Control,1,1,0,0,0,0,0,0,0,0,,,,,,,,,,,,,13.154594099993119,None,1,1,14.619598399993265,None,['2'],1,[0.6429196000099182],14.619598399993265,None,,001,2022_Apr_29_1051,TMT_fmri,2021.2.3,140.0330758361401,
TMTstop-Control_1_1.xlsx,0:26,2,['1'],1,TMTstop-control_1_1.png,TMTstop-control_1_1firstgreen.png,TMTstop-control_1_1firstred.png,TMT_Control,1,2,0,0,0,0,0,1,1,1,,,,,,,,,,,,,,,2,0,15.365207599999849,None,"['3', '1']",1,"[0.2542056000092998, 0.40500140000949614]",15.365207599999849,None,,001,2022_Apr_29_1051,TMT_fmri,2021.2.3,140.0330758361401,
TMTstop-Control_1_1.xlsx,0:26,3,['3'],3,TMTstop-control_1_1linestimulus0.png,TMTstop-control_1_1greenlinestimulus0.png,TMTstop-control_1_1redlinestimulus0.png,TMT_Control,1,3,0,0,0,0,0,2,2,2,,,,,,,,,,,,,,,2,0,15.855691000004299,None,"['2', '3']",1,"[-0.010119799990206957, 0.09782930000801571]",15.855691000004299,None,,001,2022_Apr_29_1051,TMT_fmri,2021.2.3,140.0330758361401,
TMTstop-Control_1_1.xlsx,0:26,4,['1'],1,TMTstop-control_1_1linestimulus1.png,TMTstop-control_1_1greenlinestimulus1.png,TMTstop-control_1_1redlinestimulus1.png,TMT_Control,1,4,0,0,0,0,0,3,3,3,,,,,,,,,,,,,,,1,1,16.045697499997914,None,['1'],1,[0.07621610001660883],16.045697499997914,None,,001,2022_Apr_29_1051,TMT_fmri,2021.2.3,140.0330758361401,
TMTstop-Control_1_1.xlsx,0:26,5,['3'],3,TMTstop-control_1_1linestimulus2.png,TMTstop-control_1_1greenlinestimulus2.png,TMTstop-control_1_1redlinestimulus2.png,TMT_Control,1,5,0,0,0,0,0,4,4,4,,,,,,,,,,,,,,,2,0,16.23924649998662,None,"['2', '3']",1,"[-0.088969200005522, 0.03935459998319857]",16.23924649998662,None,,001,2022_Apr_29_1051,TMT_fmri,2021.2.3,140.0330758361401,
TMTstop-Control_1_1.xlsx,0:26,6,['1'],1,TMTstop-control_1_1linestimulus3.png,TMTstop-control_1_1greenlinestimulus3.png,TMTstop-control_1_1redlinestimulus3.png,TMT_Control,1,6,0,0,0,0,0,5,5,5,,,,,,,,,,,,,,,7,0,16.523631199990632,None,"['1', '2', '3', '1', '2', '3', '1']",1,"[-0.07345520000671968, -0.058135900006163865, 0.07874579998315312, 0.2248198999732267, 0.25819849999970756, 0.3908763999934308, 0.5242797999817412]",16.523631199990632,None,,001,2022_Apr_29_1051,TMT_fmri,2021.2.3,140.0330758361401,
TMTstop-Control_1_1.xlsx,0:26,7,['2'],2,TMTstop-control_1_1linestimulus4.png,TMTstop-control_1_1greenlinestimulus4.png,TMTstop-control_1_1redlinestimulus4.png,TMT_Control,1,7,0,0,0,0,0,6,6,6,,,,,,,,,,,,,,,1,1,17.136140099988552,None,['2'],1,[-0.060939099988900125],17.136140099988552,None,,001,2022_Apr_29_1051,TMT_fmri,2021.2.3,140.0330758361401,
TMTstop-Control_1_1.xlsx,0:26,8,['1'],1,TMTstop-control_1_1linestimulus4.png,TMTstop-control_1_1greenlinestimulus5.png,TMTstop-control_1_1redlinestimulus5.png,TMT_Control,1,8,0,0,0,0,0,7,7,7,,,,,,,,,,,,,,,2,0,17.26768479999737,None,"['3', '1']",1,"[-0.06639259998337366, 0.100037100026384]",17.26768479999737,None,,001,2022_Apr_29_1051,TMT_fmri,2021.2.3,140.0330758361401,
TMTstop-Control_1_1.xlsx,0:26,9,['3'],3,TMTstop-control_1_1linestimulus6.png,TMTstop-control_1_1greenlinestimulus6.png,TMTstop-control_1_1redlinestimulus6.png,TMT_Control,1,9,0,0,0,0,0,8,8,8,,,,,,,,,,,,,,,2,0,17.460104700003285,None,"['2', '3']",1,"[-0.07473269998445176, 0.07758320000721142]",17.460104700003285,None,,001,2022_Apr_29_1051,TMT_fmri,2021.2.3,140.0330758361401,
TMTstop-Control_1_1.xlsx,0:26,10,['2'],2,TMTstop-control_1_1linestimulus7.png,TMTstop-control_1_1greenlinestimulus7.png,TMTstop-control_1_1redlinestimulus7.png,TMT_Control,1,10,0,0,0,0,0,9,9,9,,,,,,,,,,,,,,,2,0,17.66215530000045,None,"['1', '2']",1,"[0.03459429999929853, 0.06185510000796057]",17.66215530000045,None,,001,2022_Apr_29_1051,TMT_fmri,2021.2.3,140.0330758361401,
TMTstop-Control_1_1.xlsx,0:26,11,['1'],1,TMTstop-control_1_1linestimulus8.png,TMTstop-control_1_1greenlinestimulus8.png,TMTstop-control_1_1redlinestimulus8.png,TMT_Control,1,11,0,0,0,0,0,10,10,10,,,,,,,,,,,,,,,2,0,17.86767599999439,None,"['3', '1']",1,"[-0.0032410999992862344, 0.14453769999090582]",17.86767599999439,None,,001,2022_Apr_29_1051,TMT_fmri,2021.2.3,140.0330758361401,
TMTstop-Control_1_1.xlsx,0:26,12,['2'],2,TMTstop-control_1_1linestimulus9.png,TMTstop-control_1_1greenlinestimulus9.png,TMTstop-control_1_1redlinestimulus9.png,TMT_Control,1,12,0,0,0,0,0,11,11,11,,,,,,,,,,,,,,,1,1,18.119402599986643,None,['2'],1,[-0.06427060000714846],18.119402599986643,None,,001,2022_Apr_29_1051,TMT_fmri,2021.2.3,140.0330758361401,
TMTstop-Control_1_1.xlsx,0:26,13,['3'],3,TMTstop-control_1_1linestimulus10.png,TMTstop-control_1_1greenlinestimulus10.png,TMTstop-control_1_1redlinestimulus10.png,TMT_Control,1,13,0,0,0,0,0,12,12,12,,,,,,,,,,,,,,,1,1,18.20291600000928,None,['3'],1,[-0.014064599992707372],18.20291600000928,None,,001,2022_Apr_29_1051,TMT_fmri,2021.2.3,140.0330758361401,
TMTstop-Control_1_1.xlsx,0:26,14,['2'],2,TMTstop-control_1_1linestimulus11.png,TMTstop-control_1_1greenlinestimulus11.png,TMTstop-control_1_1redlinestimulus11.png,TMT_Control,1,14,0,0,0,0,0,13,13,13,,,,,,,,,,,,,,,2,0,18.28639240001212,None,"['1', '2']",1,"[0.0474359999934677, 0.08420310000656173]",18.28639240001212,None,,001,2022_Apr_29_1051,TMT_fmri,2021.2.3,140.0330758361401,
TMTstop-Control_1_1.xlsx,0:26,15,['3'],3,TMTstop-control_1_1linestimulus12.png,TMTstop-control_1_1greenlinestimulus12.png,TMTstop-control_1_1redlinestimulus12.png,TMT_Control,1,15,0,0,0,0,0,14,14,14,,,,,,,,,,,,,,,1,1,18.473899100004928,None,['3'],1,[0.02428490002057515],18.473899100004928,None,,001,2022_Apr_29_1051,TMT_fmri,2021.2.3,140.0330758361401,
TMTstop-Control_1_1.xlsx,0:26,16,['2'],2,TMTstop-control_1_1linestimulus13.png,TMTstop-control_1_1greenlinestimulus13.png,TMTstop-control_1_1redlinestimulus13.png,TMT_Control,1,16,0,0,0,0,0,15,15,15,,,,,,,,,,,,,,,2,0,18.592323099990608,None,"['1', '2']",1,"[0.04881009997916408, 0.0804673999955412]",18.592323099990608,None,,001,2022_Apr_29_1051,TMT_fmri,2021.2.3,140.0330758361401,
TMTstop-Control_1_1.xlsx,0:26,17,['3'],3,TMTstop-control_1_1linestimulus14.png,TMTstop-control_1_1greenlinestimulus14.png,TMTstop-control_1_1redlinestimulus14.png,TMT_Control,1,17,0,0,0,0,0,16,16,16,,,,,,,,,,,,,,,1,1,18.779218599986052,None,['3'],1,[0.0116320000088308],18.779218599986052,None,,001,2022_Apr_29_1051,TMT_fmri,2021.2.3,140.0330758361401,
TMTstop-Control_1_1.xlsx,0:26,18,['2'],2,TMTstop-control_1_1linestimulus15.png,TMTstop-control_1_1greenlinestimulus15.png,TMTstop-control_1_1redlinestimulus15.png,TMT_Control,1,18,0,0,0,0,0,17,17,17,,,,,,,,,,,,,,,2,0,18.876416799990693,None,"['1', '2']",1,"[0.05877230002079159, 0.09337580000283197]",18.876416799990693,None,,001,2022_Apr_29_1051,TMT_fmri,2021.2.3,140.0330758361401,
TMTstop-Control_1_1.xlsx,0:26,19,['1'],1,TMTstop-control_1_1linestimulus16.png,TMTstop-control_1_1greenlinestimulus16.png,TMTstop-control_1_1redlinestimulus16.png,TMT_Control,1,19,0,0,0,0,0,18,18,18,,,,,,,,,,,,,,,2,0,19.13343509999686,None,"['3', '1']",1,"[-0.0406137999962084, 0.09693169998354279]",19.13343509999686,None,,001,2022_Apr_29_1051,TMT_fmri,2021.2.3,140.0330758361401,
TMTstop-Control_1_1.xlsx,0:26,20,['3'],3,TMTstop-control_1_1linestimulus17.png,TMTstop-control_1_1greenlinestimulus17.png,TMTstop-control_1_1redlinestimulus17.png,TMT_Control,1,20,0,0,0,0,0,19,19,19,,,,,,,,,,,,,,,2,0,19.32103890000144,None,"['2', '3']",1,"[-0.047003199986647815, 0.07391890001599677]",19.32103890000144,None,,001,2022_Apr_29_1051,TMT_fmri,2021.2.3,140.0330758361401,
TMTstop-Control_1_1.xlsx,0:26,21,['1'],1,TMTstop-control_1_1linestimulus18.png,TMTstop-control_1_1greenlinestimulus18.png,TMTstop-control_1_1redlinestimulus18.png,TMT_Control,1,21,0,0,0,0,0,20,20,20,,,,,,,,,,,,,,,1,1,19.50161790000857,None,['1'],1,[0.032370800006901845],19.50161790000857,None,,001,2022_Apr_29_1051,TMT_fmri,2021.2.3,140.0330758361401,
TMTstop-Control_1_1.xlsx,0:26,22,['2'],2,TMTstop-control_1_1linestimulus19.png,TMTstop-control_1_1greenlinestimulus19.png,TMTstop-control_1_1redlinestimulus19.png,TMT_Control,1,22,0,0,0,0,0,21,21,21,,,,,,,,,,,,,,,1,1,19.62721259999671,None,['2'],1,[-0.05329619999974966],19.62721259999671,None,,001,2022_Apr_29_1051,TMT_fmri,2021.2.3,140.0330758361401,
TMTstop-Control_1_1.xlsx,0:26,23,['3'],3,TMTstop-control_1_1linestimulus20.png,TMTstop-control_1_1greenlinestimulus20.png,TMTstop-control_1_1redlinestimulus20.png,TMT_Control,1,23,0,0,0,0,0,22,22,22,,,,,,,,,,,,,,,1,1,19.72523799998453,None,['3'],1,[-0.03307420000783168],19.72523799998453,None,,001,2022_Apr_29_1051,TMT_fmri,2021.2.3,140.0330758361401,
TMTstop-Control_1_1.xlsx,0:26,24,['2'],2,TMTstop-control_1_1linestimulus21.png,TMTstop-control_1_1greenlinestimulus21.png,TMTstop-control_1_1redlinestimulus21.png,TMT_Control,1,24,0,0,0,0,0,23,23,23,,,,,,,,,,,,,,,2,0,19.8140446000034,None,"['1', '2']",1,"[0.017632200004300103, 0.05774230000679381]",19.8140446000034,None,,001,2022_Apr_29_1051,TMT_fmri,2021.2.3,140.0330758361401,
TMTstop-Control_1_1.xlsx,0:26,25,['1'],1,TMTstop-control_1_1linestimulus22.png,TMTstop-control_1_1greenlinestimulus22.png,TMTstop-control_1_1redlinestimulus22.png,TMT_Control,1,25,0,0,0,0,0,24,24,24,,,,,,,,,,,,,,,2,0,19.973718299996108,None,"['3', '1']",1,"[0.01673490001121536, 0.15507109998725355]",19.973718299996108,None,,001,2022_Apr_29_1051,TMT_fmri,2021.2.3,140.0330758361401,
TMTstop-Control_1_1.xlsx,0:26,None,None,None,TMTstop-control_1_1linestimulus23.png,TMTstop-control_1_1greenlinestimulus23.png,TMTstop-control_1_1redlinestimulus23.png,TMT_Control,1,Feedback_last,0,0,0,0,0,25,25,25,,,,,,,,,,,,,,,2,0,20.223560499987798,None,"['2', '3']",0,"[-0.053234799997881055, 0.07343180000316352]",20.223560499987798,None,,001,2022_Apr_29_1051,TMT_fmri,2021.2.3,140.0330758361401,
TMTstop-Control_1_2.xlsx,26:52,1,['2'],2,TMTstop-control_1_2.png,TMTstop-control_1_2.png,TMTstop-control_1_2.png,TMT_Control,2,26,0,1,1,1,0,0,0,0,,,,,,,,,,,,,,,2,0,24.371971099986695,None,"['1', '2']",1,"[0.47378309999476187, 0.5202335999929346]",24.371971099986695,None,,001,2022_Apr_29_1051,TMT_fmri,2021.2.3,140.0330758361401,
TMTstop-Control_1_2.xlsx,26:52,2,['3'],3,TMTstop-control_1_2.png,TMTstop-control_1_2firstgreen.png,TMTstop-control_1_2firstred.png,TMT_Control,2,27,0,1,1,1,0,1,1,1,,,,,,,,,,,,,,,1,1,25.032084200007375,None,['3'],1,[-0.02573080000001937],25.032084200007375,None,,001,2022_Apr_29_1051,TMT_fmri,2021.2.3,140.0330758361401,
TMTstop-Control_1_2.xlsx,26:52,3,['2'],2,TMTstop-control_1_2linestimulus0.png,TMTstop-control_1_2greenlinestimulus0.png,TMTstop-control_1_2redlinestimulus0.png,TMT_Control,2,28,0,1,1,1,0,2,2,2,,,,,,,,,,,,,,,2,0,25.14047230000142,None,"['1', '2']",1,"[0.021258600027067587, 0.06377700000302866]",25.14047230000142,None,,001,2022_Apr_29_1051,TMT_fmri,2021.2.3,140.0330758361401,
TMTstop-Control_1_2.xlsx,26:52,4,['3'],3,TMTstop-control_1_2linestimulus1.png,TMTstop-control_1_2greenlinestimulus1.png,TMTstop-control_1_2redlinestimulus1.png,TMT_Control,2,29,0,1,1,1,0,3,3,3,,,,,,,,,,,,,,,1,1,25.299760399997467,None,['3'],1,[0.003642800002126023],25.299760399997467,None,,001,2022_Apr_29_1051,TMT_fmri,2021.2.3,140.0330758361401,
TMTstop-Control_1_2.xlsx,26:52,5,['2'],2,TMTstop-control_1_2linestimulus2.png,TMTstop-control_1_2greenlinestimulus2.png,TMTstop-control_1_2redlinestimulus2.png,TMT_Control,2,30,0,1,1,1,0,4,4,4,,,,,,,,,,,,,,,2,0,25.39738869998837,None,"['1', '2']",1,"[0.0540356999845244, 0.09759540000231937]",25.39738869998837,None,,001,2022_Apr_29_1051,TMT_fmri,2021.2.3,140.0330758361401,
TMTstop-Control_1_2.xlsx,26:52,6,['3'],3,TMTstop-control_1_2linestimulus3.png,TMTstop-control_1_2greenlinestimulus3.png,TMTstop-control_1_2redlinestimulus3.png,TMT_Control,2,31,0,1,1,1,0,5,5,5,,,,,,,,,,,,,,,1,1,25.578082899999572,None,['3'],1,[0.015191599988611415],25.578082899999572,None,,001,2022_Apr_29_1051,TMT_fmri,2021.2.3,140.0330758361401,
TMTstop-Control_1_2.xlsx,26:52,7,['2'],2,TMTstop-control_1_2linestimulus4.png,TMTstop-control_1_2greenlinestimulus4.png,TMTstop-control_1_2redlinestimulus4.png,TMT_Control,2,32,0,1,1,1,0,6,6,6,,,,,,,,,,,,,,,2,0,25.688885799987474,None,"['1', '2']",1,"[0.034481899987440556, 0.08968360000289977]",25.688885799987474,None,,001,2022_Apr_29_1051,TMT_fmri,2021.2.3,140.0330758361401,
TMTstop-Control_1_2.xlsx,26:52,8,['1'],1,TMTstop-control_1_2linestimulus4.png,TMTstop-control_1_2greenlinestimulus5.png,TMTstop-control_1_2redlinestimulus5.png,TMT_Control,2,33,0,1,1,1,0,7,7,7,,,,,,,,,,,,,,,2,0,25.863171900011366,None,"['3', '1']",1,"[0.01731700001982972, 0.1542782000033185]",25.863171900011366,None,,001,2022_Apr_29_1051,TMT_fmri,2021.2.3,140.0330758361401,
TMTstop-Control_1_2.xlsx,26:52,9,['3'],3,TMTstop-control_1_2linestimulus6.png,TMTstop-control_1_2greenlinestimulus6.png,TMTstop-control_1_2redlinestimulus6.png,TMT_Control,2,34,0,1,1,1,0,8,8,8,,,,,,,,,,,,,,,2,0,26.133134600007907,None,"['2', '3']",1,"[-0.06705620000138879, 0.04509550001239404]",26.133134600007907,None,,001,2022_Apr_29_1051,TMT_fmri,2021.2.3,140.0330758361401,
TMTstop-Control_1_2.xlsx,26:52,10,['2'],2,TMTstop-control_1_2linestimulus7.png,TMTstop-control_1_2greenlinestimulus7.png,TMTstop-control_1_2redlinestimulus7.png,TMT_Control,2,35,0,1,1,1,0,9,9,9,,,,,,,,,,,,,,,2,0,26.272128799988423,None,"['1', '2']",1,"[0.048081799992360175, 0.08308329997817054]",26.272128799988423,None,,001,2022_Apr_29_1051,TMT_fmri,2021.2.3,140.0330758361401,
TMTstop-Control_1_2.xlsx,26:52,11,['3'],3,TMTstop-control_1_2linestimulus8.png,TMTstop-control_1_2greenlinestimulus8.png,TMTstop-control_1_2redlinestimulus8.png,TMT_Control,2,36,0,1,1,1,0,10,10,10,,,,,,,,,,,,,,,1,1,26.494858699996257,None,['3'],1,[-0.018706000002566725],26.494858699996257,None,,001,2022_Apr_29_1051,TMT_fmri,2021.2.3,140.0330758361401,
TMTstop-Control_1_2.xlsx,26:52,12,['2'],2,TMTstop-control_1_2linestimulus9.png,TMTstop-control_1_2greenlinestimulus9.png,TMTstop-control_1_2redlinestimulus9.png,TMT_Control,2,37,0,1,1,1,0,11,11,11,,,,,,,,,,,,,,,2,0,26.584602999995695,None,"['1', '2']",1,"[0.041672399995150045, 0.07329780000145547]",26.584602999995695,None,,001,2022_Apr_29_1051,TMT_fmri,2021.2.3,140.0330758361401,
TMTstop-Control_1_2.xlsx,26:52,13,['3'],3,TMTstop-control_1_2linestimulus10.png,TMTstop-control_1_2greenlinestimulus10.png,TMTstop-control_1_2redlinestimulus10.png,TMT_Control,2,38,0,1,1,1,0,12,12,12,,,,,,,,,,,,,,,1,1,26.87925470000482,None,['3'],1,[-0.08868909999728203],26.87925470000482,None,,001,2022_Apr_29_1051,TMT_fmri,2021.2.3,140.0330758361401,
TMTstop-Control_1_2.xlsx,26:52,14,['2'],2,TMTstop-control_1_2linestimulus11.png,TMTstop-control_1_2greenlinestimulus11.png,TMTstop-control_1_2redlinestimulus11.png,TMT_Control,2,39,0,1,1,1,0,13,13,13,,,,,,,,,,,,,,,2,0,26.990172499994515,None,"['1', '2']",1,"[-0.05743399998755194, -0.024740599998040125]",26.990172499994515,None,,001,2022_Apr_29_1051,TMT_fmri,2021.2.3,140.0330758361401,
TMTstop-Control_1_2.xlsx,26:52,15,['3'],3,TMTstop-control_1_2linestimulus12.png,TMTstop-control_1_2greenlinestimulus12.png,TMTstop-control_1_2redlinestimulus12.png,TMT_Control,2,40,0,1,1,1,0,14,14,14,,,,,,,,,,,,,,,1,1,27.094646599987755,None,['3'],1,[0.009016700001666322],27.094646599987755,None,,001,2022_Apr_29_1051,TMT_fmri,2021.2.3,140.0330758361401,
TMTstop-Control_1_2.xlsx,26:52,16,['1'],1,TMTstop-control_1_2linestimulus13.png,TMTstop-control_1_2greenlinestimulus13.png,TMTstop-control_1_2redlinestimulus13.png,TMT_Control,2,41,0,1,1,1,0,15,15,15,,,,,,,,,,,,,,,1,1,27.209842000011122,None,['1'],1,[0.03913630000897683],27.209842000011122,None,,001,2022_Apr_29_1051,TMT_fmri,2021.2.3,140.0330758361401,
TMTstop-Control_1_2.xlsx,26:52,17,['2'],2,TMTstop-control_1_2linestimulus14.png,TMTstop-control_1_2greenlinestimulus14.png,TMTstop-control_1_2redlinestimulus14.png,TMT_Control,2,42,0,1,1,1,0,16,16,16,,,,,,,,,,,,,,,1,1,27.334710600000108,None,['2'],1,[-0.05359669998870231],27.334710600000108,None,,001,2022_Apr_29_1051,TMT_fmri,2021.2.3,140.0330758361401,
TMTstop-Control_1_2.xlsx,26:52,18,['1'],1,TMTstop-control_1_2linestimulus15.png,TMTstop-control_1_2greenlinestimulus15.png,TMTstop-control_1_2redlinestimulus15.png,TMT_Control,2,43,0,1,1,1,0,17,17,17,,,,,,,,,,,,,,,2,0,27.41769239999121,None,"['3', '1']",1,"[0.00992370001040399, 0.1558247999928426]",27.41769239999121,None,,001,2022_Apr_29_1051,TMT_fmri,2021.2.3,140.0330758361401,
TMTstop-Control_1_2.xlsx,26:52,19,['2'],2,TMTstop-control_1_2linestimulus16.png,TMTstop-control_1_2greenlinestimulus16.png,TMTstop-control_1_2redlinestimulus16.png,TMT_Control,2,44,0,1,1,1,0,18,18,18,,,,,,,,,,,,,,,1,1,27.667803099990124,None,['2'],1,[-0.04283880000002682],27.667803099990124,None,,001,2022_Apr_29_1051,TMT_fmri,2021.2.3,140.0330758361401,
TMTstop-Control_1_2.xlsx,26:52,20,['3'],3,TMTstop-control_1_2linestimulus17.png,TMTstop-control_1_2greenlinestimulus17.png,TMTstop-control_1_2redlinestimulus17.png,TMT_Control,2,45,0,1,1,1,0,19,19,19,,,,,,,,,,,,,,,1,1,27.750856500002556,None,['3'],1,[0.00749540000106208],27.750856500002556,None,,001,2022_Apr_29_1051,TMT_fmri,2021.2.3,140.0330758361401,
TMTstop-Control_1_2.xlsx,26:52,21,['1'],1,TMTstop-control_1_2linestimulus18.png,TMTstop-control_1_2greenlinestimulus18.png,TMTstop-control_1_2redlinestimulus18.png,TMT_Control,2,46,0,1,1,1,0,20,20,20,,,,,,,,,,,,,,,1,1,27.841442200005986,None,['1'],1,[0.06352399999741465],27.841442200005986,None,,001,2022_Apr_29_1051,TMT_fmri,2021.2.3,140.0330758361401,
TMTstop-Control_1_2.xlsx,26:52,22,['3'],3,TMTstop-control_1_2linestimulus19.png,TMTstop-control_1_2greenlinestimulus19.png,TMTstop-control_1_2redlinestimulus19.png,TMT_Control,2,47,0,1,1,1,0,21,21,21,,,,,,,,,,,,,,,2,0,28.002040099992882,None,"['2', '3']",1,"[-0.0574923999956809, 0.07188329999917187]",28.002040099992882,None,,001,2022_Apr_29_1051,TMT_fmri,2021.2.3,140.0330758361401,
TMTstop-Control_1_2.xlsx,26:52,23,['2'],2,TMTstop-control_1_2linestimulus20.png,TMTstop-control_1_2greenlinestimulus20.png,TMTstop-control_1_2redlinestimulus20.png,TMT_Control,2,48,0,1,1,1,0,22,22,22,,,,,,,,,,,,,,,2,0,28.19595369999297,None,"['1', '2']",1,"[0.023919799976283684, 0.06566239998210222]",28.19595369999297,None,,001,2022_Apr_29_1051,TMT_fmri,2021.2.3,140.0330758361401,
TMTstop-Control_1_2.xlsx,26:52,24,['3'],3,TMTstop-control_1_2linestimulus21.png,TMTstop-control_1_2greenlinestimulus21.png,TMTstop-control_1_2redlinestimulus21.png,TMT_Control,2,49,0,1,1,1,0,23,23,23,,,,,,,,,,,,,,,1,1,28.34829590001027,None,['3'],1,[0.06766860000789165],28.34829590001027,None,,001,2022_Apr_29_1051,TMT_fmri,2021.2.3,140.0330758361401,
TMTstop-Control_1_2.xlsx,26:52,25,['1'],1,TMTstop-control_1_2linestimulus22.png,TMTstop-control_1_2greenlinestimulus22.png,TMTstop-control_1_2redlinestimulus22.png,TMT_Control,2,50,0,1,1,1,0,24,24,24,,,,,,,,,,,,,,,1,1,28.502052099996945,None,['1'],1,[0.06893000000854954],28.502052099996945,None,,001,2022_Apr_29_1051,TMT_fmri,2021.2.3,140.0330758361401,
TMTstop-Control_1_2.xlsx,26:52,None,None,None,TMTstop-control_1_2linestimulus23.png,TMTstop-control_1_2greenlinestimulus23.png,TMTstop-control_1_2redlinestimulus23.png,TMT_Control,2,Feedback_last,0,1,1,1,0,25,25,25,,,,,,,,,,,,,,,2,0,28.65441839999403,None,"['2', '3']",0,"[-0.04666029999498278, 0.11547650001011789]",28.65441839999403,None,,001,2022_Apr_29_1051,TMT_fmri,2021.2.3,140.0330758361401,
TMTstop-Control_1_3.xlsx,52:78,1,['2'],2,TMTstop-control_1_3.png,TMTstop-control_1_3.png,TMTstop-control_1_3.png,TMT_Control,3,51,0,2,2,2,0,0,0,0,,,,,,,,,,,,,,,2,0,32.82329390000086,None,"['1', '2']",1,"[1.4833592000068165, 1.4877840999979526]",32.82329390000086,None,,001,2022_Apr_29_1051,TMT_fmri,2021.2.3,140.0330758361401,
TMTstop-Control_1_3.xlsx,52:78,2,['1'],1,TMTstop-control_1_3.png,TMTstop-control_1_3firstgreen.png,TMTstop-control_1_3firstred.png,TMT_Control,3,52,0,2,2,2,0,1,1,1,,,,,,,,,,,,,,,2,0,34.41949299999396,None,"['3', '1']",1,"[0.04249940000590868, 0.19119100001989864]",34.41949299999396,None,,001,2022_Apr_29_1051,TMT_fmri,2021.2.3,140.0330758361401,
TMTstop-Control_1_3.xlsx,52:78,3,['2'],2,TMTstop-control_1_3linestimulus0.png,TMTstop-control_1_3greenlinestimulus0.png,TMTstop-control_1_3redlinestimulus0.png,TMT_Control,3,53,0,2,2,2,0,2,2,2,,,,,,,,,,,,,,,1,1,34.703263100003824,None,['2'],1,[-0.04850439997971989],34.703263100003824,None,,001,2022_Apr_29_1051,TMT_fmri,2021.2.3,140.0330758361401,
TMTstop-Control_1_3.xlsx,52:78,4,['1'],1,TMTstop-control_1_3linestimulus1.png,TMTstop-control_1_3greenlinestimulus1.png,TMTstop-control_1_3redlinestimulus1.png,TMT_Control,3,54,0,2,2,2,0,3,3,3,,,,,,,,,,,,,,,2,0,34.786001500004204,None,"['3', '1']",1,"[-0.026331700006267056, 0.11164869999629445]",34.786001500004204,None,,001,2022_Apr_29_1051,TMT_fmri,2021.2.3,140.0330758361401,
TMTstop-Control_1_3.xlsx,52:78,5,['3'],3,TMTstop-control_1_3linestimulus2.png,TMTstop-control_1_3greenlinestimulus2.png,TMTstop-control_1_3redlinestimulus2.png,TMT_Control,3,55,0,2,2,2,0,4,4,4,,,,,,,,,,,,,,,2,0,35.007956099987496,None,"['2', '3']",1,"[-0.059861799993086606, 0.03254489999380894]",35.007956099987496,None,,001,2022_Apr_29_1051,TMT_fmri,2021.2.3,140.0330758361401,
TMTstop-Control_1_3.xlsx,52:78,6,['1'],1,TMTstop-control_1_3linestimulus3.png,TMTstop-control_1_3greenlinestimulus3.png,TMTstop-control_1_3redlinestimulus3.png,TMT_Control,3,56,0,2,2,2,0,5,5,5,,,,,,,,,,,,,,,1,1,35.13535289998981,None,['1'],1,[0.04219609999563545],35.13535289998981,None,,001,2022_Apr_29_1051,TMT_fmri,2021.2.3,140.0330758361401,
TMTstop-Control_1_3.xlsx,52:78,7,['2'],2,TMTstop-control_1_3linestimulus4.png,TMTstop-control_1_3greenlinestimulus4.png,TMTstop-control_1_3redlinestimulus4.png,TMT_Control,3,57,0,2,2,2,0,6,6,6,,,,,,,,,,,,,,,1,1,35.27206719998503,None,['2'],1,[-0.05995409999741241],35.27206719998503,None,,001,2022_Apr_29_1051,TMT_fmri,2021.2.3,140.0330758361401,
TMTstop-Control_1_3.xlsx,52:78,8,['3'],3,TMTstop-control_1_3linestimulus4.png,TMTstop-control_1_3greenlinestimulus5.png,TMTstop-control_1_3redlinestimulus5.png,TMT_Control,3,58,0,2,2,2,0,7,7,7,,,,,,,,,,,,,,,1,1,35.36368079998647,None,['3'],1,[-0.0320040000078734],35.36368079998647,None,,001,2022_Apr_29_1051,TMT_fmri,2021.2.3,140.0330758361401,
TMTstop-Control_1_3.xlsx,52:78,9,['1'],1,TMTstop-control_1_3linestimulus6.png,TMTstop-control_1_3greenlinestimulus6.png,TMTstop-control_1_3redlinestimulus6.png,TMT_Control,3,59,0,2,2,2,0,8,8,8,,,,,,,,,,,,,,,1,1,35.45331869999063,None,['1'],1,[0.006848999997600913],35.45331869999063,None,,001,2022_Apr_29_1051,TMT_fmri,2021.2.3,140.0330758361401,
TMTstop-Control_1_3.xlsx,52:78,10,['2'],2,TMTstop-control_1_3linestimulus7.png,TMTstop-control_1_3greenlinestimulus7.png,TMTstop-control_1_3redlinestimulus7.png,TMT_Control,3,60,0,2,2,2,0,9,9,9,,,,,,,,,,,,,,,1,1,35.54978890001075,None,['2'],1,[-0.03414329999941401],35.54978890001075,None,,001,2022_Apr_29_1051,TMT_fmri,2021.2.3,140.0330758361401,
TMTstop-Control_1_3.xlsx,52:78,11,['1'],1,TMTstop-control_1_3linestimulus8.png,TMTstop-control_1_3greenlinestimulus8.png,TMTstop-control_1_3redlinestimulus8.png,TMT_Control,3,61,0,2,2,2,0,10,10,10,,,,,,,,,,,,,,,2,0,35.632683200004976,None,"['3', '1']",1,"[-0.015988300001481548, 0.10807029998977669]",35.632683200004976,None,,001,2022_Apr_29_1051,TMT_fmri,2021.2.3,140.0330758361401,
TMTstop-Control_1_3.xlsx,52:78,12,['2'],2,TMTstop-control_1_3linestimulus9.png,TMTstop-control_1_3greenlinestimulus9.png,TMTstop-control_1_3redlinestimulus9.png,TMT_Control,3,62,0,2,2,2,0,11,11,11,,,,,,,,,,,,,,,1,1,35.87776770000346,None,['2'],1,[-0.08314699999755248],35.87776770000346,None,,001,2022_Apr_29_1051,TMT_fmri,2021.2.3,140.0330758361401,
TMTstop-Control_1_3.xlsx,52:78,13,['3'],3,TMTstop-control_1_3linestimulus10.png,TMTstop-control_1_3greenlinestimulus10.png,TMTstop-control_1_3redlinestimulus10.png,TMT_Control,3,63,0,2,2,2,0,12,12,12,,,,,,,,,,,,,,,1,1,35.96616290000384,None,['3'],1,[-0.06568860000697896],35.96616290000384,None,,001,2022_Apr_29_1051,TMT_fmri,2021.2.3,140.0330758361401,
TMTstop-Control_1_3.xlsx,52:78,14,['2'],2,TMTstop-control_1_3linestimulus11.png,TMTstop-control_1_3greenlinestimulus11.png,TMTstop-control_1_3redlinestimulus11.png,TMT_Control,3,64,0,2,2,2,0,13,13,13,,,,,,,,,,,,,,,2,0,36.057074699987425,None,"['1', '2']",1,"[-0.019052399991778657, 0.024349500017706305]",36.057074699987425,None,,001,2022_Apr_29_1051,TMT_fmri,2021.2.3,140.0330758361401,
TMTstop-Control_1_3.xlsx,52:78,15,['1'],1,TMTstop-control_1_3linestimulus12.png,TMTstop-control_1_3greenlinestimulus12.png,TMTstop-control_1_3redlinestimulus12.png,TMT_Control,3,65,0,2,2,2,0,14,14,14,,,,,,,,,,,,,,,2,0,36.19671869999729,None,"['3', '1']",1,"[-0.002453199995215982, 0.12838290000217967]",36.19671869999729,None,,001,2022_Apr_29_1051,TMT_fmri,2021.2.3,140.0330758361401,
TMTstop-Control_1_3.xlsx,52:78,16,['3'],3,TMTstop-control_1_3linestimulus13.png,TMTstop-control_1_3greenlinestimulus13.png,TMTstop-control_1_3redlinestimulus13.png,TMT_Control,3,66,0,2,2,2,0,15,15,15,,,,,,,,,,,,,,,2,0,36.441772799997125,None,"['2', '3']",1,"[-0.07544230000348762, 0.05756770001607947]",36.441772799997125,None,,001,2022_Apr_29_1051,TMT_fmri,2021.2.3,140.0330758361401,
TMTstop-Control_1_3.xlsx,52:78,17,['1'],1,TMTstop-control_1_3linestimulus14.png,TMTstop-control_1_3greenlinestimulus14.png,TMTstop-control_1_3redlinestimulus14.png,TMT_Control,3,67,0,2,2,2,0,16,16,16,,,,,,,,,,,,,,,1,1,36.63308299999335,None,['1'],1,[0.004213099979097024],36.63308299999335,None,,001,2022_Apr_29_1051,TMT_fmri,2021.2.3,140.0330758361401,
TMTstop-Control_1_3.xlsx,52:78,18,['3'],3,TMTstop-control_1_3linestimulus15.png,TMTstop-control_1_3greenlinestimulus15.png,TMTstop-control_1_3redlinestimulus15.png,TMT_Control,3,68,0,2,2,2,0,17,17,17,,,,,,,,,,,,,,,2,0,36.73013459998765,None,"['2', '3']",1,"[-0.04681269999127835, 0.07815069999196567]",36.73013459998765,None,,001,2022_Apr_29_1051,TMT_fmri,2021.2.3,140.0330758361401,
TMTstop-Control_1_3.xlsx,52:78,19,['2'],2,TMTstop-control_1_3linestimulus16.png,TMTstop-control_1_3greenlinestimulus16.png,TMTstop-control_1_3redlinestimulus16.png,TMT_Control,3,69,0,2,2,2,0,18,18,18,,,,,,,,,,,,,,,2,0,37.05002580001019,None,"['1', '2']",1,"[-0.10693780001020059, -0.06398220002301969]",37.05002580001019,None,,001,2022_Apr_29_1051,TMT_fmri,2021.2.3,140.0330758361401,
TMTstop-Control_1_3.xlsx,52:78,20,['1'],1,TMTstop-control_1_3linestimulus17.png,TMTstop-control_1_3greenlinestimulus17.png,TMTstop-control_1_3redlinestimulus17.png,TMT_Control,3,70,0,2,2,2,0,19,19,19,,,,,,,,,,,,,,,5,0,37.141983100009384,None,"['3', '1', '2', '3', '1']",1,"[-0.027578899986110628, 0.11873980000382289, 0.16126059999805875, 0.28305830000317656, 0.43011220000335015]",37.141983100009384,None,,001,2022_Apr_29_1051,TMT_fmri,2021.2.3,140.0330758361401,
TMTstop-Control_1_3.xlsx,52:78,21,['3'],3,TMTstop-control_1_3linestimulus18.png,TMTstop-control_1_3greenlinestimulus18.png,TMTstop-control_1_3redlinestimulus18.png,TMT_Control,3,71,0,2,2,2,0,20,20,20,,,,,,,,,,,,,,,2,0,37.712235799990594,None,"['2', '3']",1,"[-0.08594029999221675, 0.042149300017626956]",37.712235799990594,None,,001,2022_Apr_29_1051,TMT_fmri,2021.2.3,140.0330758361401,
TMTstop-Control_1_3.xlsx,52:78,22,['2'],2,TMTstop-control_1_3linestimulus19.png,TMTstop-control_1_3greenlinestimulus19.png,TMTstop-control_1_3redlinestimulus19.png,TMT_Control,3,72,0,2,2,2,0,21,21,21,,,,,,,,,,,,,,,2,0,37.8575603000063,None,"['1', '2']",1,"[0.04909430001862347, 0.08643490000395104]",37.8575603000063,None,,001,2022_Apr_29_1051,TMT_fmri,2021.2.3,140.0330758361401,
TMTstop-Control_1_3.xlsx,52:78,23,['3'],3,TMTstop-control_1_3linestimulus20.png,TMTstop-control_1_3greenlinestimulus20.png,TMTstop-control_1_3redlinestimulus20.png,TMT_Control,3,73,0,2,2,2,0,22,22,22,,,,,,,,,,,,,,,1,1,38.04266489998554,None,['3'],1,[0.020228800014592707],38.04266489998554,None,,001,2022_Apr_29_1051,TMT_fmri,2021.2.3,140.0330758361401,
TMTstop-Control_1_3.xlsx,52:78,24,['1'],1,TMTstop-control_1_3linestimulus21.png,TMTstop-control_1_3greenlinestimulus21.png,TMTstop-control_1_3redlinestimulus21.png,TMT_Control,3,74,0,2,2,2,0,23,23,23,,,,,,,,,,,,,,,1,1,38.154452199989464,None,['1'],1,[0.04957909998483956],38.154452199989464,None,,001,2022_Apr_29_1051,TMT_fmri,2021.2.3,140.0330758361401,
TMTstop-Control_1_3.xlsx,52:78,25,['2'],2,TMTstop-control_1_3linestimulus22.png,TMTstop-control_1_3greenlinestimulus22.png,TMTstop-control_1_3redlinestimulus22.png,TMT_Control,3,75,0,2,2,2,0,24,24,24,,,,,,,,,,,,,,,1,1,38.285730100004,None,['2'],1,[-0.04883240000344813],38.285730100004,None,,001,2022_Apr_29_1051,TMT_fmri,2021.2.3,140.0330758361401,
TMTstop-Control_1_3.xlsx,52:78,None,None,None,TMTstop-control_1_3linestimulus23.png,TMTstop-control_1_3greenlinestimulus23.png,TMTstop-control_1_3redlinestimulus23.png,TMT_Control,3,Feedback_last,0,2,2,2,0,25,25,25,,,,,,,,,,,,,,,4,0,38.377226499986136,None,"['3', '1', '2', '3']",0,"[-0.031717400008346885, 0.10047489998396486, 0.1378882999997586, 0.26632100000279024]",38.377226499986136,None,,001,2022_Apr_29_1051,TMT_fmri,2021.2.3,140.0330758361401,
TMTstop-Control_1_4.xlsx,78:104,1,['2'],2,TMTstop-control_1_4.png,TMTstop-control_1_4.png,TMTstop-control_1_4.png,TMT_Control,4,76,0,3,3,3,0,0,0,0,,,,,,,,,,,,,,,2,0,42.55940389999887,None,"['1', '2']",1,"[0.40493180000339635, 0.5234594999928959]",42.55940389999887,None,,001,2022_Apr_29_1051,TMT_fmri,2021.2.3,140.0330758361401,
TMTstop-Control_1_4.xlsx,78:104,2,['1'],1,TMTstop-control_1_4.png,TMTstop-control_1_4firstgreen.png,TMTstop-control_1_4firstred.png,TMT_Control,4,77,0,3,3,3,0,1,1,1,,,,,,,,,,,,,,,2,0,43.211167600005865,None,"['3', '1']",1,"[-0.05748039999161847, 0.11470060001011007]",43.211167600005865,None,,001,2022_Apr_29_1051,TMT_fmri,2021.2.3,140.0330758361401,
TMTstop-Control_1_4.xlsx,78:104,3,['3'],3,TMTstop-control_1_4linestimulus0.png,TMTstop-control_1_4greenlinestimulus0.png,TMTstop-control_1_4redlinestimulus0.png,TMT_Control,4,78,0,3,3,3,0,2,2,2,,,,,,,,,,,,,,,2,0,43.410660699999426,None,"['2', '3']",1,"[-0.04745190002722666, 0.06674299997393973]",43.410660699999426,None,,001,2022_Apr_29_1051,TMT_fmri,2021.2.3,140.0330758361401,
TMTstop-Control_1_4.xlsx,78:104,4,['1'],1,TMTstop-control_1_4linestimulus1.png,TMTstop-control_1_4greenlinestimulus1.png,TMTstop-control_1_4redlinestimulus1.png,TMT_Control,4,79,0,3,3,3,0,3,3,3,,,,,,,,,,,,,,,1,1,43.59130540001206,None,['1'],1,[0.052280600008089095],43.59130540001206,None,,001,2022_Apr_29_1051,TMT_fmri,2021.2.3,140.0330758361401,
TMTstop-Control_1_4.xlsx,78:104,5,['3'],3,TMTstop-control_1_4linestimulus2.png,TMTstop-control_1_4greenlinestimulus2.png,TMTstop-control_1_4redlinestimulus2.png,TMT_Control,4,80,0,3,3,3,0,4,4,4,,,,,,,,,,,,,,,2,0,43.73094310000306,None,"['2', '3']",1,"[-0.07022140000481158, 0.08637480001198128]",43.73094310000306,None,,001,2022_Apr_29_1051,TMT_fmri,2021.2.3,140.0330758361401,
TMTstop-Control_1_4.xlsx,78:104,6,['1'],1,TMTstop-control_1_4linestimulus3.png,TMTstop-control_1_4greenlinestimulus3.png,TMTstop-control_1_4redlinestimulus3.png,TMT_Control,4,81,0,3,3,3,0,5,5,5,,,,,,,,,,,,,,,1,1,43.91779919998953,None,['1'],1,[0.05141640000510961],43.91779919998953,None,,001,2022_Apr_29_1051,TMT_fmri,2021.2.3,140.0330758361401,
TMTstop-Control_1_4.xlsx,78:104,7,['3'],3,TMTstop-control_1_4linestimulus4.png,TMTstop-control_1_4greenlinestimulus4.png,TMTstop-control_1_4redlinestimulus4.png,TMT_Control,4,82,0,3,3,3,0,6,6,6,,,,,,,,,,,,,,,2,0,44.0577798000013,None,"['2', '3']",1,"[-0.04763950000051409, 0.06204250000882894]",44.0577798000013,None,,001,2022_Apr_29_1051,TMT_fmri,2021.2.3,140.0330758361401,
TMTstop-Control_1_4.xlsx,78:104,8,['1'],1,TMTstop-control_1_4linestimulus4.png,TMTstop-control_1_4greenlinestimulus5.png,TMTstop-control_1_4redlinestimulus5.png,TMT_Control,4,83,0,3,3,3,0,7,7,7,,,,,,,,,,,,,,,1,1,44.237159499985864,None,['1'],1,[0.028810800024075434],44.237159499985864,None,,001,2022_Apr_29_1051,TMT_fmri,2021.2.3,140.0330758361401,
TMTstop-Control_1_4.xlsx,78:104,9,['3'],3,TMTstop-control_1_4linestimulus6.png,TMTstop-control_1_4greenlinestimulus6.png,TMTstop-control_1_4redlinestimulus6.png,TMT_Control,4,84,0,3,3,3,0,8,8,8,,,,,,,,,,,,,,,2,0,44.35550509998575,None,"['2', '3']",1,"[-0.04338780001853593, 0.07970939998631366]",44.35550509998575,None,,001,2022_Apr_29_1051,TMT_fmri,2021.2.3,140.0330758361401,
TMTstop-Control_1_4.xlsx,78:104,10,['2'],2,TMTstop-control_1_4linestimulus7.png,TMTstop-control_1_4greenlinestimulus7.png,TMTstop-control_1_4redlinestimulus7.png,TMT_Control,4,85,0,3,3,3,0,9,9,9,,,,,,,,,,,,,,,2,0,44.522140899993246,None,"['1', '2']",1,"[0.08319969999138266, 0.17845899998792447]",44.522140899993246,None,,001,2022_Apr_29_1051,TMT_fmri,2021.2.3,140.0330758361401,
TMTstop-Control_1_4.xlsx,78:104,11,['1'],1,TMTstop-control_1_4linestimulus8.png,TMTstop-control_1_4greenlinestimulus8.png,TMTstop-control_1_4redlinestimulus8.png,TMT_Control,4,86,0,3,3,3,0,10,10,10,,,,,,,,,,,,,,,2,0,44.7864803999837,None,"['3', '1']",1,"[0.04583079999429174, 0.5883515999885276]",44.7864803999837,None,,001,2022_Apr_29_1051,TMT_fmri,2021.2.3,140.0330758361401,
TMTstop-Control_1_4.xlsx,78:104,12,['3'],3,TMTstop-control_1_4linestimulus9.png,TMTstop-control_1_4greenlinestimulus9.png,TMTstop-control_1_4redlinestimulus9.png,TMT_Control,4,87,0,3,3,3,0,11,11,11,,,,,,,,,,,,,,,2,0,45.480090400000336,None,"['2', '3']",1,"[-0.06703120001475327, 0.05930149997584522]",45.480090400000336,None,,001,2022_Apr_29_1051,TMT_fmri,2021.2.3,140.0330758361401,
TMTstop-Control_1_4.xlsx,78:104,13,['2'],2,TMTstop-control_1_4linestimulus10.png,TMTstop-control_1_4greenlinestimulus10.png,TMTstop-control_1_4redlinestimulus10.png,TMT_Control,4,88,0,3,3,3,0,12,12,12,,,,,,,,,,,,,,,2,0,45.66116049999255,None,"['1', '2']",1,"[0.20241640001768246, 0.27793940002447926]",45.66116049999255,None,,001,2022_Apr_29_1051,TMT_fmri,2021.2.3,140.0330758361401,
TMTstop-Control_1_4.xlsx,78:104,14,['3'],3,TMTstop-control_1_4linestimulus11.png,TMTstop-control_1_4greenlinestimulus11.png,TMTstop-control_1_4redlinestimulus11.png,TMT_Control,4,89,0,3,3,3,0,13,13,13,,,,,,,,,,,,,,,1,1,46.065999099984765,None,['3'],1,[-0.011022699996829033],46.065999099984765,None,,001,2022_Apr_29_1051,TMT_fmri,2021.2.3,140.0330758361401,
TMTstop-Control_1_4.xlsx,78:104,15,['2'],2,TMTstop-control_1_4linestimulus12.png,TMTstop-control_1_4greenlinestimulus12.png,TMTstop-control_1_4redlinestimulus12.png,TMT_Control,4,90,0,3,3,3,0,14,14,14,,,,,,,,,,,,,,,2,0,46.16240420000395,None,"['1', '2']",1,"[0.052874699991662055, 0.10332220001146197]",46.16240420000395,None,,001,2022_Apr_29_1051,TMT_fmri,2021.2.3,140.0330758361401,
TMTstop-Control_1_4.xlsx,78:104,16,['1'],1,TMTstop-control_1_4linestimulus13.png,TMTstop-control_1_4greenlinestimulus13.png,TMTstop-control_1_4redlinestimulus13.png,TMT_Control,4,91,0,3,3,3,0,15,15,15,,,,,,,,,,,,,,,2,0,46.36186330000055,None,"['3', '1']",1,"[0.024249699985375628, 0.15500719999545254]",46.36186330000055,None,,001,2022_Apr_29_1051,TMT_fmri,2021.2.3,140.0330758361401,
TMTstop-Control_1_4.xlsx,78:104,17,['3'],3,TMTstop-control_1_4linestimulus14.png,TMTstop-control_1_4greenlinestimulus14.png,TMTstop-control_1_4redlinestimulus14.png,TMT_Control,4,92,0,3,3,3,0,16,16,16,,,,,,,,,,,,,,,2,0,46.6335490999918,None,"['2', '3']",1,"[-0.0710110999934841, 0.03494650000357069]",46.6335490999918,None,,001,2022_Apr_29_1051,TMT_fmri,2021.2.3,140.0330758361401,
TMTstop-Control_1_4.xlsx,78:104,18,['1'],1,TMTstop-control_1_4linestimulus15.png,TMTstop-control_1_4greenlinestimulus15.png,TMTstop-control_1_4redlinestimulus15.png,TMT_Control,4,93,0,3,3,3,0,17,17,17,,,,,,,,,,,,,,,1,1,46.808489599992754,None,['1'],1,[-0.006521100003737956],46.808489599992754,None,,001,2022_Apr_29_1051,TMT_fmri,2021.2.3,140.0330758361401,
TMTstop-Control_1_4.xlsx,78:104,19,['2'],2,TMTstop-control_1_4linestimulus16.png,TMTstop-control_1_4greenlinestimulus16.png,TMTstop-control_1_4redlinestimulus16.png,TMT_Control,4,94,0,3,3,3,0,18,18,18,,,,,,,,,,,,,,,1,1,46.905799600004684,None,['2'],1,[-0.05301920001511462],46.905799600004684,None,,001,2022_Apr_29_1051,TMT_fmri,2021.2.3,140.0330758361401,
TMTstop-Control_1_4.xlsx,78:104,20,['1'],1,TMTstop-control_1_4linestimulus17.png,TMTstop-control_1_4greenlinestimulus17.png,TMTstop-control_1_4redlinestimulus17.png,TMT_Control,4,95,0,3,3,3,0,19,19,19,,,,,,,,,,,,,,,2,0,47.00300209998386,None,"['3', '1']",1,"[-0.04112219999660738, 0.10569500000565313]",47.00300209998386,None,,001,2022_Apr_29_1051,TMT_fmri,2021.2.3,140.0330758361401,
TMTstop-Control_1_4.xlsx,78:104,21,['2'],2,TMTstop-control_1_4linestimulus18.png,TMTstop-control_1_4greenlinestimulus18.png,TMTstop-control_1_4redlinestimulus18.png,TMT_Control,4,96,0,3,3,3,0,20,20,20,,,,,,,,,,,,,,,4,0,47.33532759998343,None,"['2', '3', '1', '2']",1,"[-0.157928600005107, -0.054036199988331646, 0.08349980000639334, 0.14480800001183525]",47.33532759998343,None,,001,2022_Apr_29_1051,TMT_fmri,2021.2.3,140.0330758361401,
TMTstop-Control_1_4.xlsx,78:104,22,['1'],1,TMTstop-control_1_4linestimulus19.png,TMTstop-control_1_4greenlinestimulus19.png,TMTstop-control_1_4redlinestimulus19.png,TMT_Control,4,97,0,3,3,3,0,21,21,21,,,,,,,,,,,,,,,2,0,47.57172320000245,None,"['3', '1']",1,"[0.031137999991187826, 0.17007150000426918]",47.57172320000245,None,,001,2022_Apr_29_1051,TMT_fmri,2021.2.3,140.0330758361401,
TMTstop-Control_1_4.xlsx,78:104,23,['2'],2,TMTstop-control_1_4linestimulus20.png,TMTstop-control_1_4greenlinestimulus20.png,TMTstop-control_1_4redlinestimulus20.png,TMT_Control,4,98,0,3,3,3,0,22,22,22,,,,,,,,,,,,,,,1,1,47.86452149998513,None,['2'],1,[-0.06383199998526834],47.86452149998513,None,,001,2022_Apr_29_1051,TMT_fmri,2021.2.3,140.0330758361401,
TMTstop-Control_1_4.xlsx,78:104,24,['1'],1,TMTstop-control_1_4linestimulus21.png,TMTstop-control_1_4greenlinestimulus21.png,TMTstop-control_1_4redlinestimulus21.png,TMT_Control,4,99,0,3,3,3,0,23,23,23,,,,,,,,,,,,,,,2,0,47.976276100001996,None,"['3', '1']",1,"[-0.052708800008986145, 0.0938214999914635]",47.976276100001996,None,,001,2022_Apr_29_1051,TMT_fmri,2021.2.3,140.0330758361401,
TMTstop-Control_1_4.xlsx,78:104,25,['2'],2,TMTstop-control_1_4linestimulus22.png,TMTstop-control_1_4greenlinestimulus22.png,TMTstop-control_1_4redlinestimulus22.png,TMT_Control,4,100,0,3,3,3,0,24,24,24,,,,,,,,,,,,,,,1,1,48.19647039999836,None,['2'],1,[-0.07077489999937825],48.19647039999836,None,,001,2022_Apr_29_1051,TMT_fmri,2021.2.3,140.0330758361401,
TMTstop-Control_1_4.xlsx,78:104,None,None,None,TMTstop-control_1_4linestimulus23.png,TMTstop-control_1_4greenlinestimulus23.png,TMTstop-control_1_4redlinestimulus23.png,TMT_Control,4,Feedback_last,0,3,3,3,0,25,25,25,,,,,,,,,,,,,,,4,0,48.28715779999038,None,"['3', '1', '2', '3']",0,"[-0.04230030000326224, 0.08899869999731891, 0.1729611000046134, 0.29106839999440126]",48.28715779999038,None,,001,2022_Apr_29_1051,TMT_fmri,2021.2.3,140.0330758361401,
TMTstop-Control_1_5.xlsx,104:130,1,['3'],3,TMTstop-control_1_5.png,TMTstop-control_1_5.png,TMTstop-control_1_5.png,TMT_Control,5,101,0,4,4,4,0,0,0,0,,,,,,,,,,,,,,,3,0,52.456331299996236,None,"['1', '2', '3']",1,"[1.1716501000046264, 1.2081484000082128, 1.3424782000074629]",52.456331299996236,None,,001,2022_Apr_29_1051,TMT_fmri,2021.2.3,140.0330758361401,
TMTstop-Control_1_5.xlsx,104:130,2,['2'],2,TMTstop-control_1_5.png,TMTstop-control_1_5firstgreen.png,TMTstop-control_1_5firstred.png,TMT_Control,5,102,0,4,4,4,0,1,1,1,,,,,,,,,,,,,,,2,0,53.90351100001135,None,"['1', '2']",1,"[0.054662900016410276, 0.10942590000922792]",53.90351100001135,None,,001,2022_Apr_29_1051,TMT_fmri,2021.2.3,140.0330758361401,
TMTstop-Control_1_5.xlsx,104:130,3,['1'],1,TMTstop-control_1_5linestimulus0.png,TMTstop-control_1_5greenlinestimulus0.png,TMTstop-control_1_5redlinestimulus0.png,TMT_Control,5,103,0,4,4,4,0,2,2,2,,,,,,,,,,,,,,,5,0,54.13918930001091,None,"['3', '1', '2', '3', '1']",1,"[-0.019909399998141453, 0.10863090000930242, 0.13955540000461042, 0.2673470000154339, 0.3997998000122607]",54.13918930001091,None,,001,2022_Apr_29_1051,TMT_fmri,2021.2.3,140.0330758361401,
TMTstop-Control_1_5.xlsx,104:130,4,['3'],3,TMTstop-control_1_5linestimulus1.png,TMTstop-control_1_5greenlinestimulus1.png,TMTstop-control_1_5redlinestimulus1.png,TMT_Control,5,104,0,4,4,4,0,3,3,3,,,,,,,,,,,,,,,2,0,54.63983759999974,None,"['2', '3']",1,"[-0.02618419998907484, 0.07798750000074506]",54.63983759999974,None,,001,2022_Apr_29_1051,TMT_fmri,2021.2.3,140.0330758361401,
TMTstop-Control_1_5.xlsx,104:130,5,['1'],1,TMTstop-control_1_5linestimulus2.png,TMTstop-control_1_5greenlinestimulus2.png,TMTstop-control_1_5redlinestimulus2.png,TMT_Control,5,105,0,4,4,4,0,4,4,4,,,,,,,,,,,,,,,1,1,54.81424629999674,None,['1'],1,[0.06086409999988973],54.81424629999674,None,,001,2022_Apr_29_1051,TMT_fmri,2021.2.3,140.0330758361401,
TMTstop-Control_1_5.xlsx,104:130,6,['2'],2,TMTstop-control_1_5linestimulus3.png,TMTstop-control_1_5greenlinestimulus3.png,TMTstop-control_1_5redlinestimulus3.png,TMT_Control,5,106,0,4,4,4,0,5,5,5,,,,,,,,,,,,,,,1,1,54.959594799991464,None,['2'],1,[-0.04237049998482689],54.959594799991464,None,,001,2022_Apr_29_1051,TMT_fmri,2021.2.3,140.0330758361401,
TMTstop-Control_1_5.xlsx,104:130,7,['3'],3,TMTstop-control_1_5linestimulus4.png,TMTstop-control_1_5greenlinestimulus4.png,TMTstop-control_1_5redlinestimulus4.png,TMT_Control,5,107,0,4,4,4,0,6,6,6,,,,,,,,,,,,,,,1,1,55.042231600004015,None,['3'],1,[0.014215400005923584],55.042231600004015,None,,001,2022_Apr_29_1051,TMT_fmri,2021.2.3,140.0330758361401,
TMTstop-Control_1_5.xlsx,104:130,8,['2'],2,TMTstop-control_1_5linestimulus4.png,TMTstop-control_1_5greenlinestimulus5.png,TMTstop-control_1_5redlinestimulus5.png,TMT_Control,5,108,0,4,4,4,0,7,7,7,,,,,,,,,,,,,,,2,0,55.14670000001206,None,"['1', '2']",1,"[0.05733919999329373, 0.1032849999901373]",55.14670000001206,None,,001,2022_Apr_29_1051,TMT_fmri,2021.2.3,140.0330758361401,
TMTstop-Control_1_5.xlsx,104:130,9,['1'],1,TMTstop-control_1_5linestimulus6.png,TMTstop-control_1_5greenlinestimulus6.png,TMTstop-control_1_5redlinestimulus6.png,TMT_Control,5,109,0,4,4,4,0,8,8,8,,,,,,,,,,,,,,,2,0,55.34894870000426,None,"['3', '1']",1,"[0.04045920001226477, 0.1890154000138864]",55.34894870000426,None,,001,2022_Apr_29_1051,TMT_fmri,2021.2.3,140.0330758361401,
TMTstop-Control_1_5.xlsx,104:130,10,['2'],2,TMTstop-control_1_5linestimulus7.png,TMTstop-control_1_5greenlinestimulus7.png,TMTstop-control_1_5redlinestimulus7.png,TMT_Control,5,110,0,4,4,4,0,9,9,9,,,,,,,,,,,,,,,1,1,55.63261159998365,None,['2'],1,[-0.032938300020759925],55.63261159998365,None,,001,2022_Apr_29_1051,TMT_fmri,2021.2.3,140.0330758361401,
TMTstop-Control_1_5.xlsx,104:130,11,['1'],1,TMTstop-control_1_5linestimulus8.png,TMTstop-control_1_5greenlinestimulus8.png,TMTstop-control_1_5redlinestimulus8.png,TMT_Control,5,111,0,4,4,4,0,10,10,10,,,,,,,,,,,,,,,2,0,55.716514700005064,None,"['3', '1']",1,"[0.05718699999852106, 0.22526529998867773]",55.716514700005064,None,,001,2022_Apr_29_1051,TMT_fmri,2021.2.3,140.0330758361401,
TMTstop-Control_1_5.xlsx,104:130,12,['3'],3,TMTstop-control_1_5linestimulus9.png,TMTstop-control_1_5greenlinestimulus9.png,TMTstop-control_1_5redlinestimulus9.png,TMT_Control,5,112,0,4,4,4,0,11,11,11,,,,,,,,,,,,,,,2,0,56.06297130000894,None,"['2', '3']",1,"[-0.07423120000748895, 0.06568339999648742]",56.06297130000894,None,,001,2022_Apr_29_1051,TMT_fmri,2021.2.3,140.0330758361401,
TMTstop-Control_1_5.xlsx,104:130,13,['2'],2,TMTstop-control_1_5linestimulus10.png,TMTstop-control_1_5greenlinestimulus10.png,TMTstop-control_1_5redlinestimulus10.png,TMT_Control,5,113,0,4,4,4,0,12,12,12,,,,,,,,,,,,,,,2,0,56.252101099991705,None,"['1', '2']",1,"[0.02973280000151135, 0.08859440000378527]",56.252101099991705,None,,001,2022_Apr_29_1051,TMT_fmri,2021.2.3,140.0330758361401,
TMTstop-Control_1_5.xlsx,104:130,14,['3'],3,TMTstop-control_1_5linestimulus11.png,TMTstop-control_1_5greenlinestimulus11.png,TMTstop-control_1_5redlinestimulus11.png,TMT_Control,5,114,0,4,4,4,0,13,13,13,,,,,,,,,,,,,,,1,1,56.44609909999417,None,['3'],1,[0.041580400022212416],56.44609909999417,None,,001,2022_Apr_29_1051,TMT_fmri,2021.2.3,140.0330758361401,
TMTstop-Control_1_5.xlsx,104:130,15,['1'],1,TMTstop-control_1_5linestimulus12.png,TMTstop-control_1_5greenlinestimulus12.png,TMTstop-control_1_5redlinestimulus12.png,TMT_Control,5,115,0,4,4,4,0,14,14,14,,,,,,,,,,,,,,,1,1,56.56982309999876,None,['1'],1,[0.07797869999194518],56.56982309999876,None,,001,2022_Apr_29_1051,TMT_fmri,2021.2.3,140.0330758361401,
TMTstop-Control_1_5.xlsx,104:130,16,['2'],2,TMTstop-control_1_5linestimulus13.png,TMTstop-control_1_5greenlinestimulus13.png,TMTstop-control_1_5redlinestimulus13.png,TMT_Control,5,116,0,4,4,4,0,15,15,15,,,,,,,,,,,,,,,1,1,56.75869379998767,None,['2'],1,[-0.045201400003861636],56.75869379998767,None,,001,2022_Apr_29_1051,TMT_fmri,2021.2.3,140.0330758361401,
TMTstop-Control_1_5.xlsx,104:130,17,['3'],3,TMTstop-control_1_5linestimulus14.png,TMTstop-control_1_5greenlinestimulus14.png,TMTstop-control_1_5redlinestimulus14.png,TMT_Control,5,117,0,4,4,4,0,16,16,16,,,,,,,,,,,,,,,1,1,56.84956360000069,None,['3'],1,[0.00704349999432452],56.84956360000069,None,,001,2022_Apr_29_1051,TMT_fmri,2021.2.3,140.0330758361401,
TMTstop-Control_1_5.xlsx,104:130,18,['1'],1,TMTstop-control_1_5linestimulus15.png,TMTstop-control_1_5greenlinestimulus15.png,TMTstop-control_1_5redlinestimulus15.png,TMT_Control,5,118,0,4,4,4,0,17,17,17,,,,,,,,,,,,,,,1,1,56.95181309999316,None,['1'],1,[0.04345099997590296],56.95181309999316,None,,001,2022_Apr_29_1051,TMT_fmri,2021.2.3,140.0330758361401,
TMTstop-Control_1_5.xlsx,104:130,19,['2'],2,TMTstop-control_1_5linestimulus16.png,TMTstop-control_1_5greenlinestimulus16.png,TMTstop-control_1_5redlinestimulus16.png,TMT_Control,5,119,0,4,4,4,0,18,18,18,,,,,,,,,,,,,,,1,1,57.07202829999733,None,['2'],1,[-0.013808800023980439],57.07202829999733,None,,001,2022_Apr_29_1051,TMT_fmri,2021.2.3,140.0330758361401,
TMTstop-Control_1_5.xlsx,104:130,20,['1'],1,TMTstop-control_1_5linestimulus17.png,TMTstop-control_1_5greenlinestimulus17.png,TMTstop-control_1_5redlinestimulus17.png,TMT_Control,5,120,0,4,4,4,0,19,19,19,,,,,,,,,,,,,,,2,0,57.15308210000512,None,"['3', '1']",1,"[0.04464759997790679, 0.17592109998804517]",57.15308210000512,None,,001,2022_Apr_29_1051,TMT_fmri,2021.2.3,140.0330758361401,
TMTstop-Control_1_5.xlsx,104:130,21,['2'],2,TMTstop-control_1_5linestimulus18.png,TMTstop-control_1_5greenlinestimulus18.png,TMTstop-control_1_5redlinestimulus18.png,TMT_Control,5,121,0,4,4,4,0,20,20,20,,,,,,,,,,,,,,,1,1,57.453958099999,None,['2'],1,[-0.07061250001424924],57.453958099999,None,,001,2022_Apr_29_1051,TMT_fmri,2021.2.3,140.0330758361401,
TMTstop-Control_1_5.xlsx,104:130,22,['1'],1,TMTstop-control_1_5linestimulus19.png,TMTstop-control_1_5greenlinestimulus19.png,TMTstop-control_1_5redlinestimulus19.png,TMT_Control,5,122,0,4,4,4,0,21,21,21,,,,,,,,,,,,,,,2,0,57.64097859998583,None,"['3', '1']",1,"[-0.11921930001699366, 0.05989420000696555]",57.64097859998583,None,,001,2022_Apr_29_1051,TMT_fmri,2021.2.3,140.0330758361401,
TMTstop-Control_1_5.xlsx,104:130,23,['3'],3,TMTstop-control_1_5linestimulus20.png,TMTstop-control_1_5greenlinestimulus20.png,TMTstop-control_1_5redlinestimulus20.png,TMT_Control,5,123,0,4,4,4,0,22,22,22,,,,,,,,,,,,,,,2,0,57.82667539999238,None,"['2', '3']",1,"[-0.053390499990200624, 0.08438690000912175]",57.82667539999238,None,,001,2022_Apr_29_1051,TMT_fmri,2021.2.3,140.0330758361401,
TMTstop-Control_1_5.xlsx,104:130,24,['1'],1,TMTstop-control_1_5linestimulus21.png,TMTstop-control_1_5greenlinestimulus21.png,TMTstop-control_1_5redlinestimulus21.png,TMT_Control,5,124,0,4,4,4,0,23,23,23,,,,,,,,,,,,,,,1,1,58.000625399989076,None,['1'],1,[0.06740429997444153],58.000625399989076,None,,001,2022_Apr_29_1051,TMT_fmri,2021.2.3,140.0330758361401,
TMTstop-Control_1_5.xlsx,104:130,25,['3'],3,TMTstop-control_1_5linestimulus22.png,TMTstop-control_1_5greenlinestimulus22.png,TMTstop-control_1_5redlinestimulus22.png,TMT_Control,5,125,0,4,4,4,0,24,24,24,,,,,,,,,,,,,,,2,0,58.1639734999917,None,"['2', '3']",1,"[-0.047864699998172, 0.10046650000731461]",58.1639734999917,None,,001,2022_Apr_29_1051,TMT_fmri,2021.2.3,140.0330758361401,
TMTstop-Control_1_5.xlsx,104:130,None,None,None,TMTstop-control_1_5linestimulus23.png,TMTstop-control_1_5greenlinestimulus23.png,TMTstop-control_1_5redlinestimulus23.png,TMT_Control,5,Feedback_last,0,4,4,4,0,25,25,25,,,,,,,,,,,,,,,3,0,58.35721439999179,None,"['1', '2', '3']",0,"[0.09914590002154, 0.11720999999670312, 0.2996032000228297]",58.35721439999179,None,,001,2022_Apr_29_1051,TMT_fmri,2021.2.3,140.0330758361401,
TMTstop-Control_1_6.xlsx,130:156,1,['3'],3,TMTstop-control_1_6.png,TMTstop-control_1_6.png,TMTstop-control_1_6.png,TMT_Control,6,126,0,5,5,5,0,0,0,0,,,,,,,,,,,,,,,3,0,62.5159439999843,None,"['1', '2', '3']",1,"[0.7863302000041585, 0.860212200001115, 0.9768863999925088]",62.5159439999843,None,,001,2022_Apr_29_1051,TMT_fmri,2021.2.3,140.0330758361401,
TMTstop-Control_1_6.xlsx,130:156,2,['2'],2,TMTstop-control_1_6.png,TMTstop-control_1_6firstgreen.png,TMTstop-control_1_6firstred.png,TMT_Control,6,127,0,5,5,5,0,1,1,1,,,,,,,,,,,,,,,2,0,63.59867740000482,None,"['1', '2']",1,"[0.06006819999311119, 0.09080720000201836]",63.59867740000482,None,,001,2022_Apr_29_1051,TMT_fmri,2021.2.3,140.0330758361401,
TMTstop-Control_1_6.xlsx,130:156,3,['1'],1,TMTstop-control_1_6linestimulus0.png,TMTstop-control_1_6greenlinestimulus0.png,TMTstop-control_1_6redlinestimulus0.png,TMT_Control,6,128,0,5,5,5,0,2,2,2,,,,,,,,,,,,,,,2,0,63.791553399991244,None,"['3', '1']",1,"[0.028595599986147135, 0.17320349998772144]",63.791553399991244,None,,001,2022_Apr_29_1051,TMT_fmri,2021.2.3,140.0330758361401,
TMTstop-Control_1_6.xlsx,130:156,4,['2'],2,TMTstop-control_1_6linestimulus1.png,TMTstop-control_1_6greenlinestimulus1.png,TMTstop-control_1_6redlinestimulus1.png,TMT_Control,6,129,0,5,5,5,0,3,3,3,,,,,,,,,,,,,,,1,1,64.04903669998748,None,['2'],1,[-0.051264500012621284],64.04903669998748,None,,001,2022_Apr_29_1051,TMT_fmri,2021.2.3,140.0330758361401,
TMTstop-Control_1_6.xlsx,130:156,5,['3'],3,TMTstop-control_1_6linestimulus2.png,TMTstop-control_1_6greenlinestimulus2.png,TMTstop-control_1_6redlinestimulus2.png,TMT_Control,6,130,0,5,5,5,0,4,4,4,,,,,,,,,,,,,,,1,1,64.12520939999376,None,['3'],1,[0.014104700007010251],64.12520939999376,None,,001,2022_Apr_29_1051,TMT_fmri,2021.2.3,140.0330758361401,
TMTstop-Control_1_6.xlsx,130:156,6,['2'],2,TMTstop-control_1_6linestimulus3.png,TMTstop-control_1_6greenlinestimulus3.png,TMTstop-control_1_6redlinestimulus3.png,TMT_Control,6,131,0,5,5,5,0,5,5,5,,,,,,,,,,,,,,,2,0,64.23669419999351,None,"['1', '2']",1,"[0.04209559998707846, 0.09183409999241121]",64.23669419999351,None,,001,2022_Apr_29_1051,TMT_fmri,2021.2.3,140.0330758361401,
TMTstop-Control_1_6.xlsx,130:156,7,['1'],1,TMTstop-control_1_6linestimulus4.png,TMTstop-control_1_6greenlinestimulus4.png,TMTstop-control_1_6redlinestimulus4.png,TMT_Control,6,132,0,5,5,5,0,6,6,6,,,,,,,,,,,,,,,2,0,64.45910279999953,None,"['3', '1']",1,"[0.0017571999924257398, 0.14226339999004267]",64.45910279999953,None,,001,2022_Apr_29_1051,TMT_fmri,2021.2.3,140.0330758361401,
TMTstop-Control_1_6.xlsx,130:156,8,['3'],3,TMTstop-control_1_6linestimulus4.png,TMTstop-control_1_6greenlinestimulus5.png,TMTstop-control_1_6redlinestimulus5.png,TMT_Control,6,133,0,5,5,5,0,7,7,7,,,,,,,,,,,,,,,2,0,64.716502700001,None,"['2', '3']",1,"[-0.05510190001223236, 0.08789059999980964]",64.716502700001,None,,001,2022_Apr_29_1051,TMT_fmri,2021.2.3,140.0330758361401,
TMTstop-Control_1_6.xlsx,130:156,9,['2'],2,TMTstop-control_1_6linestimulus6.png,TMTstop-control_1_6greenlinestimulus6.png,TMTstop-control_1_6redlinestimulus6.png,TMT_Control,6,134,0,5,5,5,0,8,8,8,,,,,,,,,,,,,,,2,0,64.91731670001172,None,"['1', '2']",1,"[0.02581089999875985, 0.09194939999724738]",64.91731670001172,None,,001,2022_Apr_29_1051,TMT_fmri,2021.2.3,140.0330758361401,
TMTstop-Control_1_6.xlsx,130:156,10,['1'],1,TMTstop-control_1_6linestimulus7.png,TMTstop-control_1_6greenlinestimulus7.png,TMTstop-control_1_6redlinestimulus7.png,TMT_Control,6,135,0,5,5,5,0,9,9,9,,,,,,,,,,,,,,,5,0,65.126279899996,None,"['3', '1', '2', '3', '1']",1,"[0.0033591999963391572, 0.16630389998317696, 0.20567110000411049, 0.352084999991348, 0.525083899992751]",65.126279899996,None,,001,2022_Apr_29_1051,TMT_fmri,2021.2.3,140.0330758361401,
TMTstop-Control_1_6.xlsx,130:156,11,['2'],2,TMTstop-control_1_6linestimulus8.png,TMTstop-control_1_6greenlinestimulus8.png,TMTstop-control_1_6redlinestimulus8.png,TMT_Control,6,136,0,5,5,5,0,10,10,10,,,,,,,,,,,,,,,1,1,65.77193139999872,None,['2'],1,[-0.07941649999702349],65.77193139999872,None,,001,2022_Apr_29_1051,TMT_fmri,2021.2.3,140.0330758361401,
TMTstop-Control_1_6.xlsx,130:156,12,['3'],3,TMTstop-control_1_6linestimulus9.png,TMTstop-control_1_6greenlinestimulus9.png,TMTstop-control_1_6redlinestimulus9.png,TMT_Control,6,137,0,5,5,5,0,11,11,11,,,,,,,,,,,,,,,1,1,65.86342340000556,None,['3'],1,[-0.03062169998884201],65.86342340000556,None,,001,2022_Apr_29_1051,TMT_fmri,2021.2.3,140.0330758361401,
TMTstop-Control_1_6.xlsx,130:156,13,['1'],1,TMTstop-control_1_6linestimulus10.png,TMTstop-control_1_6greenlinestimulus10.png,TMTstop-control_1_6redlinestimulus10.png,TMT_Control,6,138,0,5,5,5,0,12,12,12,,,,,,,,,,,,,,,1,1,65.95159350000904,None,['1'],1,[0.02336759999161586],65.95159350000904,None,,001,2022_Apr_29_1051,TMT_fmri,2021.2.3,140.0330758361401,
TMTstop-Control_1_6.xlsx,130:156,14,['3'],3,TMTstop-control_1_6linestimulus11.png,TMTstop-control_1_6greenlinestimulus11.png,TMTstop-control_1_6redlinestimulus11.png,TMT_Control,6,139,0,5,5,5,0,13,13,13,,,,,,,,,,,,,,,2,0,66.07114590000128,None,"['2', '3']",1,"[-0.05081710001104511, 0.08499040000606328]",66.07114590000128,None,,001,2022_Apr_29_1051,TMT_fmri,2021.2.3,140.0330758361401,
TMTstop-Control_1_6.xlsx,130:156,15,['2'],2,TMTstop-control_1_6linestimulus12.png,TMTstop-control_1_6greenlinestimulus12.png,TMTstop-control_1_6redlinestimulus12.png,TMT_Control,6,140,0,5,5,5,0,14,14,14,,,,,,,,,,,,,,,2,0,66.26467080001021,None,"['1', '2']",1,"[0.027741099998820573, 0.07338899999740534]",66.26467080001021,None,,001,2022_Apr_29_1051,TMT_fmri,2021.2.3,140.0330758361401,
TMTstop-Control_1_6.xlsx,130:156,16,['3'],3,TMTstop-control_1_6linestimulus13.png,TMTstop-control_1_6greenlinestimulus13.png,TMTstop-control_1_6redlinestimulus13.png,TMT_Control,6,141,0,5,5,5,0,15,15,15,,,,,,,,,,,,,,,1,1,66.43099759999313,None,['3'],1,[0.030522099987138063],66.43099759999313,None,,001,2022_Apr_29_1051,TMT_fmri,2021.2.3,140.0330758361401,
TMTstop-Control_1_6.xlsx,130:156,17,['1'],1,TMTstop-control_1_6linestimulus14.png,TMTstop-control_1_6greenlinestimulus14.png,TMTstop-control_1_6redlinestimulus14.png,TMT_Control,6,142,0,5,5,5,0,16,16,16,,,,,,,,,,,,,,,1,1,66.56600379999145,None,['1'],1,[0.04816390000632964],66.56600379999145,None,,001,2022_Apr_29_1051,TMT_fmri,2021.2.3,140.0330758361401,
TMTstop-Control_1_6.xlsx,130:156,18,['2'],2,TMTstop-control_1_6linestimulus15.png,TMTstop-control_1_6greenlinestimulus15.png,TMTstop-control_1_6redlinestimulus15.png,TMT_Control,6,143,0,5,5,5,0,17,17,17,,,,,,,,,,,,,,,1,1,66.73910169998999,None,['2'],1,[-0.05636729998514056],66.73910169998999,None,,001,2022_Apr_29_1051,TMT_fmri,2021.2.3,140.0330758361401,
TMTstop-Control_1_6.xlsx,130:156,19,['3'],3,TMTstop-control_1_6linestimulus16.png,TMTstop-control_1_6greenlinestimulus16.png,TMTstop-control_1_6redlinestimulus16.png,TMT_Control,6,144,0,5,5,5,0,18,18,18,,,,,,,,,,,,,,,1,1,66.8360793000029,None,['3'],1,[0.014871899998979643],66.8360793000029,None,,001,2022_Apr_29_1051,TMT_fmri,2021.2.3,140.0330758361401,
TMTstop-Control_1_6.xlsx,130:156,20,['2'],2,TMTstop-control_1_6linestimulus17.png,TMTstop-control_1_6greenlinestimulus17.png,TMTstop-control_1_6redlinestimulus17.png,TMT_Control,6,145,0,5,5,5,0,19,19,19,,,,,,,,,,,,,,,2,0,66.94652269998915,None,"['1', '2']",1,"[1.6925622999842744, 1.7665321999811567]",66.94652269998915,None,,001,2022_Apr_29_1051,TMT_fmri,2021.2.3,140.0330758361401,
TMTstop-Control_1_6.xlsx,130:156,21,['1'],1,TMTstop-control_1_6linestimulus18.png,TMTstop-control_1_6greenlinestimulus18.png,TMTstop-control_1_6redlinestimulus18.png,TMT_Control,6,146,0,5,5,5,0,20,20,20,,,,,,,,,,,,,,,2,0,68.8340506000095,None,"['3', '1']",1,"[0.008345100010046735, 0.16783970000687987]",68.8340506000095,None,,001,2022_Apr_29_1051,TMT_fmri,2021.2.3,140.0330758361401,
TMTstop-Control_1_6.xlsx,130:156,22,['2'],2,TMTstop-control_1_6linestimulus19.png,TMTstop-control_1_6greenlinestimulus19.png,TMTstop-control_1_6redlinestimulus19.png,TMT_Control,6,147,0,5,5,5,0,21,21,21,,,,,,,,,,,,,,,1,1,69.1404007000092,None,['2'],1,[-0.09248210000805557],69.1404007000092,None,,001,2022_Apr_29_1051,TMT_fmri,2021.2.3,140.0330758361401,
TMTstop-Control_1_6.xlsx,130:156,23,['1'],1,TMTstop-control_1_6linestimulus20.png,TMTstop-control_1_6greenlinestimulus20.png,TMTstop-control_1_6redlinestimulus20.png,TMT_Control,6,148,0,5,5,5,0,22,22,22,,,,,,,,,,,,,,,2,0,69.23811390000628,None,"['3', '1']",1,"[-0.047342499980004504, 0.0941418000147678]",69.23811390000628,None,,001,2022_Apr_29_1051,TMT_fmri,2021.2.3,140.0330758361401,
TMTstop-Control_1_6.xlsx,130:156,24,['2'],2,TMTstop-control_1_6linestimulus21.png,TMTstop-control_1_6greenlinestimulus21.png,TMTstop-control_1_6redlinestimulus21.png,TMT_Control,6,149,0,5,5,5,0,23,23,23,,,,,,,,,,,,,,,1,1,69.44650489999913,None,['2'],1,[-0.07128049997845665],69.44650489999913,None,,001,2022_Apr_29_1051,TMT_fmri,2021.2.3,140.0330758361401,
TMTstop-Control_1_6.xlsx,130:156,25,['3'],3,TMTstop-control_1_6linestimulus22.png,TMTstop-control_1_6greenlinestimulus22.png,TMTstop-control_1_6redlinestimulus22.png,TMT_Control,6,150,0,5,5,5,0,24,24,24,,,,,,,,,,,,,,,1,1,69.55712300000596,None,['3'],1,[-0.04573300000629388],69.55712300000596,None,,001,2022_Apr_29_1051,TMT_fmri,2021.2.3,140.0330758361401,
TMTstop-Control_1_6.xlsx,130:156,None,None,None,TMTstop-control_1_6linestimulus23.png,TMTstop-control_1_6greenlinestimulus23.png,TMTstop-control_1_6redlinestimulus23.png,TMT_Control,6,Feedback_last,0,5,5,5,0,25,25,25,,,,,,,,,,,,,,,7,0,69.63918930001091,None,"['1', '2', '3', '2', '3', '1', '2']",0,"[0.013618700002552941, 0.05946530000073835, 0.20337130001280457, 0.5142476000182796, 0.7855233000009321, 0.8378039000090212, 0.9474835000000894]",69.63918930001091,None,,001,2022_Apr_29_1051,TMT_fmri,2021.2.3,140.0330758361401,
TMTstop-Control_1_7.xlsx,156:182,1,['1'],1,TMTstop-control_1_7.png,TMTstop-control_1_7.png,TMTstop-control_1_7.png,TMT_Control,7,151,0,6,6,6,0,0,0,0,,,,,,,,,,,,,,,5,0,73.80726090000826,None,"['3', '1', '2', '3', '1']",1,"[-3.1278346000181045, -2.9294792000146117, -2.8861485999950673, -2.736833300004946, 0.55476989998715]",73.80726090000826,None,,001,2022_Apr_29_1051,TMT_fmri,2021.2.3,140.0330758361401,
TMTstop-Control_1_7.xlsx,156:182,2,['2'],2,TMTstop-control_1_7.png,TMTstop-control_1_7firstgreen.png,TMTstop-control_1_7firstred.png,TMT_Control,7,152,0,6,6,6,0,1,1,1,,,,,,,,,,,,,,,1,1,74.53048310001031,None,['2'],1,[-0.09044629998970777],74.53048310001031,None,,001,2022_Apr_29_1051,TMT_fmri,2021.2.3,140.0330758361401,
TMTstop-Control_1_7.xlsx,156:182,3,['3'],3,TMTstop-control_1_7linestimulus0.png,TMTstop-control_1_7greenlinestimulus0.png,TMTstop-control_1_7redlinestimulus0.png,TMT_Control,7,153,0,6,6,6,0,2,2,2,,,,,,,,,,,,,,,1,1,74.63905299999169,None,['3'],1,[-0.08456940000178292],74.63905299999169,None,,001,2022_Apr_29_1051,TMT_fmri,2021.2.3,140.0330758361401,
TMTstop-Control_1_7.xlsx,156:182,4,['2'],2,TMTstop-control_1_7linestimulus1.png,TMTstop-control_1_7greenlinestimulus1.png,TMTstop-control_1_7redlinestimulus1.png,TMT_Control,7,154,0,6,6,6,0,3,3,3,,,,,,,,,,,,,,,2,0,74.72930710000219,None,"['1', '2']",1,"[-0.03025580002577044, 0.01290619999053888]",74.72930710000219,None,,001,2022_Apr_29_1051,TMT_fmri,2021.2.3,140.0330758361401,
TMTstop-Control_1_7.xlsx,156:182,5,['3'],3,TMTstop-control_1_7linestimulus2.png,TMTstop-control_1_7greenlinestimulus2.png,TMTstop-control_1_7redlinestimulus2.png,TMT_Control,7,155,0,6,6,6,0,4,4,4,,,,,,,,,,,,,,,1,1,74.8559879999957,None,['3'],1,[0.018891000014264137],74.8559879999957,None,,001,2022_Apr_29_1051,TMT_fmri,2021.2.3,140.0330758361401,
TMTstop-Control_1_7.xlsx,156:182,6,['1'],1,TMTstop-control_1_7linestimulus3.png,TMTstop-control_1_7greenlinestimulus3.png,TMTstop-control_1_7redlinestimulus3.png,TMT_Control,7,156,0,6,6,6,0,5,5,5,,,,,,,,,,,,,,,1,1,74.96612520000781,None,['1'],1,[0.04540769997402094],74.96612520000781,None,,001,2022_Apr_29_1051,TMT_fmri,2021.2.3,140.0330758361401,
TMTstop-Control_1_7.xlsx,156:182,7,['3'],3,TMTstop-control_1_7linestimulus4.png,TMTstop-control_1_7greenlinestimulus4.png,TMTstop-control_1_7redlinestimulus4.png,TMT_Control,7,157,0,6,6,6,0,6,6,6,,,,,,,,,,,,,,,2,0,75.09735219998402,None,"['2', '3']",1,"[-0.044563100003870204, 0.11082869998062961]",75.09735219998402,None,,001,2022_Apr_29_1051,TMT_fmri,2021.2.3,140.0330758361401,
TMTstop-Control_1_7.xlsx,156:182,8,['2'],2,TMTstop-control_1_7linestimulus4.png,TMTstop-control_1_7greenlinestimulus5.png,TMTstop-control_1_7redlinestimulus5.png,TMT_Control,7,158,0,6,6,6,0,7,7,7,,,,,,,,,,,,,,,2,0,75.31981570000062,None,"['1', '2']",1,"[0.04347500001313165, 0.08902549999766052]",75.31981570000062,None,,001,2022_Apr_29_1051,TMT_fmri,2021.2.3,140.0330758361401,
TMTstop-Control_1_7.xlsx,156:182,9,['3'],3,TMTstop-control_1_7linestimulus6.png,TMTstop-control_1_7greenlinestimulus6.png,TMTstop-control_1_7redlinestimulus6.png,TMT_Control,7,159,0,6,6,6,0,8,8,8,,,,,,,,,,,,,,,1,1,75.51458290001028,None,['3'],1,[0.05519109999295324],75.51458290001028,None,,001,2022_Apr_29_1051,TMT_fmri,2021.2.3,140.0330758361401,
TMTstop-Control_1_7.xlsx,156:182,10,['2'],2,TMTstop-control_1_7linestimulus7.png,TMTstop-control_1_7greenlinestimulus7.png,TMTstop-control_1_7redlinestimulus7.png,TMT_Control,7,160,0,6,6,6,0,9,9,9,,,,,,,,,,,,,,,2,0,75.65302659998997,None,"['1', '2']",1,"[0.12705799998366274, 0.15488089999416843]",75.65302659998997,None,,001,2022_Apr_29_1051,TMT_fmri,2021.2.3,140.0330758361401,
TMTstop-Control_1_7.xlsx,156:182,11,['1'],1,TMTstop-control_1_7linestimulus8.png,TMTstop-control_1_7greenlinestimulus8.png,TMTstop-control_1_7redlinestimulus8.png,TMT_Control,7,161,0,6,6,6,0,10,10,10,,,,,,,,,,,,,,,2,0,75.92361299999175,None,"['3', '1']",1,"[0.06042679998790845, 0.2110411999747157]",75.92361299999175,None,,001,2022_Apr_29_1051,TMT_fmri,2021.2.3,140.0330758361401,
TMTstop-Control_1_7.xlsx,156:182,12,['2'],2,TMTstop-control_1_7linestimulus9.png,TMTstop-control_1_7greenlinestimulus9.png,TMTstop-control_1_7redlinestimulus9.png,TMT_Control,7,162,0,6,6,6,0,11,11,11,,,,,,,,,,,,,,,1,1,76.22232030000305,None,['2'],1,[-0.04715249998844229],76.22232030000305,None,,001,2022_Apr_29_1051,TMT_fmri,2021.2.3,140.0330758361401,
TMTstop-Control_1_7.xlsx,156:182,13,['3'],3,TMTstop-control_1_7linestimulus10.png,TMTstop-control_1_7greenlinestimulus10.png,TMTstop-control_1_7redlinestimulus10.png,TMT_Control,7,163,0,6,6,6,0,12,12,12,,,,,,,,,,,,,,,1,1,76.30519119999371,None,['3'],1,[0.01599549999809824],76.30519119999371,None,,001,2022_Apr_29_1051,TMT_fmri,2021.2.3,140.0330758361401,
TMTstop-Control_1_7.xlsx,156:182,14,['1'],1,TMTstop-control_1_7linestimulus11.png,TMTstop-control_1_7greenlinestimulus11.png,TMTstop-control_1_7redlinestimulus11.png,TMT_Control,7,164,0,6,6,6,0,13,13,13,,,,,,,,,,,,,,,1,1,76.41706770000746,None,['1'],1,[0.055297300015809014],76.41706770000746,None,,001,2022_Apr_29_1051,TMT_fmri,2021.2.3,140.0330758361401,
TMTstop-Control_1_7.xlsx,156:182,15,['2'],2,TMTstop-control_1_7linestimulus12.png,TMTstop-control_1_7greenlinestimulus12.png,TMTstop-control_1_7redlinestimulus12.png,TMT_Control,7,165,0,6,6,6,0,14,14,14,,,,,,,,,,,,,,,1,1,76.58469930000138,None,['2'],1,[-0.07982729998184368],76.58469930000138,None,,001,2022_Apr_29_1051,TMT_fmri,2021.2.3,140.0330758361401,
TMTstop-Control_1_7.xlsx,156:182,16,['3'],3,TMTstop-control_1_7linestimulus13.png,TMTstop-control_1_7greenlinestimulus13.png,TMTstop-control_1_7redlinestimulus13.png,TMT_Control,7,166,0,6,6,6,0,15,15,15,,,,,,,,,,,,,,,1,1,76.67380980000598,None,['3'],1,[0.000671899993903935],76.67380980000598,None,,001,2022_Apr_29_1051,TMT_fmri,2021.2.3,140.0330758361401,
TMTstop-Control_1_7.xlsx,156:182,17,['1'],1,TMTstop-control_1_7linestimulus14.png,TMTstop-control_1_7greenlinestimulus14.png,TMTstop-control_1_7redlinestimulus14.png,TMT_Control,7,167,0,6,6,6,0,16,16,16,,,,,,,,,,,,,,,1,1,76.77331379998941,None,['1'],1,[0.055593299999600276],76.77331379998941,None,,001,2022_Apr_29_1051,TMT_fmri,2021.2.3,140.0330758361401,
TMTstop-Control_1_7.xlsx,156:182,18,['2'],2,TMTstop-control_1_7linestimulus15.png,TMTstop-control_1_7greenlinestimulus15.png,TMTstop-control_1_7redlinestimulus15.png,TMT_Control,7,168,0,6,6,6,0,17,17,17,,,,,,,,,,,,,,,1,1,76.92359120000037,None,['2'],1,[-0.03835829999297857],76.92359120000037,None,,001,2022_Apr_29_1051,TMT_fmri,2021.2.3,140.0330758361401,
TMTstop-Control_1_7.xlsx,156:182,19,['3'],3,TMTstop-control_1_7linestimulus16.png,TMTstop-control_1_7greenlinestimulus16.png,TMTstop-control_1_7redlinestimulus16.png,TMT_Control,7,169,0,6,6,6,0,18,18,18,,,,,,,,,,,,,,,1,1,77.0066433000029,None,['3'],1,[0.02977720001945272],77.0066433000029,None,,001,2022_Apr_29_1051,TMT_fmri,2021.2.3,140.0330758361401,
TMTstop-Control_1_7.xlsx,156:182,20,['2'],2,TMTstop-control_1_7linestimulus17.png,TMTstop-control_1_7greenlinestimulus17.png,TMTstop-control_1_7redlinestimulus17.png,TMT_Control,7,170,0,6,6,6,0,19,19,19,,,,,,,,,,,,,,,2,0,77.13200730000972,None,"['1', '2']",1,"[0.0451251000049524, 0.09781619999557734]",77.13200730000972,None,,001,2022_Apr_29_1051,TMT_fmri,2021.2.3,140.0330758361401,
TMTstop-Control_1_7.xlsx,156:182,21,['3'],3,TMTstop-control_1_7linestimulus18.png,TMTstop-control_1_7greenlinestimulus18.png,TMTstop-control_1_7redlinestimulus18.png,TMT_Control,7,171,0,6,6,6,0,20,20,20,,,,,,,,,,,,,,,1,1,77.31937380001182,None,['3'],1,[0.04069510000408627],77.31937380001182,None,,001,2022_Apr_29_1051,TMT_fmri,2021.2.3,140.0330758361401,
TMTstop-Control_1_7.xlsx,156:182,22,['2'],2,TMTstop-control_1_7linestimulus19.png,TMTstop-control_1_7greenlinestimulus19.png,TMTstop-control_1_7redlinestimulus19.png,TMT_Control,7,172,0,6,6,6,0,21,21,21,,,,,,,,,,,,,,,2,0,77.44430339999963,None,"['1', '2']",1,"[0.0674851999792736, 0.10514969998621382]",77.44430339999963,None,,001,2022_Apr_29_1051,TMT_fmri,2021.2.3,140.0330758361401,
TMTstop-Control_1_7.xlsx,156:182,23,['3'],3,TMTstop-control_1_7linestimulus20.png,TMTstop-control_1_7greenlinestimulus20.png,TMTstop-control_1_7redlinestimulus20.png,TMT_Control,7,173,0,6,6,6,0,22,22,22,,,,,,,,,,,,,,,1,1,77.65264980000211,None,['3'],1,[0.03746250001131557],77.65264980000211,None,,001,2022_Apr_29_1051,TMT_fmri,2021.2.3,140.0330758361401,
TMTstop-Control_1_7.xlsx,156:182,24,['2'],2,TMTstop-control_1_7linestimulus21.png,TMTstop-control_1_7greenlinestimulus21.png,TMTstop-control_1_7redlinestimulus21.png,TMT_Control,7,174,0,6,6,6,0,23,23,23,,,,,,,,,,,,,,,2,0,77.7782581000065,None,"['1', '2']",1,"[0.07223399999202229, 0.12379019998479635]",77.7782581000065,None,,001,2022_Apr_29_1051,TMT_fmri,2021.2.3,140.0330758361401,
TMTstop-Control_1_7.xlsx,156:182,25,['3'],3,TMTstop-control_1_7linestimulus22.png,TMTstop-control_1_7greenlinestimulus22.png,TMTstop-control_1_7redlinestimulus22.png,TMT_Control,7,175,0,6,6,6,0,24,24,24,,,,,,,,,,,,,,,1,1,78.13264229998458,None,['3'],1,[-0.0710319000063464],78.13264229998458,None,,001,2022_Apr_29_1051,TMT_fmri,2021.2.3,140.0330758361401,
TMTstop-Control_1_7.xlsx,156:182,None,None,None,TMTstop-control_1_7linestimulus23.png,TMTstop-control_1_7greenlinestimulus23.png,TMTstop-control_1_7redlinestimulus23.png,TMT_Control,7,Feedback_last,0,6,6,6,0,25,25,25,,,,,,,,,,,,,,,3,0,78.20876380000846,None,"['1', '2', '3']",0,"[-0.0010221999837085605, 0.04529999999795109, 0.18150440001045354]",78.20876380000846,None,,001,2022_Apr_29_1051,TMT_fmri,2021.2.3,140.0330758361401,
TMTstop-Control_1_8.xlsx,182:208,1,['3'],3,TMTstop-control_1_8.png,TMTstop-control_1_8.png,TMTstop-control_1_8.png,TMT_Control,8,176,0,7,7,7,0,0,0,0,,,,,,,,,,,,,,,3,0,82.38308969998616,None,"['1', '2', '3']",1,"[0.37985460000345483, 0.4798863000178244, 0.5642947000160348]",82.38308969998616,None,,001,2022_Apr_29_1051,TMT_fmri,2021.2.3,140.0330758361401,
TMTstop-Control_1_8.xlsx,182:208,2,['2'],2,TMTstop-control_1_8.png,TMTstop-control_1_8firstgreen.png,TMTstop-control_1_8firstred.png,TMT_Control,8,177,0,7,7,7,0,1,1,1,,,,,,,,,,,,,,,2,0,83.07903819999774,None,"['1', '2']",1,"[0.023495000001275912, 0.052239000011468306]",83.07903819999774,None,,001,2022_Apr_29_1051,TMT_fmri,2021.2.3,140.0330758361401,
TMTstop-Control_1_8.xlsx,182:208,3,['3'],3,TMTstop-control_1_8linestimulus0.png,TMTstop-control_1_8greenlinestimulus0.png,TMTstop-control_1_8redlinestimulus0.png,TMT_Control,8,178,0,7,7,7,0,2,2,2,,,,,,,,,,,,,,,1,1,83.24967309998465,None,['3'],1,[-0.019543499976862222],83.24967309998465,None,,001,2022_Apr_29_1051,TMT_fmri,2021.2.3,140.0330758361401,
TMTstop-Control_1_8.xlsx,182:208,4,['2'],2,TMTstop-control_1_8linestimulus1.png,TMTstop-control_1_8greenlinestimulus1.png,TMTstop-control_1_8redlinestimulus1.png,TMT_Control,8,179,0,7,7,7,0,3,3,3,,,,,,,,,,,,,,,2,0,83.32628859998658,None,"['1', '2']",1,"[0.045899399992777035, 0.08127539997803979]",83.32628859998658,None,,001,2022_Apr_29_1051,TMT_fmri,2021.2.3,140.0330758361401,
TMTstop-Control_1_8.xlsx,182:208,5,['1'],1,TMTstop-control_1_8linestimulus2.png,TMTstop-control_1_8greenlinestimulus2.png,TMTstop-control_1_8redlinestimulus2.png,TMT_Control,8,180,0,7,7,7,0,4,4,4,,,,,,,,,,,,,,,2,0,83.51396589999786,None,"['3', '1']",1,"[-0.01649919999181293, 0.11625270001241006]",83.51396589999786,None,,001,2022_Apr_29_1051,TMT_fmri,2021.2.3,140.0330758361401,
TMTstop-Control_1_8.xlsx,182:208,6,['2'],2,TMTstop-control_1_8linestimulus3.png,TMTstop-control_1_8greenlinestimulus3.png,TMTstop-control_1_8redlinestimulus3.png,TMT_Control,8,181,0,7,7,7,0,5,5,5,,,,,,,,,,,,,,,1,1,83.74389280000469,None,['2'],1,[-0.07696070001111366],83.74389280000469,None,,001,2022_Apr_29_1051,TMT_fmri,2021.2.3,140.0330758361401,
TMTstop-Control_1_8.xlsx,182:208,7,['1'],1,TMTstop-control_1_8linestimulus4.png,TMTstop-control_1_8greenlinestimulus4.png,TMTstop-control_1_8redlinestimulus4.png,TMT_Control,8,182,0,7,7,7,0,6,6,6,,,,,,,,,,,,,,,2,0,83.83364930000971,None,"['3', '1']",1,"[-0.07229670000378974, 0.06841449998319149]",83.83364930000971,None,,001,2022_Apr_29_1051,TMT_fmri,2021.2.3,140.0330758361401,
TMTstop-Control_1_8.xlsx,182:208,8,['2'],2,TMTstop-control_1_8linestimulus4.png,TMTstop-control_1_8greenlinestimulus5.png,TMTstop-control_1_8redlinestimulus5.png,TMT_Control,8,183,0,7,7,7,0,7,7,7,,,,,,,,,,,,,,,1,1,84.01460239998414,None,['2'],1,[-0.0784840999986045],84.01460239998414,None,,001,2022_Apr_29_1051,TMT_fmri,2021.2.3,140.0330758361401,
TMTstop-Control_1_8.xlsx,182:208,9,['3'],3,TMTstop-control_1_8linestimulus6.png,TMTstop-control_1_8greenlinestimulus6.png,TMTstop-control_1_8redlinestimulus6.png,TMT_Control,8,184,0,7,7,7,0,8,8,8,,,,,,,,,,,,,,,1,1,84.09695760000614,None,['3'],1,[-0.029744300001766533],84.09695760000614,None,,001,2022_Apr_29_1051,TMT_fmri,2021.2.3,140.0330758361401,
TMTstop-Control_1_8.xlsx,182:208,10,['2'],2,TMTstop-control_1_8linestimulus7.png,TMTstop-control_1_8greenlinestimulus7.png,TMTstop-control_1_8redlinestimulus7.png,TMT_Control,8,185,0,7,7,7,0,9,9,9,,,,,,,,,,,,,,,2,0,84.18011479999404,None,"['1', '2']",1,"[0.06277889999910258, 0.11154559999704361]",84.18011479999404,None,,001,2022_Apr_29_1051,TMT_fmri,2021.2.3,140.0330758361401,
TMTstop-Control_1_8.xlsx,182:208,11,['1'],1,TMTstop-control_1_8linestimulus8.png,TMTstop-control_1_8greenlinestimulus8.png,TMTstop-control_1_8redlinestimulus8.png,TMT_Control,8,186,0,7,7,7,0,10,10,10,,,,,,,,,,,,,,,2,0,84.3817330999882,None,"['3', '1']",1,"[0.047856699995463714, 0.23053050000453368]",84.3817330999882,None,,001,2022_Apr_29_1051,TMT_fmri,2021.2.3,140.0330758361401,
TMTstop-Control_1_8.xlsx,182:208,12,['3'],3,TMTstop-control_1_8linestimulus9.png,TMTstop-control_1_8greenlinestimulus9.png,TMTstop-control_1_8redlinestimulus9.png,TMT_Control,8,187,0,7,7,7,0,11,11,11,,,,,,,,,,,,,,,2,0,84.70812239998486,None,"['2', '3']",1,"[-0.06558960000984371, 0.06036659999517724]",84.70812239998486,None,,001,2022_Apr_29_1051,TMT_fmri,2021.2.3,140.0330758361401,
TMTstop-Control_1_8.xlsx,182:208,13,['1'],1,TMTstop-control_1_8linestimulus10.png,TMTstop-control_1_8greenlinestimulus10.png,TMTstop-control_1_8redlinestimulus10.png,TMT_Control,8,188,0,7,7,7,0,12,12,12,,,,,,,,,,,,,,,1,1,84.9042220999836,None,['1'],1,[0.018981100001838058],84.9042220999836,None,,001,2022_Apr_29_1051,TMT_fmri,2021.2.3,140.0330758361401,
TMTstop-Control_1_8.xlsx,182:208,14,['3'],3,TMTstop-control_1_8linestimulus11.png,TMTstop-control_1_8greenlinestimulus11.png,TMTstop-control_1_8redlinestimulus11.png,TMT_Control,8,189,0,7,7,7,0,13,13,13,,,,,,,,,,,,,,,2,0,85.02080629998818,None,"['2', '3']",1,"[-0.058548000000882894, 0.0676153999811504]",85.02080629998818,None,,001,2022_Apr_29_1051,TMT_fmri,2021.2.3,140.0330758361401,
TMTstop-Control_1_8.xlsx,182:208,15,['1'],1,TMTstop-control_1_8linestimulus12.png,TMTstop-control_1_8greenlinestimulus12.png,TMTstop-control_1_8redlinestimulus12.png,TMT_Control,8,190,0,7,7,7,0,14,14,14,,,,,,,,,,,,,,,1,1,85.20157149998704,None,['1'],1,[0.040561200003139675],85.20157149998704,None,,001,2022_Apr_29_1051,TMT_fmri,2021.2.3,140.0330758361401,
TMTstop-Control_1_8.xlsx,182:208,16,['3'],3,TMTstop-control_1_8linestimulus13.png,TMTstop-control_1_8greenlinestimulus13.png,TMTstop-control_1_8redlinestimulus13.png,TMT_Control,8,191,0,7,7,7,0,15,15,15,,,,,,,,,,,,,,,2,0,85.31956010000431,None,"['2', '3']",1,"[-0.046752800000831485, 0.08651170000666752]",85.31956010000431,None,,001,2022_Apr_29_1051,TMT_fmri,2021.2.3,140.0330758361401,
TMTstop-Control_1_8.xlsx,182:208,17,['1'],1,TMTstop-control_1_8linestimulus14.png,TMTstop-control_1_8greenlinestimulus14.png,TMTstop-control_1_8redlinestimulus14.png,TMT_Control,8,192,0,7,7,7,0,16,16,16,,,,,,,,,,,,,,,1,1,85.49268120000488,None,['1'],1,[0.06370440000318922],85.49268120000488,None,,001,2022_Apr_29_1051,TMT_fmri,2021.2.3,140.0330758361401,
TMTstop-Control_1_8.xlsx,182:208,18,['2'],2,TMTstop-control_1_8linestimulus15.png,TMTstop-control_1_8greenlinestimulus15.png,TMTstop-control_1_8redlinestimulus15.png,TMT_Control,8,193,0,7,7,7,0,17,17,17,,,,,,,,,,,,,,,1,1,85.64596749999328,None,['2'],1,[-0.034861599997384474],85.64596749999328,None,,001,2022_Apr_29_1051,TMT_fmri,2021.2.3,140.0330758361401,
TMTstop-Control_1_8.xlsx,182:208,19,['1'],1,TMTstop-control_1_8linestimulus16.png,TMTstop-control_1_8greenlinestimulus16.png,TMTstop-control_1_8redlinestimulus16.png,TMT_Control,8,194,0,7,7,7,0,18,18,18,,,,,,,,,,,,,,,2,0,85.72891279999749,None,"['3', '1']",1,"[0.018736700003501028, 0.17054540000390261]",85.72891279999749,None,,001,2022_Apr_29_1051,TMT_fmri,2021.2.3,140.0330758361401,
TMTstop-Control_1_8.xlsx,182:208,20,['3'],3,TMTstop-control_1_8linestimulus17.png,TMTstop-control_1_8greenlinestimulus17.png,TMTstop-control_1_8redlinestimulus17.png,TMT_Control,8,195,0,7,7,7,0,19,19,19,,,,,,,,,,,,,,,2,0,86.00871299998835,None,"['2', '3']",1,"[-0.07298260001698509, 0.07029319999855943]",86.00871299998835,None,,001,2022_Apr_29_1051,TMT_fmri,2021.2.3,140.0330758361401,
TMTstop-Control_1_8.xlsx,182:208,21,['2'],2,TMTstop-control_1_8linestimulus18.png,TMTstop-control_1_8greenlinestimulus18.png,TMTstop-control_1_8redlinestimulus18.png,TMT_Control,8,196,0,7,7,7,0,20,20,20,,,,,,,,,,,,,,,2,0,86.19409730000189,None,"['1', '2']",1,"[0.04150839999783784, 0.08711069999844767]",86.19409730000189,None,,001,2022_Apr_29_1051,TMT_fmri,2021.2.3,140.0330758361401,
TMTstop-Control_1_8.xlsx,182:208,22,['3'],3,TMTstop-control_1_8linestimulus19.png,TMTstop-control_1_8greenlinestimulus19.png,TMTstop-control_1_8redlinestimulus19.png,TMT_Control,8,197,0,7,7,7,0,21,21,21,,,,,,,,,,,,,,,1,1,86.36783619999187,None,['3'],1,[0.040085400018142536],86.36783619999187,None,,001,2022_Apr_29_1051,TMT_fmri,2021.2.3,140.0330758361401,
TMTstop-Control_1_8.xlsx,182:208,23,['1'],1,TMTstop-control_1_8linestimulus20.png,TMTstop-control_1_8greenlinestimulus20.png,TMTstop-control_1_8redlinestimulus20.png,TMT_Control,8,198,0,7,7,7,0,22,22,22,,,,,,,,,,,,,,,1,1,86.49620600001072,None,['1'],1,[0.07108709999010898],86.49620600001072,None,,001,2022_Apr_29_1051,TMT_fmri,2021.2.3,140.0330758361401,
TMTstop-Control_1_8.xlsx,182:208,24,['2'],2,TMTstop-control_1_8linestimulus21.png,TMTstop-control_1_8greenlinestimulus21.png,TMTstop-control_1_8redlinestimulus21.png,TMT_Control,8,199,0,7,7,7,0,23,23,23,,,,,,,,,,,,,,,1,1,86.65249109998695,None,['2'],1,[-0.05550940000102855],86.65249109998695,None,,001,2022_Apr_29_1051,TMT_fmri,2021.2.3,140.0330758361401,
TMTstop-Control_1_8.xlsx,182:208,25,['3'],3,TMTstop-control_1_8linestimulus22.png,TMTstop-control_1_8greenlinestimulus22.png,TMTstop-control_1_8redlinestimulus22.png,TMT_Control,8,200,0,7,7,7,0,24,24,24,,,,,,,,,,,,,,,1,1,86.73543949998566,None,['3'],1,[0.016576699999859557],86.73543949998566,None,,001,2022_Apr_29_1051,TMT_fmri,2021.2.3,140.0330758361401,
TMTstop-Control_1_8.xlsx,182:208,None,None,None,TMTstop-control_1_8linestimulus23.png,TMTstop-control_1_8greenlinestimulus23.png,TMTstop-control_1_8redlinestimulus23.png,TMT_Control,8,Feedback_last,0,7,7,7,0,25,25,25,,,,,,,,,,,,,,,3,0,86.8478441000043,None,"['1', '2', '3']",0,"[0.04503949999343604, 0.10045060000265948, 0.22494769998593256]",86.8478441000043,None,,001,2022_Apr_29_1051,TMT_fmri,2021.2.3,140.0330758361401,
TMTstop-A_1_1.xlsx,0:26,1,['1'],1,TMTstop-A_1_1.png,TMTstop-A_1_1.png,TMTstop-A_1_1.png,TMT_A,1,1,,,,,,,,,0,0,0,0,0,0,0,0,,,,,,,1,1,101.10525639998377,None,['1'],1,[3.36424180000904],101.10525639998377,None,,001,2022_Apr_29_1051,TMT_fmri,2021.2.3,140.0330758361401,
TMTstop-A_1_1.xlsx,0:26,2,['3'],3,TMTstop-A_1_1.png,TMTstop-A_1_1firstgreen.png,TMTstop-A_1_1firstred.png,TMT_A,1,2,,,,,,,,,0,0,0,0,0,1,1,1,,,,,,,2,0,104.59685450000688,None,"['2', '3']",1,"[0.1187760999891907, 0.5528416000015568]",104.59685450000688,None,,001,2022_Apr_29_1051,TMT_fmri,2021.2.3,140.0330758361401,
TMTstop-A_1_1.xlsx,0:26,3,['1'],1,TMTstop-A_1_1linestimulus0.png,TMTstop-A_1_1greenlinestimulus0.png,TMTstop-A_1_1redlinestimulus0.png,TMT_A,1,3,,,,,,,,,0,0,0,0,0,2,2,2,,,,,,,4,0,105.27944389998447,None,"['3', '3', '3', '1']",1,"[0.0702154999889899, 0.25126789999194443, 0.446118399995612, 0.6374026999983471]",105.27944389998447,None,,001,2022_Apr_29_1051,TMT_fmri,2021.2.3,140.0330758361401,
TMTstop-A_1_1.xlsx,0:26,4,['3'],3,TMTstop-A_1_1linestimulus1.png,TMTstop-A_1_1greenlinestimulus1.png,TMTstop-A_1_1redlinestimulus1.png,TMT_A,1,4,,,,,,,,,0,0,0,0,0,3,3,3,,,,,,,2,0,106.02815609998652,None,"['2', '3']",1,"[0.08255089999875054, 0.08772879999014549]",106.02815609998652,None,,001,2022_Apr_29_1051,TMT_fmri,2021.2.3,140.0330758361401,
TMTstop-A_1_1.xlsx,0:26,5,['1'],1,TMTstop-A_1_1linestimulus2.png,TMTstop-A_1_1greenlinestimulus2.png,TMTstop-A_1_1redlinestimulus2.png,TMT_A,1,5,,,,,,,,,0,0,0,0,0,4,4,4,,,,,,,1,1,106.24204819998704,None,['1'],1,[0.02150699999765493],106.24204819998704,None,,001,2022_Apr_29_1051,TMT_fmri,2021.2.3,140.0330758361401,
TMTstop-A_1_1.xlsx,0:26,6,['3'],3,TMTstop-A_1_1linestimulus3.png,TMTstop-A_1_1greenlinestimulus3.png,TMTstop-A_1_1redlinestimulus3.png,TMT_A,1,6,,,,,,,,,0,0,0,0,0,5,5,5,,,,,,,1,1,106.36287340000854,None,['3'],1,[0.05826079999678768],106.36287340000854,None,,001,2022_Apr_29_1051,TMT_fmri,2021.2.3,140.0330758361401,
TMTstop-A_1_1.xlsx,0:26,7,['1'],1,TMTstop-A_1_1linestimulus4.png,TMTstop-A_1_1greenlinestimulus4.png,TMTstop-A_1_1redlinestimulus4.png,TMT_A,1,7,,,,,,,,,0,0,0,0,0,6,6,6,,,,,,,2,0,106.52713850000873,None,"['2', '1']",1,"[-0.0702408000070136, 0.04486300001735799]",106.52713850000873,None,,001,2022_Apr_29_1051,TMT_fmri,2021.2.3,140.0330758361401,
TMTstop-A_1_1.xlsx,0:26,8,['2'],2,TMTstop-A_1_1linestimulus5.png,TMTstop-A_1_1greenlinestimulus5.png,TMTstop-A_1_1redlinestimulus5.png,TMT_A,1,8,,,,,,,,,0,0,0,0,0,7,7,7,,,,,,,2,0,106.66634950001026,None,"['3', '2']",1,"[0.04715480000595562, 0.05127639998681843]",106.66634950001026,None,,001,2022_Apr_29_1051,TMT_fmri,2021.2.3,140.0330758361401,
TMTstop-A_1_1.xlsx,0:26,9,['3'],3,TMTstop-A_1_1linestimulus6.png,TMTstop-A_1_1greenlinestimulus6.png,TMTstop-A_1_1redlinestimulus6.png,TMT_A,1,9,,,,,,,,,0,0,0,0,0,8,8,8,,,,,,,5,0,106.81147899999633,None,"['1', '3', '2', '1', '3']",1,"[0.04828980000456795, 0.2127223999996204, 0.2311995000054594, 0.39958220001426525, 0.5486694000137504]",106.81147899999633,None,,001,2022_Apr_29_1051,TMT_fmri,2021.2.3,140.0330758361401,
TMTstop-A_1_1.xlsx,0:26,10,['1'],1,TMTstop-A_1_1linestimulus7.png,TMTstop-A_1_1greenlinestimulus7.png,TMTstop-A_1_1redlinestimulus7.png,TMT_A,1,10,,,,,,,,,0,0,0,0,0,9,9,9,,,,,,,2,0,107.47965309998835,None,"['2', '1']",1,"[-0.11499500001082197, 0.04477839998435229]",107.47965309998835,None,,001,2022_Apr_29_1051,TMT_fmri,2021.2.3,140.0330758361401,
TMTstop-A_1_1.xlsx,0:26,11,['3'],3,TMTstop-A_1_1linestimulus8.png,TMTstop-A_1_1greenlinestimulus8.png,TMTstop-A_1_1redlinestimulus8.png,TMT_A,1,11,,,,,,,,,0,0,0,0,0,10,10,10,,,,,,,1,1,107.618321499991,None,['3'],1,[0.04402709999703802],107.618321499991,None,,001,2022_Apr_29_1051,TMT_fmri,2021.2.3,140.0330758361401,
TMTstop-A_1_1.xlsx,0:26,12,['2'],2,TMTstop-A_1_1linestimulus9.png,TMTstop-A_1_1greenlinestimulus9.png,TMTstop-A_1_1redlinestimulus9.png,TMT_A,1,12,,,,,,,,,0,0,0,0,0,11,11,11,,,,,,,1,1,107.75596149999183,None,['2'],1,[-0.07458730001235381],107.75596149999183,None,,001,2022_Apr_29_1051,TMT_fmri,2021.2.3,140.0330758361401,
TMTstop-A_1_1.xlsx,0:26,13,['1'],1,TMTstop-A_1_1linestimulus10.png,TMTstop-A_1_1greenlinestimulus10.png,TMTstop-A_1_1redlinestimulus10.png,TMT_A,1,13,,,,,,,,,0,0,0,0,0,12,12,12,,,,,,,1,1,107.88840970001183,None,['1'],1,[-0.03400690000853501],107.88840970001183,None,,001,2022_Apr_29_1051,TMT_fmri,2021.2.3,140.0330758361401,
TMTstop-A_1_1.xlsx,0:26,14,['2'],2,TMTstop-A_1_1linestimulus11.png,TMTstop-A_1_1greenlinestimulus11.png,TMTstop-A_1_1redlinestimulus11.png,TMT_A,1,14,,,,,,,,,0,0,0,0,0,13,13,13,,,,,,,2,0,107.97875680000288,None,"['3', '2']",1,"[-0.0011088000028394163, 0.01712599999154918]",107.97875680000288,None,,001,2022_Apr_29_1051,TMT_fmri,2021.2.3,140.0330758361401,
TMTstop-A_1_1.xlsx,0:26,15,['1'],1,TMTstop-A_1_1linestimulus12.png,TMTstop-A_1_1greenlinestimulus12.png,TMTstop-A_1_1redlinestimulus12.png,TMT_A,1,15,,,,,,,,,0,0,0,0,0,14,14,14,,,,,,,1,1,108.10345170000801,None,['1'],1,[0.07778979997965507],108.10345170000801,None,,001,2022_Apr_29_1051,TMT_fmri,2021.2.3,140.0330758361401,
TMTstop-A_1_1.xlsx,0:26,16,['2'],2,TMTstop-A_1_1linestimulus13.png,TMTstop-A_1_1greenlinestimulus13.png,TMTstop-A_1_1redlinestimulus13.png,TMT_A,1,16,,,,,,,,,0,0,0,0,0,15,15,15,,,,,,,2,0,108.2706906000094,None,"['3', '2']",1,"[0.03834989998722449, 0.06533990000025369]",108.2706906000094,None,,001,2022_Apr_29_1051,TMT_fmri,2021.2.3,140.0330758361401,
TMTstop-A_1_1.xlsx,0:26,17,['1'],1,TMTstop-A_1_1linestimulus14.png,TMTstop-A_1_1greenlinestimulus14.png,TMTstop-A_1_1redlinestimulus14.png,TMT_A,1,17,,,,,,,,,0,0,0,0,0,16,16,16,,,,,,,1,1,108.45875990000786,None,['1'],1,[0.04131329999654554],108.45875990000786,None,,001,2022_Apr_29_1051,TMT_fmri,2021.2.3,140.0330758361401,
TMTstop-A_1_1.xlsx,0:26,18,['3'],3,TMTstop-A_1_1linestimulus15.png,TMTstop-A_1_1greenlinestimulus15.png,TMTstop-A_1_1redlinestimulus15.png,TMT_A,1,18,,,,,,,,,0,0,0,0,0,17,17,17,,,,,,,10,0,108.59665640001185,None,"['3', '2', '1', '3', '2', '1', '3', '2', '1', '3']",1,"[0.028554299991810694, 0.03794209999614395, 0.2053760999988299, 0.3502448999788612, 0.36024549999274313, 0.5308060999959707, 0.6863754999940284, 0.6945925999898463, 0.8944765999913216, 1.0824676999764051]",108.59665640001185,None,,001,2022_Apr_29_1051,TMT_fmri,2021.2.3,140.0330758361401,
TMTstop-A_1_1.xlsx,0:26,19,['2'],2,TMTstop-A_1_1linestimulus16.png,TMTstop-A_1_1greenlinestimulus16.png,TMTstop-A_1_1redlinestimulus16.png,TMT_A,1,19,,,,,,,,,0,0,0,0,0,18,18,18,,,,,,,2,0,109.81183520000195,None,"['3', '2']",1,"[0.2841313000244554, 0.37127900001360103]",109.81183520000195,None,,001,2022_Apr_29_1051,TMT_fmri,2021.2.3,140.0330758361401,
TMTstop-A_1_1.xlsx,0:26,20,['3'],3,TMTstop-A_1_1linestimulus17.png,TMTstop-A_1_1greenlinestimulus17.png,TMTstop-A_1_1redlinestimulus17.png,TMT_A,1,20,,,,,,,,,0,0,0,0,0,19,19,19,,,,,,,8,0,110.29065660000197,None,"['1', '3', '2', '1', '3', '2', '1', '3']",1,"[0.0018352000042796135, 0.1835709000006318, 0.20585210001445375, 0.37657839999883436, 0.4996470999903977, 0.524183700006688, 0.6838451999938115, 0.8034474999876693]",110.29065660000197,None,,001,2022_Apr_29_1051,TMT_fmri,2021.2.3,140.0330758361401,
TMTstop-A_1_1.xlsx,0:26,21,['1'],1,TMTstop-A_1_1linestimulus18.png,TMTstop-A_1_1greenlinestimulus18.png,TMTstop-A_1_1redlinestimulus18.png,TMT_A,1,21,,,,,,,,,0,0,0,0,0,20,20,20,,,,,,,1,1,111.19337819999782,None,['1'],1,[0.7710266999783926],111.19337819999782,None,,001,2022_Apr_29_1051,TMT_fmri,2021.2.3,140.0330758361401,
TMTstop-A_1_1.xlsx,0:26,22,['3'],3,TMTstop-A_1_1linestimulus19.png,TMTstop-A_1_1greenlinestimulus19.png,TMTstop-A_1_1redlinestimulus19.png,TMT_A,1,22,,,,,,,,,0,0,0,0,0,21,21,21,,,,,,,2,0,112.06993110000622,None,"['2', '3']",1,"[0.001668699987931177, 0.09582320001209155]",112.06993110000622,None,,001,2022_Apr_29_1051,TMT_fmri,2021.2.3,140.0330758361401,
TMTstop-A_1_1.xlsx,0:26,23,['1'],1,TMTstop-A_1_1linestimulus20.png,TMTstop-A_1_1greenlinestimulus20.png,TMTstop-A_1_1redlinestimulus20.png,TMT_A,1,23,,,,,,,,,0,0,0,0,0,22,22,22,,,,,,,1,1,112.29920919999131,None,['1'],1,[0.022826000000350177],112.29920919999131,None,,001,2022_Apr_29_1051,TMT_fmri,2021.2.3,140.0330758361401,
TMTstop-A_1_1.xlsx,0:26,24,['3'],3,TMTstop-A_1_1linestimulus21.png,TMTstop-A_1_1greenlinestimulus21.png,TMTstop-A_1_1redlinestimulus21.png,TMT_A,1,24,,,,,,,,,0,0,0,0,0,23,23,23,,,,,,,2,0,112.41096229999675,None,"['2', '3']",1,"[-0.027552900020964444, 0.11355349997757003]",112.41096229999675,None,,001,2022_Apr_29_1051,TMT_fmri,2021.2.3,140.0330758361401,
TMTstop-A_1_1.xlsx,0:26,25,['1'],1,TMTstop-A_1_1linestimulus22.png,TMTstop-A_1_1greenlinestimulus22.png,TMTstop-A_1_1redlinestimulus22.png,TMT_A,1,25,,,,,,,,,0,0,0,0,0,24,24,24,,,,,,,1,1,112.6589060999977,None,['1'],1,[0.012645899987546727],112.6589060999977,None,,001,2022_Apr_29_1051,TMT_fmri,2021.2.3,140.0330758361401,
TMTstop-A_1_1.xlsx,0:26,None,None,None,TMTstop-A_1_1linestimulus23.png,TMTstop-A_1_1greenlinestimulus23.png,TMTstop-A_1_1redlinestimulus23.png,TMT_A,1,Feedback_last,,,,,,,,,0,0,0,0,0,25,25,25,,,,,,,5,0,112.76384390000021,None,"['2', '3', '1', '2', '3']",0,"[-0.039193600008729845, 0.06615420000161976, 0.21044649998657405, 0.2497323999996297, 0.37463939998997375]",112.76384390000021,None,,001,2022_Apr_29_1051,TMT_fmri,2021.2.3,140.0330758361401,
TMTstop-A_1_2.xlsx,26:52,1,['1'],1,TMTstop-A_1_2.png,TMTstop-A_1_2.png,TMTstop-A_1_2.png,TMT_A,2,26,,,,,,,,,0,1,1,1,0,0,0,0,,,,,,,1,1,116.91505899999174,None,['1'],1,[0.6453283999871928],116.91505899999174,None,,001,2022_Apr_29_1051,TMT_fmri,2021.2.3,140.0330758361401,
TMTstop-A_1_2.xlsx,26:52,2,['3'],3,TMTstop-A_1_2.png,TMTstop-A_1_2firstgreen.png,TMTstop-A_1_2firstred.png,TMT_A,2,27,,,,,,,,,0,1,1,1,0,1,1,1,,,,,,,2,0,117.7026818000013,None,"['2', '3']",1,"[-0.08564969999133609, 0.028262700012419373]",117.7026818000013,None,,001,2022_Apr_29_1051,TMT_fmri,2021.2.3,140.0330758361401,
TMTstop-A_1_2.xlsx,26:52,3,['1'],1,TMTstop-A_1_2linestimulus0.png,TMTstop-A_1_2greenlinestimulus0.png,TMTstop-A_1_2redlinestimulus0.png,TMT_A,2,28,,,,,,,,,0,1,1,1,0,2,2,2,,,,,,,1,1,117.84615989998565,None,['1'],1,[0.05107940000016242],117.84615989998565,None,,001,2022_Apr_29_1051,TMT_fmri,2021.2.3,140.0330758361401,
TMTstop-A_1_2.xlsx,26:52,4,['2'],2,TMTstop-A_1_2linestimulus1.png,TMTstop-A_1_2greenlinestimulus1.png,TMTstop-A_1_2redlinestimulus1.png,TMT_A,2,29,,,,,,,,,0,1,1,1,0,3,3,3,,,,,,,1,1,117.98654459998943,None,['2'],1,[-0.03217030002269894],117.98654459998943,None,,001,2022_Apr_29_1051,TMT_fmri,2021.2.3,140.0330758361401,
TMTstop-A_1_2.xlsx,26:52,5,['1'],1,TMTstop-A_1_2linestimulus2.png,TMTstop-A_1_2greenlinestimulus2.png,TMTstop-A_1_2redlinestimulus2.png,TMT_A,2,30,,,,,,,,,0,1,1,1,0,4,4,4,,,,,,,2,0,118.07565059998888,None,"['3', '1']",1,"[-0.00967500000842847, 0.1261633999820333]",118.07565059998888,None,,001,2022_Apr_29_1051,TMT_fmri,2021.2.3,140.0330758361401,
TMTstop-A_1_2.xlsx,26:52,6,['3'],3,TMTstop-A_1_2linestimulus3.png,TMTstop-A_1_2greenlinestimulus3.png,TMTstop-A_1_2redlinestimulus3.png,TMT_A,2,31,,,,,,,,,0,1,1,1,0,5,5,5,,,,,,,2,0,118.30488819998573,None,"['2', '3']",1,"[-0.0441078000003472, 0.06424890001653694]",118.30488819998573,None,,001,2022_Apr_29_1051,TMT_fmri,2021.2.3,140.0330758361401,
TMTstop-A_1_2.xlsx,26:52,7,['2'],2,TMTstop-A_1_2linestimulus4.png,TMTstop-A_1_2greenlinestimulus4.png,TMTstop-A_1_2redlinestimulus4.png,TMT_A,2,32,,,,,,,,,0,1,1,1,0,6,6,6,,,,,,,1,1,118.48542630000156,None,['2'],1,[0.09330100001534447],118.48542630000156,None,,001,2022_Apr_29_1051,TMT_fmri,2021.2.3,140.0330758361401,
,,,,,,,,,,,,,,,,,,,,,,,,,,,,,,,,,1,1,,,,,,,,,,,,,,
