Block_file,Condition_rows,NumberLetter,corrAns,Correct,StimFile,Correct_StimFile,False_StimFile,Version,Block,TrialNumber_session,Blocks_TMTControl.thisRepN,Blocks_TMTControl.thisTrialN,Blocks_TMTControl.thisN,Blocks_TMTControl.thisIndex,trials_TMTControl.thisRepN,trials_TMTControl.thisTrialN,trials_TMTControl.thisN,trials_TMTControl.thisIndex,Blocks_TMTA.thisRepN,Blocks_TMTA.thisTrialN,Blocks_TMTA.thisN,Blocks_TMTA.thisIndex,trials_TMTA.thisRepN,trials_TMTA.thisTrialN,trials_TMTA.thisN,trials_TMTA.thisIndex,Blocks_TMTB.thisRepN,Blocks_TMTB.thisTrialN,Blocks_TMTB.thisN,Blocks_TMTB.thisIndex,trials_TMTB.thisRepN,trials_TMTB.thisTrialN,trials_TMTB.thisN,trials_TMTB.thisIndex,Attempts,First_attempt,Stim.started,Stim.stopped,key_resp_2.keys,key_resp_2.corr,key_resp_2.rt,key_resp_2.started,key_resp_2.stopped,participant,session,date,expName,psychopyVersion,frameRate,
TMTstop-Control_1_1.xlsx,0:26,1,['2'],2,TMTstop-control_1_1.png,TMTstop-control_1_1.png,TMTstop-control_1_1.png,TMT_Control,1,1,0,0,0,0,0,0,0,0,,,,,,,,,,,,,,,,,1,1,12.808165499998722,None,['2'],1,[2.0049128999962704],12.808165499998722,None,,001,2022_Mar_30_1524,TMT_fmri,2021.2.3,143.55976535962884,
TMTstop-Control_1_1.xlsx,0:26,2,['1'],1,TMTstop-control_1_1.png,TMTstop-control_1_1firstgreen.png,TMTstop-control_1_1firstred.png,TMT_Control,1,2,0,0,0,0,0,1,1,1,,,,,,,,,,,,,,,,,2,0,14.884760500004631,None,"['3', '1']",1,"[0.436950599992997, 2.0201146000035806]",14.884760500004631,None,,001,2022_Mar_30_1524,TMT_fmri,2021.2.3,143.55976535962884,
TMTstop-Control_1_1.xlsx,0:26,3,['3'],3,TMTstop-control_1_1linestimulus0.png,TMTstop-control_1_1greenlinestimulus0.png,TMTstop-control_1_1redlinestimulus0.png,TMT_Control,1,3,0,0,0,0,0,2,2,2,,,,,,,,,,,,,,,,,1,1,17.002497599998605,None,['3'],1,[0.6952503000065917],17.002497599998605,None,,001,2022_Mar_30_1524,TMT_fmri,2021.2.3,143.55976535962884,
TMTstop-Control_1_1.xlsx,0:26,4,['1'],1,TMTstop-control_1_1linestimulus1.png,TMTstop-control_1_1greenlinestimulus1.png,TMTstop-control_1_1redlinestimulus1.png,TMT_Control,1,4,0,0,0,0,0,3,3,3,,,,,,,,,,,,,,,,,1,1,17.780727000004845,None,['1'],1,[0.34661659999983385],17.780727000004845,None,,001,2022_Mar_30_1524,TMT_fmri,2021.2.3,143.55976535962884,
TMTstop-Control_1_1.xlsx,0:26,5,['3'],3,TMTstop-control_1_1linestimulus2.png,TMTstop-control_1_1greenlinestimulus2.png,TMTstop-control_1_1redlinestimulus2.png,TMT_Control,1,5,0,0,0,0,0,4,4,4,,,,,,,,,,,,,,,,,1,1,18.203866600000765,None,['3'],1,[0.29987629999232013],18.203866600000765,None,,001,2022_Mar_30_1524,TMT_fmri,2021.2.3,143.55976535962884,
TMTstop-Control_1_1.xlsx,0:26,6,['1'],1,TMTstop-control_1_1linestimulus3.png,TMTstop-control_1_1greenlinestimulus3.png,TMTstop-control_1_1redlinestimulus3.png,TMT_Control,1,6,0,0,0,0,0,5,5,5,,,,,,,,,,,,,,,,,1,1,18.5788373999967,None,['1'],1,[0.2559103999956278],18.5788373999967,None,,001,2022_Mar_30_1524,TMT_fmri,2021.2.3,143.55976535962884,
TMTstop-Control_1_1.xlsx,0:26,7,['2'],2,TMTstop-control_1_1linestimulus4.png,TMTstop-control_1_1greenlinestimulus4.png,TMTstop-control_1_1redlinestimulus4.png,TMT_Control,1,7,0,0,0,0,0,6,6,6,,,,,,,,,,,,,,,,,1,1,18.91232590000436,None,['2'],1,[0.5441398999973899],18.91232590000436,None,,001,2022_Mar_30_1524,TMT_fmri,2021.2.3,143.55976535962884,
TMTstop-Control_1_1.xlsx,0:26,8,['1'],1,TMTstop-control_1_1linestimulus4.png,TMTstop-control_1_1greenlinestimulus5.png,TMTstop-control_1_1redlinestimulus5.png,TMT_Control,1,8,0,0,0,0,0,7,7,7,,,,,,,,,,,,,,,,,2,0,19.53728950000368,None,"['3', '1']",1,"[0.3655977000016719, 0.6374357000022428]",19.53728950000368,None,,001,2022_Mar_30_1524,TMT_fmri,2021.2.3,143.55976535962884,
TMTstop-Control_1_1.xlsx,0:26,9,['3'],3,TMTstop-control_1_1linestimulus6.png,TMTstop-control_1_1greenlinestimulus6.png,TMTstop-control_1_1redlinestimulus6.png,TMT_Control,1,9,0,0,0,0,0,8,8,8,,,,,,,,,,,,,,,,,2,0,20.27343070000643,None,"['2', '3']",1,"[0.010572600003797561, 0.09583190000557806]",20.27343070000643,None,,001,2022_Mar_30_1524,TMT_fmri,2021.2.3,143.55976535962884,
TMTstop-Control_1_1.xlsx,0:26,10,['2'],2,TMTstop-control_1_1linestimulus7.png,TMTstop-control_1_1greenlinestimulus7.png,TMTstop-control_1_1redlinestimulus7.png,TMT_Control,1,10,0,0,0,0,0,9,9,9,,,,,,,,,,,,,,,,,2,0,20.447503899995354,None,"['1', '2']",1,"[0.037907399993855506, 0.11114689998794347]",20.447503899995354,None,,001,2022_Mar_30_1524,TMT_fmri,2021.2.3,143.55976535962884,
TMTstop-Control_1_1.xlsx,0:26,11,['1'],1,TMTstop-control_1_1linestimulus8.png,TMTstop-control_1_1greenlinestimulus8.png,TMTstop-control_1_1redlinestimulus8.png,TMT_Control,1,11,0,0,0,0,0,10,10,10,,,,,,,,,,,,,,,,,2,0,20.641780799996923,None,"['3', '1']",1,"[-0.0004741000011563301, 0.11855559999821708]",20.641780799996923,None,,001,2022_Mar_30_1524,TMT_fmri,2021.2.3,143.55976535962884,
TMTstop-Control_1_1.xlsx,0:26,12,['2'],2,TMTstop-control_1_1linestimulus9.png,TMTstop-control_1_1greenlinestimulus9.png,TMTstop-control_1_1redlinestimulus9.png,TMT_Control,1,12,0,0,0,0,0,11,11,11,,,,,,,,,,,,,,,,,1,1,20.842777900004876,None,['2'],1,[-0.04456719999143388],20.842777900004876,None,,001,2022_Mar_30_1524,TMT_fmri,2021.2.3,143.55976535962884,
TMTstop-Control_1_1.xlsx,0:26,13,['3'],3,TMTstop-control_1_1linestimulus10.png,TMTstop-control_1_1greenlinestimulus10.png,TMTstop-control_1_1redlinestimulus10.png,TMT_Control,1,13,0,0,0,0,0,12,12,12,,,,,,,,,,,,,,,,,1,1,20.925996300007682,None,['3'],1,[-0.03152780000527855],20.925996300007682,None,,001,2022_Mar_30_1524,TMT_fmri,2021.2.3,143.55976535962884,
TMTstop-Control_1_1.xlsx,0:26,14,['2'],2,TMTstop-control_1_1linestimulus11.png,TMTstop-control_1_1greenlinestimulus11.png,TMTstop-control_1_1redlinestimulus11.png,TMT_Control,1,14,0,0,0,0,0,13,13,13,,,,,,,,,,,,,,,,,2,0,21.00318939999852,None,"['1', '2']",1,"[0.0009662000084063038, 0.05120360000000801]",21.00318939999852,None,,001,2022_Mar_30_1524,TMT_fmri,2021.2.3,143.55976535962884,
TMTstop-Control_1_1.xlsx,0:26,15,['3'],3,TMTstop-control_1_1linestimulus12.png,TMTstop-control_1_1greenlinestimulus12.png,TMTstop-control_1_1redlinestimulus12.png,TMT_Control,1,15,0,0,0,0,0,14,14,14,,,,,,,,,,,,,,,,,1,1,21.162553799993475,None,['3'],1,[-0.03553439999814145],21.162553799993475,None,,001,2022_Mar_30_1524,TMT_fmri,2021.2.3,143.55976535962884,
TMTstop-Control_1_1.xlsx,0:26,16,['2'],2,TMTstop-control_1_1linestimulus13.png,TMTstop-control_1_1greenlinestimulus13.png,TMTstop-control_1_1redlinestimulus13.png,TMT_Control,1,16,0,0,0,0,0,15,15,15,,,,,,,,,,,,,,,,,2,0,21.27420400000119,None,"['1', '2']",1,"[-0.030355900002177805, 0.0011101999989477918]",21.27420400000119,None,,001,2022_Mar_30_1524,TMT_fmri,2021.2.3,143.55976535962884,
TMTstop-Control_1_1.xlsx,0:26,17,['3'],3,TMTstop-control_1_1linestimulus14.png,TMTstop-control_1_1greenlinestimulus14.png,TMTstop-control_1_1redlinestimulus14.png,TMT_Control,1,17,0,0,0,0,0,16,16,16,,,,,,,,,,,,,,,,,1,1,21.350177300002542,None,['3'],1,[0.016807599997264333],21.350177300002542,None,,001,2022_Mar_30_1524,TMT_fmri,2021.2.3,143.55976535962884,
TMTstop-Control_1_1.xlsx,0:26,18,['2'],2,TMTstop-control_1_1linestimulus15.png,TMTstop-control_1_1greenlinestimulus15.png,TMTstop-control_1_1redlinestimulus15.png,TMT_Control,1,18,0,0,0,0,0,17,17,17,,,,,,,,,,,,,,,,,2,0,21.45425609999802,None,"['1', '2']",1,"[0.03810649999650195, 0.09151399999973364]",21.45425609999802,None,,001,2022_Mar_30_1524,TMT_fmri,2021.2.3,143.55976535962884,
TMTstop-Control_1_1.xlsx,0:26,19,['1'],1,TMTstop-control_1_1linestimulus16.png,TMTstop-control_1_1greenlinestimulus16.png,TMTstop-control_1_1redlinestimulus16.png,TMT_Control,1,19,0,0,0,0,0,18,18,18,,,,,,,,,,,,,,,,,2,0,21.6415893999947,None,"['3', '1']",1,"[-0.0032543999986955896, 0.11584610000136308]",21.6415893999947,None,,001,2022_Mar_30_1524,TMT_fmri,2021.2.3,143.55976535962884,
TMTstop-Control_1_1.xlsx,0:26,20,['3'],3,TMTstop-control_1_1linestimulus17.png,TMTstop-control_1_1greenlinestimulus17.png,TMTstop-control_1_1redlinestimulus17.png,TMT_Control,1,20,0,0,0,0,0,19,19,19,,,,,,,,,,,,,,,,,2,0,21.842953600003966,None,"['2', '3']",1,"[-0.0234403999929782, 0.05912610000814311]",21.842953600003966,None,,001,2022_Mar_30_1524,TMT_fmri,2021.2.3,143.55976535962884,
TMTstop-Control_1_1.xlsx,0:26,21,['1'],1,TMTstop-control_1_1linestimulus18.png,TMTstop-control_1_1greenlinestimulus18.png,TMTstop-control_1_1redlinestimulus18.png,TMT_Control,1,21,0,0,0,0,0,20,20,20,,,,,,,,,,,,,,,,,1,1,21.995719099999405,None,['1'],1,[0.02190709998831153],21.995719099999405,None,,001,2022_Mar_30_1524,TMT_fmri,2021.2.3,143.55976535962884,
TMTstop-Control_1_1.xlsx,0:26,22,['2'],2,TMTstop-control_1_1linestimulus19.png,TMTstop-control_1_1greenlinestimulus19.png,TMTstop-control_1_1redlinestimulus19.png,TMT_Control,1,22,0,0,0,0,0,21,21,21,,,,,,,,,,,,,,,,,1,1,22.09271080000326,None,['2'],1,[-0.011253100004978478],22.09271080000326,None,,001,2022_Mar_30_1524,TMT_fmri,2021.2.3,143.55976535962884,
TMTstop-Control_1_1.xlsx,0:26,23,['3'],3,TMTstop-control_1_1linestimulus20.png,TMTstop-control_1_1greenlinestimulus20.png,TMTstop-control_1_1redlinestimulus20.png,TMT_Control,1,23,0,0,0,0,0,22,22,22,,,,,,,,,,,,,,,,,1,1,22.168995800006087,None,['3'],1,[-0.014777699994738214],22.168995800006087,None,,001,2022_Mar_30_1524,TMT_fmri,2021.2.3,143.55976535962884,
TMTstop-Control_1_1.xlsx,0:26,24,['2'],2,TMTstop-control_1_1linestimulus21.png,TMTstop-control_1_1greenlinestimulus21.png,TMTstop-control_1_1redlinestimulus21.png,TMT_Control,1,24,0,0,0,0,0,23,23,23,,,,,,,,,,,,,,,,,2,0,22.245482500002254,None,"['1', '2']",1,"[0.03435479999461677, 0.0751285000005737]",22.245482500002254,None,,001,2022_Mar_30_1524,TMT_fmri,2021.2.3,143.55976535962884,
TMTstop-Control_1_1.xlsx,0:26,25,['1'],1,TMTstop-control_1_1linestimulus22.png,TMTstop-control_1_1greenlinestimulus22.png,TMTstop-control_1_1redlinestimulus22.png,TMT_Control,1,25,0,0,0,0,0,24,24,24,,,,,,,,,,,,,,,,,2,0,22.40539840000565,None,"['3', '1']",1,"[0.0019745999888982624, 0.11278399999719113]",22.40539840000565,None,,001,2022_Mar_30_1524,TMT_fmri,2021.2.3,143.55976535962884,
TMTstop-Control_1_1.xlsx,0:26,None,None,None,TMTstop-control_1_1linestimulus23.png,TMTstop-control_1_1greenlinestimulus23.png,TMTstop-control_1_1redlinestimulus23.png,TMT_Control,1,Feedback_last,0,0,0,0,0,25,25,25,,,,,,,,,,,,,,,,,2,0,22.620651599994744,None,"['2', '3']",0,"[-0.04539610000210814, 0.04773360000399407]",22.620651599994744,None,,001,2022_Mar_30_1524,TMT_fmri,2021.2.3,143.55976535962884,
TMTstop-Control_1_2.xlsx,26:52,1,['2'],2,TMTstop-control_1_2.png,TMTstop-control_1_2.png,TMTstop-control_1_2.png,TMT_Control,2,26,0,1,1,1,0,0,0,0,,,,,,,,,,,,,,,,,1,1,26.765925400002743,None,['2'],1,[0.6088693000056082],26.765925400002743,None,,001,2022_Mar_30_1524,TMT_fmri,2021.2.3,143.55976535962884,
TMTstop-Control_1_2.xlsx,26:52,2,['3'],3,TMTstop-control_1_2.png,TMTstop-control_1_2firstgreen.png,TMTstop-control_1_2firstred.png,TMT_Control,2,27,0,1,1,1,0,1,1,1,,,,,,,,,,,,,,,,,1,1,27.446917499997653,None,['3'],1,[0.27643269998952746],27.446917499997653,None,,001,2022_Mar_30_1524,TMT_fmri,2021.2.3,143.55976535962884,
TMTstop-Control_1_2.xlsx,26:52,3,['2'],2,TMTstop-control_1_2linestimulus0.png,TMTstop-control_1_2greenlinestimulus0.png,TMTstop-control_1_2redlinestimulus0.png,TMT_Control,2,28,0,1,1,1,0,2,2,2,,,,,,,,,,,,,,,,,0,0,27.79413999999815,None,None,0,,27.79413999999815,None,,001,2022_Mar_30_1524,TMT_fmri,2021.2.3,143.55976535962884,
TMTstop-A_1_1.xlsx,0:26,1,['1'],1,TMTstop-A_1_1.png,TMTstop-A_1_1.png,TMTstop-A_1_1.png,TMT_A,1,1,,,,,,,,,0,0,0,0,0,0,0,0,,,,,,,,,1,1,33.00194620000548,None,['1'],1,[1.2619273000018438],33.00194620000548,None,,001,2022_Mar_30_1524,TMT_fmri,2021.2.3,143.55976535962884,
TMTstop-A_1_1.xlsx,0:26,2,['3'],3,TMTstop-A_1_1.png,TMTstop-A_1_1firstgreen.png,TMTstop-A_1_1firstred.png,TMT_A,1,2,,,,,,,,,0,0,0,0,0,1,1,1,,,,,,,,,1,1,34.342498400001205,None,['3'],1,[0.7514541999989888],34.342498400001205,None,,001,2022_Mar_30_1524,TMT_fmri,2021.2.3,143.55976535962884,
TMTstop-A_1_1.xlsx,0:26,3,['1'],1,TMTstop-A_1_1linestimulus0.png,TMTstop-A_1_1greenlinestimulus0.png,TMTstop-A_1_1redlinestimulus0.png,TMT_A,1,3,,,,,,,,,0,0,0,0,0,2,2,2,,,,,,,,,1,1,35.17589929999667,None,['1'],1,[0.8795456999941962],35.17589929999667,None,,001,2022_Mar_30_1524,TMT_fmri,2021.2.3,143.55976535962884,
TMTstop-A_1_1.xlsx,0:26,4,['3'],3,TMTstop-A_1_1linestimulus1.png,TMTstop-A_1_1greenlinestimulus1.png,TMTstop-A_1_1redlinestimulus1.png,TMT_A,1,4,,,,,,,,,0,0,0,0,0,3,3,3,,,,,,,,,1,1,36.13463519999641,None,['3'],1,[0.44208660000003874],36.13463519999641,None,,001,2022_Mar_30_1524,TMT_fmri,2021.2.3,143.55976535962884,
TMTstop-A_1_1.xlsx,0:26,5,['1'],1,TMTstop-A_1_1linestimulus2.png,TMTstop-A_1_1greenlinestimulus2.png,TMTstop-A_1_1redlinestimulus2.png,TMT_A,1,5,,,,,,,,,0,0,0,0,0,4,4,4,,,,,,,,,1,1,36.654989400005434,None,['1'],1,[0.34334120000130497],36.654989400005434,None,,001,2022_Mar_30_1524,TMT_fmri,2021.2.3,143.55976535962884,
TMTstop-A_1_1.xlsx,0:26,6,['3'],3,TMTstop-A_1_1linestimulus3.png,TMTstop-A_1_1greenlinestimulus3.png,TMTstop-A_1_1redlinestimulus3.png,TMT_A,1,6,,,,,,,,,0,0,0,0,0,5,5,5,,,,,,,,,2,0,37.08548850000079,None,"['2', '3']",1,"[0.2992981999996118, 0.6095907999988412]",37.08548850000079,None,,001,2022_Mar_30_1524,TMT_fmri,2021.2.3,143.55976535962884,
TMTstop-A_1_1.xlsx,0:26,7,['1'],1,TMTstop-A_1_1linestimulus4.png,TMTstop-A_1_1greenlinestimulus4.png,TMTstop-A_1_1redlinestimulus4.png,TMT_A,1,7,,,,,,,,,0,0,0,0,0,6,6,6,,,,,,,,,1,1,37.807851300007314,None,['1'],1,[0.09385859999747481],37.807851300007314,None,,001,2022_Mar_30_1524,TMT_fmri,2021.2.3,143.55976535962884,
TMTstop-A_1_1.xlsx,0:26,8,['2'],2,TMTstop-A_1_1linestimulus5.png,TMTstop-A_1_1greenlinestimulus5.png,TMTstop-A_1_1redlinestimulus5.png,TMT_A,1,8,,,,,,,,,0,0,0,0,0,7,7,7,,,,,,,,,1,1,37.98187869999674,None,['2'],1,[0.019225900003220886],37.98187869999674,None,,001,2022_Mar_30_1524,TMT_fmri,2021.2.3,143.55976535962884,
TMTstop-A_1_1.xlsx,0:26,9,['3'],3,TMTstop-A_1_1linestimulus6.png,TMTstop-A_1_1greenlinestimulus6.png,TMTstop-A_1_1redlinestimulus6.png,TMT_A,1,9,,,,,,,,,0,0,0,0,0,8,8,8,,,,,,,,,1,1,38.07861260000209,None,['3'],1,[0.0012952000106452033],38.07861260000209,None,,001,2022_Mar_30_1524,TMT_fmri,2021.2.3,143.55976535962884,
TMTstop-A_1_1.xlsx,0:26,10,['1'],1,TMTstop-A_1_1linestimulus7.png,TMTstop-A_1_1greenlinestimulus7.png,TMTstop-A_1_1redlinestimulus7.png,TMT_A,1,10,,,,,,,,,0,0,0,0,0,9,9,9,,,,,,,,,1,1,38.16164479999861,None,['1'],1,[0.07849990000249818],38.16164479999861,None,,001,2022_Mar_30_1524,TMT_fmri,2021.2.3,143.55976535962884,
TMTstop-A_1_1.xlsx,0:26,11,['3'],3,TMTstop-A_1_1linestimulus8.png,TMTstop-A_1_1greenlinestimulus8.png,TMTstop-A_1_1redlinestimulus8.png,TMT_A,1,11,,,,,,,,,0,0,0,0,0,10,10,10,,,,,,,,,2,0,38.32147460000124,None,"['2', '3']",1,"[-0.0319761999999173, 0.055105499995988794]",38.32147460000124,None,,001,2022_Mar_30_1524,TMT_fmri,2021.2.3,143.55976535962884,
TMTstop-A_1_1.xlsx,0:26,12,['2'],2,TMTstop-A_1_1linestimulus9.png,TMTstop-A_1_1greenlinestimulus9.png,TMTstop-A_1_1redlinestimulus9.png,TMT_A,1,12,,,,,,,,,0,0,0,0,0,11,11,11,,,,,,,,,2,0,38.481543899993994,None,"['1', '2']",1,"[0.02899819999583997, 0.08740799999213777]",38.481543899993994,None,,001,2022_Mar_30_1524,TMT_fmri,2021.2.3,143.55976535962884,
TMTstop-A_1_1.xlsx,0:26,13,['1'],1,TMTstop-A_1_1linestimulus10.png,TMTstop-A_1_1greenlinestimulus10.png,TMTstop-A_1_1redlinestimulus10.png,TMT_A,1,13,,,,,,,,,0,0,0,0,0,12,12,12,,,,,,,,,2,0,38.68293209999683,None,"['3', '1']",1,"[-0.03103420000115875, 0.10200159999658354]",38.68293209999683,None,,001,2022_Mar_30_1524,TMT_fmri,2021.2.3,143.55976535962884,
TMTstop-A_1_1.xlsx,0:26,14,['2'],2,TMTstop-A_1_1linestimulus11.png,TMTstop-A_1_1greenlinestimulus11.png,TMTstop-A_1_1redlinestimulus11.png,TMT_A,1,14,,,,,,,,,0,0,0,0,0,13,13,13,,,,,,,,,1,1,38.87710810000135,None,['2'],1,[-0.03330769999593031],38.87710810000135,None,,001,2022_Mar_30_1524,TMT_fmri,2021.2.3,143.55976535962884,
TMTstop-A_1_1.xlsx,0:26,15,['1'],1,TMTstop-A_1_1linestimulus12.png,TMTstop-A_1_1greenlinestimulus12.png,TMTstop-A_1_1redlinestimulus12.png,TMT_A,1,15,,,,,,,,,0,0,0,0,0,14,14,14,,,,,,,,,2,0,38.95347769999353,None,"['3', '1']",1,"[-0.009507599999778904, 0.13378150000062305]",38.95347769999353,None,,001,2022_Mar_30_1524,TMT_fmri,2021.2.3,143.55976535962884,
TMTstop-A_1_1.xlsx,0:26,16,['2'],2,TMTstop-A_1_1linestimulus13.png,TMTstop-A_1_1greenlinestimulus13.png,TMTstop-A_1_1redlinestimulus13.png,TMT_A,1,16,,,,,,,,,0,0,0,0,0,15,15,15,,,,,,,,,1,1,39.19666139999754,None,['2'],1,[-0.05837749999773223],39.19666139999754,None,,001,2022_Mar_30_1524,TMT_fmri,2021.2.3,143.55976535962884,
TMTstop-A_1_1.xlsx,0:26,17,['1'],1,TMTstop-A_1_1linestimulus14.png,TMTstop-A_1_1greenlinestimulus14.png,TMTstop-A_1_1redlinestimulus14.png,TMT_A,1,17,,,,,,,,,0,0,0,0,0,16,16,16,,,,,,,,,2,0,39.273091800001566,None,"['3', '1']",1,"[-0.016281699994578958, 0.10346379999828059]",39.273091800001566,None,,001,2022_Mar_30_1524,TMT_fmri,2021.2.3,143.55976535962884,
TMTstop-A_1_1.xlsx,0:26,18,['3'],3,TMTstop-A_1_1linestimulus15.png,TMTstop-A_1_1greenlinestimulus15.png,TMTstop-A_1_1redlinestimulus15.png,TMT_A,1,18,,,,,,,,,0,0,0,0,0,17,17,17,,,,,,,,,2,0,39.474677200007136,None,"['2', '3']",1,"[-0.05781359999673441, 0.06250250000448432]",39.474677200007136,None,,001,2022_Mar_30_1524,TMT_fmri,2021.2.3,143.55976535962884,
TMTstop-A_1_1.xlsx,0:26,19,['2'],2,TMTstop-A_1_1linestimulus16.png,TMTstop-A_1_1greenlinestimulus16.png,TMTstop-A_1_1redlinestimulus16.png,TMT_A,1,19,,,,,,,,,0,0,0,0,0,18,18,18,,,,,,,,,2,0,39.62724820000585,None,"['1', '2']",1,"[0.037508499997784384, 0.09298079999280162]",39.62724820000585,None,,001,2022_Mar_30_1524,TMT_fmri,2021.2.3,143.55976535962884,
TMTstop-A_1_1.xlsx,0:26,20,['3'],3,TMTstop-A_1_1linestimulus17.png,TMTstop-A_1_1greenlinestimulus17.png,TMTstop-A_1_1redlinestimulus17.png,TMT_A,1,20,,,,,,,,,0,0,0,0,0,19,19,19,,,,,,,,,1,1,39.82850839999446,None,['3'],1,[-0.012546600002679043],39.82850839999446,None,,001,2022_Mar_30_1524,TMT_fmri,2021.2.3,143.55976535962884,
TMTstop-A_1_1.xlsx,0:26,21,['1'],1,TMTstop-A_1_1linestimulus18.png,TMTstop-A_1_1greenlinestimulus18.png,TMTstop-A_1_1redlinestimulus18.png,TMT_A,1,21,,,,,,,,,0,0,0,0,0,20,20,20,,,,,,,,,1,1,39.905446100005065,None,['1'],1,[0.048611599995638244],39.905446100005065,None,,001,2022_Mar_30_1524,TMT_fmri,2021.2.3,143.55976535962884,
TMTstop-A_1_1.xlsx,0:26,22,['3'],3,TMTstop-A_1_1linestimulus19.png,TMTstop-A_1_1greenlinestimulus19.png,TMTstop-A_1_1redlinestimulus19.png,TMT_A,1,22,,,,,,,,,0,0,0,0,0,21,21,21,,,,,,,,,2,0,40.03683599999931,None,"['2', '3']",1,"[-0.03776550000475254, 0.08800920000066981]",40.03683599999931,None,,001,2022_Mar_30_1524,TMT_fmri,2021.2.3,143.55976535962884,
TMTstop-A_1_1.xlsx,0:26,23,['1'],1,TMTstop-A_1_1linestimulus20.png,TMTstop-A_1_1greenlinestimulus20.png,TMTstop-A_1_1redlinestimulus20.png,TMT_A,1,23,,,,,,,,,0,0,0,0,0,22,22,22,,,,,,,,,1,1,40.238099299996975,None,['1'],1,[0.004654599993955344],40.238099299996975,None,,001,2022_Mar_30_1524,TMT_fmri,2021.2.3,143.55976535962884,
TMTstop-A_1_1.xlsx,0:26,24,['3'],3,TMTstop-A_1_1linestimulus21.png,TMTstop-A_1_1greenlinestimulus21.png,TMTstop-A_1_1redlinestimulus21.png,TMT_A,1,24,,,,,,,,,0,0,0,0,0,23,23,23,,,,,,,,,2,0,40.32836129999487,None,"['2', '3']",1,"[-0.054128900010255165, 0.07656919999863021]",40.32836129999487,None,,001,2022_Mar_30_1524,TMT_fmri,2021.2.3,143.55976535962884,
TMTstop-A_1_1.xlsx,0:26,25,['1'],1,TMTstop-A_1_1linestimulus22.png,TMTstop-A_1_1greenlinestimulus22.png,TMTstop-A_1_1redlinestimulus22.png,TMT_A,1,25,,,,,,,,,0,0,0,0,0,24,24,24,,,,,,,,,1,1,40.495957799997996,None,['1'],1,[0.017416700007743202],40.495957799997996,None,,001,2022_Mar_30_1524,TMT_fmri,2021.2.3,143.55976535962884,
TMTstop-A_1_1.xlsx,0:26,None,None,None,TMTstop-A_1_1linestimulus23.png,TMTstop-A_1_1greenlinestimulus23.png,TMTstop-A_1_1redlinestimulus23.png,TMT_A,1,Feedback_last,,,,,,,,,0,0,0,0,0,25,25,25,,,,,,,,,11,0,40.59984229999827,None,"['2', '3', '1', '2', '3', '1', '2', '3', '2', '2', '2']",0,"[-0.021897899991017766, 0.07371039999998175, 0.1850412000057986, 0.2581938000075752, 0.35240230000636075, 0.4718944000051124, 0.5383251000021119, 0.6588647000025958, 0.746213100006571, 0.8173940999986371, 1.0084218999982113]",40.59984229999827,None,,001,2022_Mar_30_1524,TMT_fmri,2021.2.3,143.55976535962884,
TMTstop-A_1_2.xlsx,26:52,1,['1'],1,TMTstop-A_1_2.png,TMTstop-A_1_2.png,TMTstop-A_1_2.png,TMT_A,2,26,,,,,,,,,0,1,1,1,0,0,0,0,,,,,,,,,1,1,44.74541479999607,None,['1'],1,[0.800115400008508],44.74541479999607,None,,001,2022_Mar_30_1524,TMT_fmri,2021.2.3,143.55976535962884,
TMTstop-A_1_2.xlsx,26:52,2,['3'],3,TMTstop-A_1_2.png,TMTstop-A_1_2firstgreen.png,TMTstop-A_1_2firstred.png,TMT_A,2,27,,,,,,,,,0,1,1,1,0,1,1,1,,,,,,,,,2,0,45.62709449999966,None,"['2', '3']",1,"[0.0026840000064112246, 0.07571370000368915]",45.62709449999966,None,,001,2022_Mar_30_1524,TMT_fmri,2021.2.3,143.55976535962884,
TMTstop-A_1_2.xlsx,26:52,3,['1'],1,TMTstop-A_1_2linestimulus0.png,TMTstop-A_1_2greenlinestimulus0.png,TMTstop-A_1_2redlinestimulus0.png,TMT_A,2,28,,,,,,,,,0,1,1,1,0,2,2,2,,,,,,,,,1,1,45.79373140000098,None,['1'],1,[0.046733600000152364],45.79373140000098,None,,001,2022_Mar_30_1524,TMT_fmri,2021.2.3,143.55976535962884,
TMTstop-A_1_2.xlsx,26:52,4,['2'],2,TMTstop-A_1_2linestimulus1.png,TMTstop-A_1_2greenlinestimulus1.png,TMTstop-A_1_2redlinestimulus1.png,TMT_A,2,29,,,,,,,,,0,1,1,1,0,3,3,3,,,,,,,,,1,1,45.918865900006494,None,['2'],1,[-0.006278600005316548],45.918865900006494,None,,001,2022_Mar_30_1524,TMT_fmri,2021.2.3,143.55976535962884,
TMTstop-A_1_2.xlsx,26:52,5,['1'],1,TMTstop-A_1_2linestimulus2.png,TMTstop-A_1_2greenlinestimulus2.png,TMTstop-A_1_2redlinestimulus2.png,TMT_A,2,30,,,,,,,,,0,1,1,1,0,4,4,4,,,,,,,,,2,0,45.99505610000051,None,"['3', '1']",1,"[-0.015515699997195043, 0.11692390000098385]",45.99505610000051,None,,001,2022_Mar_30_1524,TMT_fmri,2021.2.3,143.55976535962884,
TMTstop-A_1_2.xlsx,26:52,6,['3'],3,TMTstop-A_1_2linestimulus3.png,TMTstop-A_1_2greenlinestimulus3.png,TMTstop-A_1_2redlinestimulus3.png,TMT_A,2,31,,,,,,,,,0,1,1,1,0,5,5,5,,,,,,,,,2,0,46.21927699999651,None,"['2', '3']",1,"[-0.07180589999188669, 0.03490090000559576]",46.21927699999651,None,,001,2022_Mar_30_1524,TMT_fmri,2021.2.3,143.55976535962884,
TMTstop-A_1_2.xlsx,26:52,7,['2'],2,TMTstop-A_1_2linestimulus4.png,TMTstop-A_1_2greenlinestimulus4.png,TMTstop-A_1_2redlinestimulus4.png,TMT_A,2,32,,,,,,,,,0,1,1,1,0,6,6,6,,,,,,,,,2,0,46.47873970000364,None,"['1', '2']",1,"[-0.10292970000591595, -0.009197299994411878]",46.47873970000364,None,,001,2022_Mar_30_1524,TMT_fmri,2021.2.3,143.55976535962884,
TMTstop-A_1_2.xlsx,26:52,8,['1'],1,TMTstop-A_1_2linestimulus5.png,TMTstop-A_1_2greenlinestimulus5.png,TMTstop-A_1_2redlinestimulus5.png,TMT_A,2,33,,,,,,,,,0,1,1,1,0,7,7,7,,,,,,,,,2,0,46.557587400006014,None,"['3', '1']",1,"[-0.032822099994518794, 0.11048770000343211]",46.557587400006014,None,,001,2022_Mar_30_1524,TMT_fmri,2021.2.3,143.55976535962884,
TMTstop-A_1_2.xlsx,26:52,9,['3'],3,TMTstop-A_1_2linestimulus6.png,TMTstop-A_1_2greenlinestimulus6.png,TMTstop-A_1_2redlinestimulus6.png,TMT_A,2,34,,,,,,,,,0,1,1,1,0,8,8,8,,,,,,,,,2,0,46.75236369999766,None,"['2', '3']",1,"[-0.036758599992026575, 0.059438399999635294]",46.75236369999766,None,,001,2022_Mar_30_1524,TMT_fmri,2021.2.3,143.55976535962884,
TMTstop-A_1_2.xlsx,26:52,10,['2'],2,TMTstop-A_1_2linestimulus7.png,TMTstop-A_1_2greenlinestimulus7.png,TMTstop-A_1_2redlinestimulus7.png,TMT_A,2,35,,,,,,,,,0,1,1,1,0,9,9,9,,,,,,,,,2,0,46.911878500002786,None,"['1', '2']",1,"[0.02510410000104457, 0.10692400000698399]",46.911878500002786,None,,001,2022_Mar_30_1524,TMT_fmri,2021.2.3,143.55976535962884,
TMTstop-A_1_2.xlsx,26:52,11,['1'],1,TMTstop-A_1_2linestimulus8.png,TMTstop-A_1_2greenlinestimulus8.png,TMTstop-A_1_2redlinestimulus8.png,TMT_A,2,36,,,,,,,,,0,1,1,1,0,10,10,10,,,,,,,,,2,0,47.09990000000107,None,"['3', '1']",1,"[0.007716899999650195, 0.1382871000096202]",47.09990000000107,None,,001,2022_Mar_30_1524,TMT_fmri,2021.2.3,143.55976535962884,
TMTstop-A_1_2.xlsx,26:52,12,['2'],2,TMTstop-A_1_2linestimulus9.png,TMTstop-A_1_2greenlinestimulus9.png,TMTstop-A_1_2redlinestimulus9.png,TMT_A,2,37,,,,,,,,,0,1,1,1,0,11,11,11,,,,,,,,,1,1,47.31438280000293,None,['2'],1,[0.004803999996511266],47.31438280000293,None,,001,2022_Mar_30_1524,TMT_fmri,2021.2.3,143.55976535962884,
TMTstop-A_1_2.xlsx,26:52,13,['1'],1,TMTstop-A_1_2linestimulus10.png,TMTstop-A_1_2greenlinestimulus10.png,TMTstop-A_1_2redlinestimulus10.png,TMT_A,2,38,,,,,,,,,0,1,1,1,0,12,12,12,,,,,,,,,2,0,47.404863500007195,None,"['3', '1']",1,"[-0.004275300001609139, 0.12374959999579005]",47.404863500007195,None,,001,2022_Mar_30_1524,TMT_fmri,2021.2.3,143.55976535962884,
TMTstop-A_1_2.xlsx,26:52,14,['3'],3,TMTstop-A_1_2linestimulus11.png,TMTstop-A_1_2greenlinestimulus11.png,TMTstop-A_1_2redlinestimulus11.png,TMT_A,2,39,,,,,,,,,0,1,1,1,0,13,13,13,,,,,,,,,2,0,47.60629219999828,None,"['2', '3']",1,"[-0.028576899989275262, 0.06886300000769552]",47.60629219999828,None,,001,2022_Mar_30_1524,TMT_fmri,2021.2.3,143.55976535962884,
TMTstop-A_1_2.xlsx,26:52,15,['1'],1,TMTstop-A_1_2linestimulus12.png,TMTstop-A_1_2greenlinestimulus12.png,TMTstop-A_1_2redlinestimulus12.png,TMT_A,2,40,,,,,,,,,0,1,1,1,0,14,14,14,,,,,,,,,1,1,47.76598840000224,None,['1'],1,[0.022386600001482293],47.76598840000224,None,,001,2022_Mar_30_1524,TMT_fmri,2021.2.3,143.55976535962884,
TMTstop-A_1_2.xlsx,26:52,16,['3'],3,TMTstop-A_1_2linestimulus13.png,TMTstop-A_1_2greenlinestimulus13.png,TMTstop-A_1_2redlinestimulus13.png,TMT_A,2,41,,,,,,,,,0,1,1,1,0,15,15,15,,,,,,,,,2,0,47.871282399995835,None,"['2', '3']",1,"[-0.01092159999825526, 0.07921080000232905]",47.871282399995835,None,,001,2022_Mar_30_1524,TMT_fmri,2021.2.3,143.55976535962884,
TMTstop-A_1_2.xlsx,26:52,17,['1'],1,TMTstop-A_1_2linestimulus14.png,TMTstop-A_1_2greenlinestimulus14.png,TMTstop-A_1_2redlinestimulus14.png,TMT_A,2,42,,,,,,,,,0,1,1,1,0,16,16,16,,,,,,,,,0,0,48.02188309999474,None,None,0,,48.02188309999474,None,,001,2022_Mar_30_1524,TMT_fmri,2021.2.3,143.55976535962884,
TMTstop-B_1_1.xlsx,0:26,1,['3'],3,TMTstop-B_1_1.png,TMTstop-B_1_1.png,TMTstop-B_1_1.png,TMT_B,1,1,,,,,,,,,,,,,,,,,0,0,0,0,0,0,0,0,2,0,55.52214600000298,None,"['2', '3']",1,"[1.1649946000106866, 1.3281386000016937]",55.52214600000298,None,,001,2022_Mar_30_1524,TMT_fmri,2021.2.3,143.55976535962884,
TMTstop-B_1_1.xlsx,0:26,A,['1'],1,TMTstop-B_1_1.png,TMTstop-B_1_1firstgreen.png,TMTstop-B_1_1firstred.png,TMT_B,1,2,,,,,,,,,,,,,,,,,0,0,0,0,0,1,1,1,1,1,56.93926090000605,None,['1'],1,[0.04588750000402797],56.93926090000605,None,,001,2022_Mar_30_1524,TMT_fmri,2021.2.3,143.55976535962884,
TMTstop-B_1_1.xlsx,0:26,2,['3'],3,TMTstop-B_1_1linestimulus0.png,TMTstop-B_1_1greenlinestimulus0.png,TMTstop-B_1_1redlinestimulus0.png,TMT_B,1,3,,,,,,,,,,,,,,,,,0,0,0,0,0,2,2,2,2,0,57.06435329999658,None,"['2', '3']",1,"[0.015133199995034374, 0.10719539999263361]",57.06435329999658,None,,001,2022_Mar_30_1524,TMT_fmri,2021.2.3,143.55976535962884,
TMTstop-B_1_1.xlsx,0:26,B,['2'],2,TMTstop-B_1_1linestimulus1.png,TMTstop-B_1_1greenlinestimulus1.png,TMTstop-B_1_1redlinestimulus1.png,TMT_B,1,4,,,,,,,,,,,,,,,,,0,0,0,0,0,3,3,3,2,0,57.25180610000098,None,"['1', '2']",1,"[0.08869070000946522, 0.148949000009452]",57.25180610000098,None,,001,2022_Mar_30_1524,TMT_fmri,2021.2.3,143.55976535962884,
TMTstop-B_1_1.xlsx,0:26,3,['1'],1,TMTstop-B_1_1linestimulus2.png,TMTstop-B_1_1greenlinestimulus2.png,TMTstop-B_1_1redlinestimulus2.png,TMT_B,1,5,,,,,,,,,,,,,,,,,0,0,0,0,0,4,4,4,2,0,57.494614700000966,None,"['3', '1']",1,"[-0.006210699997609481, 0.13465710000309628]",57.494614700000966,None,,001,2022_Mar_30_1524,TMT_fmri,2021.2.3,143.55976535962884,
TMTstop-B_1_1.xlsx,0:26,C,['3'],3,TMTstop-B_1_1linestimulus3.png,TMTstop-B_1_1greenlinestimulus3.png,TMTstop-B_1_1redlinestimulus3.png,TMT_B,1,6,,,,,,,,,,,,,,,,,0,0,0,0,0,5,5,5,2,0,57.8220677000063,None,"['2', '3']",1,"[-0.1552356000029249, -0.044396400000550784]",57.8220677000063,None,,001,2022_Mar_30_1524,TMT_fmri,2021.2.3,143.55976535962884,
TMTstop-B_1_1.xlsx,0:26,4,['2'],2,TMTstop-B_1_1linestimulus4.png,TMTstop-B_1_1greenlinestimulus4.png,TMTstop-B_1_1redlinestimulus4.png,TMT_B,1,7,,,,,,,,,,,,,,,,,0,0,0,0,0,6,6,6,2,0,57.9458741999988,None,"['1', '2']",1,"[-0.038531300000613555, 0.015996899994206615]",57.9458741999988,None,,001,2022_Mar_30_1524,TMT_fmri,2021.2.3,143.55976535962884,
TMTstop-B_1_1.xlsx,0:26,D,['1'],1,TMTstop-B_1_1linestimulus5.png,TMTstop-B_1_1greenlinestimulus5.png,TMTstop-B_1_1redlinestimulus5.png,TMT_B,1,8,,,,,,,,,,,,,,,,,0,0,0,0,0,7,7,7,2,0,58.06404490000568,None,"['3', '1']",1,"[-0.0064208999974653125, 0.15866049999021925]",58.06404490000568,None,,001,2022_Mar_30_1524,TMT_fmri,2021.2.3,143.55976535962884,
TMTstop-B_1_1.xlsx,0:26,5,['3'],3,TMTstop-B_1_1linestimulus6.png,TMTstop-B_1_1greenlinestimulus6.png,TMTstop-B_1_1redlinestimulus6.png,TMT_B,1,9,,,,,,,,,,,,,,,,,0,0,0,0,0,8,8,8,3,0,58.307376900003874,None,"['2', '2', '3']",1,"[-0.017052199997124262, 1.212285300003714, 1.5821825000020908]",58.307376900003874,None,,001,2022_Mar_30_1524,TMT_fmri,2021.2.3,143.55976535962884,
TMTstop-B_1_1.xlsx,0:26,E,['1'],1,TMTstop-B_1_1linestimulus7.png,TMTstop-B_1_1greenlinestimulus7.png,TMTstop-B_1_1redlinestimulus7.png,TMT_B,1,10,,,,,,,,,,,,,,,,,0,0,0,0,0,9,9,9,1,1,60.00171989999944,None,['1'],1,[1.3580507000006037],60.00171989999944,None,,001,2022_Mar_30_1524,TMT_fmri,2021.2.3,143.55976535962884,
TMTstop-B_1_1.xlsx,0:26,6,['3'],3,TMTstop-B_1_1linestimulus8.png,TMTstop-B_1_1greenlinestimulus8.png,TMTstop-B_1_1redlinestimulus8.png,TMT_B,1,11,,,,,,,,,,,,,,,,,0,0,0,0,0,10,10,10,1,1,61.43224170000758,None,['3'],1,[1.5299492999911308],61.43224170000758,None,,001,2022_Mar_30_1524,TMT_fmri,2021.2.3,143.55976535962884,
TMTstop-B_1_1.xlsx,0:26,F,['1'],1,TMTstop-B_1_1linestimulus9.png,TMTstop-B_1_1greenlinestimulus9.png,TMTstop-B_1_1redlinestimulus9.png,TMT_B,1,12,,,,,,,,,,,,,,,,,0,0,0,0,0,11,11,11,1,1,63.150376899997354,None,['1'],1,[1.4784829999989597],63.150376899997354,None,,001,2022_Mar_30_1524,TMT_fmri,2021.2.3,143.55976535962884,
TMTstop-B_1_1.xlsx,0:26,7,['3'],3,TMTstop-B_1_1linestimulus10.png,TMTstop-B_1_1greenlinestimulus10.png,TMTstop-B_1_1redlinestimulus10.png,TMT_B,1,13,,,,,,,,,,,,,,,,,0,0,0,0,0,12,12,12,3,0,64.70321629999671,None,"['2', '2', '3']",1,"[2.109488899994176, 3.7758967999980086, 5.005350699997507]",64.70321629999671,None,,001,2022_Mar_30_1524,TMT_fmri,2021.2.3,143.55976535962884,
TMTstop-B_1_1.xlsx,0:26,G,['2'],2,TMTstop-B_1_1linestimulus11.png,TMTstop-B_1_1greenlinestimulus11.png,TMTstop-B_1_1redlinestimulus11.png,TMT_B,1,14,,,,,,,,,,,,,,,,,0,0,0,0,0,13,13,13,0,0,69.77934069999901,None,None,0,,69.77934069999901,None,,001,2022_Mar_30_1524,TMT_fmri,2021.2.3,143.55976535962884,
