NumberLetter,corrAns,Correct,StimFile,Correct_StimFile,False_StimFile,Version,Block,TrialNumber_session,n,Stim.started_mean,Stim.started_raw,Stim.started_std,Stim.stopped_raw,key_resp_2.corr_mean,key_resp_2.corr_raw,key_resp_2.corr_std,key_resp_2.keys_raw,key_resp_2.rt_raw,key_resp_2.started_mean,key_resp_2.started_raw,key_resp_2.started_std,key_resp_2.stopped_raw,order
1,['3'],3,TMTstop-B_1_1.png,TMTstop-B_1_1.png,TMTstop-B_1_1.png,TMT_B,1,1,1.0,107.8563003540039,107.8563003540039,0.0,,1.0,1.0,0.0,1,1,2,1,3,1.5785233000060543,2.0223849000030896,2.2467633000051137,2.255849599998328,2.390571199997794,107.8563003540039,107.8563003540039,0.0,,0.0
A,['1'],1,TMTstop-B_1_1.png,TMTstop-B_1_1firstgreen.png,TMTstop-B_1_1firstred.png,TMT_B,1,2,1.0,110.40008544921875,110.40008544921875,0.0,,1.0,1.0,0.0,1,0.01646440000331495,110.40008544921875,110.40008544921875,0.0,,1.0
2,['3'],3,TMTstop-B_1_1linestimulus0.png,TMTstop-B_1_1greenlinestimulus0.png,TMTstop-B_1_1redlinestimulus0.png,TMT_B,1,3,1.0,110.52495574951172,110.52495574951172,0.0,,1.0,1.0,0.0,2,3,-0.008526899997377768,0.08266790000197943,110.52495574951172,110.52495574951172,0.0,,2.0
B,['2'],2,TMTstop-B_1_1linestimulus1.png,TMTstop-B_1_1greenlinestimulus1.png,TMTstop-B_1_1redlinestimulus1.png,TMT_B,1,4,1.0,110.80750274658203,110.80750274658203,0.0,,1.0,1.0,0.0,1,2,-0.0346616000024369,0.03418990000500344,110.80750274658203,110.80750274658203,0.0,,3.0
3,['1'],1,TMTstop-B_1_1linestimulus2.png,TMTstop-B_1_1greenlinestimulus2.png,TMTstop-B_1_1redlinestimulus2.png,TMT_B,1,5,1.0,111.00837707519531,111.00837707519531,0.0,,1.0,1.0,0.0,3,1,-0.052837900002487004,0.09172849998867605,111.00837707519531,111.00837707519531,0.0,,4.0
C,['3'],3,TMTstop-B_1_1linestimulus3.png,TMTstop-B_1_1greenlinestimulus3.png,TMTstop-B_1_1redlinestimulus3.png,TMT_B,1,6,1.0,111.26106262207031,111.26106262207031,0.0,,1.0,1.0,0.0,2,3,-0.11168109999562148,0.029374199992162175,111.26106262207031,111.26106262207031,0.0,,5.0
4,['2'],2,TMTstop-B_1_1linestimulus4.png,TMTstop-B_1_1greenlinestimulus4.png,TMTstop-B_1_1redlinestimulus4.png,TMT_B,1,7,1.0,111.38951110839844,111.38951110839844,0.0,,1.0,1.0,0.0,1,2,0.22522210000897758,0.3311268000106793,111.38951110839844,111.38951110839844,0.0,,6.0
D,['1'],1,TMTstop-B_1_1linestimulus5.png,TMTstop-B_1_1greenlinestimulus5.png,TMTstop-B_1_1redlinestimulus5.png,TMT_B,1,8,1.0,111.91278076171875,111.91278076171875,0.0,,1.0,1.0,0.0,3,1,-0.07428689999505877,0.07994710000639316,111.91278076171875,111.91278076171875,0.0,,7.0
5,['3'],3,TMTstop-B_1_1linestimulus6.png,TMTstop-B_1_1greenlinestimulus6.png,TMTstop-B_1_1redlinestimulus6.png,TMT_B,1,9,1.0,112.17120361328125,112.17120361328125,0.0,,1.0,1.0,0.0,2,3,-0.05219069999293424,0.20571660000132397,112.17120361328125,112.17120361328125,0.0,,8.0
E,['1'],1,TMTstop-B_1_1linestimulus7.png,TMTstop-B_1_1greenlinestimulus7.png,TMTstop-B_1_1redlinestimulus7.png,TMT_B,1,10,1.0,112.55427551269531,112.55427551269531,0.0,,1.0,1.0,0.0,1,-0.08804109999618959,112.55427551269531,112.55427551269531,0.0,,9.0
6,['3'],3,TMTstop-B_1_1linestimulus8.png,TMTstop-B_1_1greenlinestimulus8.png,TMTstop-B_1_1redlinestimulus8.png,TMT_B,1,11,1.0,112.68075561523438,112.68075561523438,0.0,,1.0,1.0,0.0,3,0.11109479999868199,112.68075561523438,112.68075561523438,0.0,,10.0
F,['1'],1,TMTstop-B_1_1linestimulus9.png,TMTstop-B_1_1greenlinestimulus9.png,TMTstop-B_1_1redlinestimulus9.png,TMT_B,1,12,1.0,112.94906616210938,112.94906616210938,0.0,,1.0,1.0,0.0,1,0.011343700010911562,112.94906616210938,112.94906616210938,0.0,,11.0
7,['3'],3,TMTstop-B_1_1linestimulus10.png,TMTstop-B_1_1greenlinestimulus10.png,TMTstop-B_1_1redlinestimulus10.png,TMT_B,1,13,1.0,113.07381439208984,113.07381439208984,0.0,,1.0,1.0,0.0,2,3,-0.0340009000065038,0.07942739999270998,113.07381439208984,113.07381439208984,0.0,,12.0
G,['2'],2,TMTstop-B_1_1linestimulus11.png,TMTstop-B_1_1greenlinestimulus11.png,TMTstop-B_1_1redlinestimulus11.png,TMT_B,1,14,1.0,113.27518463134766,113.27518463134766,0.0,,1.0,1.0,0.0,1,2,0.03973559998848941,0.08959169998706784,113.27518463134766,113.27518463134766,0.0,,13.0
8,['3'],3,TMTstop-B_1_1linestimulus12.png,TMTstop-B_1_1greenlinestimulus12.png,TMTstop-B_1_1redlinestimulus12.png,TMT_B,1,15,1.0,113.52731323242188,113.52731323242188,0.0,,1.0,1.0,0.0,3,-0.0010660999978426844,113.52731323242188,113.52731323242188,0.0,,14.0
H,['1'],1,TMTstop-B_1_1linestimulus13.png,TMTstop-B_1_1greenlinestimulus13.png,TMTstop-B_1_1redlinestimulus13.png,TMT_B,1,16,1.0,113.66680908203125,113.66680908203125,0.0,,1.0,1.0,0.0,1,-0.0026879999932134524,113.66680908203125,113.66680908203125,0.0,,15.0
9,['3'],3,TMTstop-B_1_1linestimulus14.png,TMTstop-B_1_1greenlinestimulus14.png,TMTstop-B_1_1redlinestimulus14.png,TMT_B,1,17,1.0,113.80590057373047,113.80590057373047,0.0,,1.0,1.0,0.0,2,3,-0.09251950000179932,0.12264620000496507,113.80590057373047,113.80590057373047,0.0,,16.0
I,['2'],2,TMTstop-B_1_1linestimulus15.png,TMTstop-B_1_1greenlinestimulus15.png,TMTstop-B_1_1redlinestimulus15.png,TMT_B,1,18,1.0,114.07106018066406,114.07106018066406,0.0,,1.0,1.0,0.0,1,2,-0.05545690000872128,0.05365170000004582,114.07106018066406,114.07106018066406,0.0,,17.0
10,['3'],3,TMTstop-B_1_1linestimulus16.png,TMTstop-B_1_1greenlinestimulus16.png,TMTstop-B_1_1redlinestimulus16.png,TMT_B,1,19,1.0,114.32711791992188,114.32711791992188,0.0,,1.0,1.0,0.0,1,2,3,-0.0026500999956624582,0.0032267000060528517,0.152749800006859,114.32711791992188,114.32711791992188,0.0,,18.0
J,['2'],2,TMTstop-B_1_1linestimulus17.png,TMTstop-B_1_1greenlinestimulus17.png,TMTstop-B_1_1redlinestimulus17.png,TMT_B,1,20,1.0,114.58753204345703,114.58753204345703,0.0,,1.0,1.0,0.0,1,2,0.020665600008214824,0.10470530000748113,114.58753204345703,114.58753204345703,0.0,,19.0
11,['1'],1,TMTstop-B_1_1linestimulus18.png,TMTstop-B_1_1greenlinestimulus18.png,TMTstop-B_1_1redlinestimulus18.png,TMT_B,1,21,1.0,114.8381118774414,114.8381118774414,0.0,,1.0,1.0,0.0,3,1,-0.04877560000750236,0.06837419999646954,114.8381118774414,114.8381118774414,0.0,,20.0
K,['2'],2,TMTstop-B_1_1linestimulus19.png,TMTstop-B_1_1greenlinestimulus19.png,TMTstop-B_1_1redlinestimulus19.png,TMT_B,1,22,1.0,115.09249877929688,115.09249877929688,0.0,,1.0,1.0,0.0,2,3,1,2,-0.10353589999431279,-0.010392600001068786,0.11313060000247788,0.22658650000812486,115.09249877929688,115.09249877929688,0.0,,21.0
12,['1'],1,TMTstop-B_1_1linestimulus20.png,TMTstop-B_1_1greenlinestimulus20.png,TMTstop-B_1_1redlinestimulus20.png,TMT_B,1,23,1.0,115.50027465820312,115.50027465820312,0.0,,1.0,1.0,0.0,3,1,-0.1024665000004461,0.04062529999646358,115.50027465820312,115.50027465820312,0.0,,22.0
L,['2'],2,TMTstop-B_1_1linestimulus21.png,TMTstop-B_1_1greenlinestimulus21.png,TMTstop-B_1_1redlinestimulus21.png,TMT_B,1,24,1.0,115.64059448242188,115.64059448242188,0.0,,1.0,1.0,0.0,2,-0.009547199995722622,115.64059448242188,115.64059448242188,0.0,,23.0
13,['1'],1,TMTstop-B_1_1linestimulus22.png,TMTstop-B_1_1greenlinestimulus22.png,TMTstop-B_1_1redlinestimulus22.png,TMT_B,1,25,1.0,115.76728057861328,115.76728057861328,0.0,,1.0,1.0,0.0,3,1,-0.03983439999865368,0.08288220000395086,115.76728057861328,115.76728057861328,0.0,,24.0
None,None,None,TMTstop-B_1_1linestimulus23.png,TMTstop-B_1_1greenlinestimulus23.png,TMTstop-B_1_1redlinestimulus23.png,TMT_B,1,Feedback_last,1.0,116.0337905883789,116.0337905883789,0.0,,0.0,0.0,0.0,2,3,1,2,-0.10485309999785386,0.0288964999926975,0.17835159999958705,0.2539275000017369,116.0337905883789,116.0337905883789,0.0,,25.0

extraInfo
participant,
session,001
date,2022_May_10_1109
expName,TMT_fmri
psychopyVersion,2021.2.3
frameRate,122.71384113973052
﻿NumberLetter,corrAns,Correct,StimFile,Correct_StimFile,False_StimFile,Version,Block,TrialNumber_session,n,Stim.started_mean,Stim.started_raw,Stim.started_std,Stim.stopped_raw,key_resp_2.corr_mean,key_resp_2.corr_raw,key_resp_2.corr_std,key_resp_2.keys_raw,key_resp_2.rt_raw,key_resp_2.started_mean,key_resp_2.started_raw,key_resp_2.started_std,key_resp_2.stopped_raw,order
1,['1'],1,TMTstop-B_1_2.png,TMTstop-B_1_2.png,TMTstop-B_1_2.png,TMT_B,2,26,1.0,120.20257568359375,120.20257568359375,0.0,,1.0,1.0,0.0,1,0.5012760999961756,120.20257568359375,120.20257568359375,0.0,,0.0
A,['2'],2,TMTstop-B_1_2.png,TMTstop-B_1_2firstgreen.png,TMTstop-B_1_2firstred.png,TMT_B,2,27,1.0,120.85954284667969,120.85954284667969,0.0,,1.0,1.0,0.0,2,-0.08427690000098664,120.85954284667969,120.85954284667969,0.0,,1.0
2,['1'],1,TMTstop-B_1_2linestimulus0.png,TMTstop-B_1_2greenlinestimulus0.png,TMTstop-B_1_2redlinestimulus0.png,TMT_B,2,28,1.0,121.00102233886719,121.00102233886719,0.0,,1.0,1.0,0.0,3,1,-0.1263691999920411,0.020842099998844787,121.00102233886719,121.00102233886719,0.0,,2.0
B,['2'],2,TMTstop-B_1_2linestimulus1.png,TMTstop-B_1_2greenlinestimulus1.png,TMTstop-B_1_2redlinestimulus1.png,TMT_B,2,29,1.0,121.14385223388672,121.14385223388672,0.0,,1.0,1.0,0.0,2,-0.03353709999646526,121.14385223388672,121.14385223388672,0.0,,3.0
3,['1'],1,TMTstop-B_1_2linestimulus2.png,TMTstop-B_1_2greenlinestimulus2.png,TMTstop-B_1_2redlinestimulus2.png,TMT_B,2,30,1.0,121.28042602539062,121.28042602539062,0.0,,1.0,1.0,0.0,3,1,2,3,1,-0.0785974000027636,0.048359499996877275,0.13213640000321902,0.22217619999719318,0.3653123999974923,121.28042602539062,121.28042602539062,0.0,,4.0
C,['3'],3,TMTstop-B_1_2linestimulus3.png,TMTstop-B_1_2greenlinestimulus3.png,TMTstop-B_1_2redlinestimulus3.png,TMT_B,2,31,1.0,121.81073760986328,121.81073760986328,0.0,,1.0,1.0,0.0,2,3,-0.09509769998840056,0.048240100004477426,121.81073760986328,121.81073760986328,0.0,,5.0
4,['2'],2,TMTstop-B_1_2linestimulus4.png,TMTstop-B_1_2greenlinestimulus4.png,TMTstop-B_1_2redlinestimulus4.png,TMT_B,2,32,1.0,122.07727813720703,122.07727813720703,0.0,,1.0,1.0,0.0,1,2,-0.043231700008618645,-0.0042138999997405335,122.07727813720703,122.07727813720703,0.0,,6.0
D,['1'],1,TMTstop-B_1_2linestimulus5.png,TMTstop-B_1_2greenlinestimulus5.png,TMTstop-B_1_2redlinestimulus5.png,TMT_B,2,33,1.0,122.21472930908203,122.21472930908203,0.0,,1.0,1.0,0.0,3,1,0.03745450000860728,0.25094140000874177,122.21472930908203,122.21472930908203,0.0,,7.0
5,['2'],2,TMTstop-B_1_2linestimulus6.png,TMTstop-B_1_2greenlinestimulus6.png,TMTstop-B_1_2redlinestimulus6.png,TMT_B,2,34,1.0,122.60848236083984,122.60848236083984,0.0,,1.0,1.0,0.0,2,-0.05413760000374168,122.60848236083984,122.60848236083984,0.0,,8.0
E,['3'],3,TMTstop-B_1_2linestimulus7.png,TMTstop-B_1_2greenlinestimulus7.png,TMTstop-B_1_2redlinestimulus7.png,TMT_B,2,35,1.0,122.73355865478516,122.73355865478516,0.0,,1.0,1.0,0.0,3,-0.02531190001172945,122.73355865478516,122.73355865478516,0.0,,9.0
6,['1'],1,TMTstop-B_1_2linestimulus8.png,TMTstop-B_1_2greenlinestimulus8.png,TMTstop-B_1_2redlinestimulus8.png,TMT_B,2,36,1.0,122.85828399658203,122.85828399658203,0.0,,1.0,1.0,0.0,1,0.04016730000148527,122.85828399658203,122.85828399658203,0.0,,10.0
F,['3'],3,TMTstop-B_1_2linestimulus9.png,TMTstop-B_1_2greenlinestimulus9.png,TMTstop-B_1_2redlinestimulus9.png,TMT_B,2,37,1.0,123.12291717529297,123.12291717529297,0.0,,1.0,1.0,0.0,2,3,-0.09150539999245666,-0.04497309999715071,123.12291717529297,123.12291717529297,0.0,,11.0
7,['1'],1,TMTstop-B_1_2linestimulus10.png,TMTstop-B_1_2greenlinestimulus10.png,TMTstop-B_1_2redlinestimulus10.png,TMT_B,2,38,1.0,123.25001525878906,123.25001525878906,0.0,,1.0,1.0,0.0,1,0.009526299996650778,123.25001525878906,123.25001525878906,0.0,,12.0
G,['2'],2,TMTstop-B_1_2linestimulus11.png,TMTstop-B_1_2greenlinestimulus11.png,TMTstop-B_1_2redlinestimulus11.png,TMT_B,2,39,1.0,123.37498474121094,123.37498474121094,0.0,,1.0,1.0,0.0,2,-0.014681400003610179,123.37498474121094,123.37498474121094,0.0,,13.0
8,['1'],1,TMTstop-B_1_2linestimulus12.png,TMTstop-B_1_2greenlinestimulus12.png,TMTstop-B_1_2redlinestimulus12.png,TMT_B,2,40,1.0,123.50019073486328,123.50019073486328,0.0,,1.0,1.0,0.0,3,1,-0.05223830000613816,0.16770249999535736,123.50019073486328,123.50019073486328,0.0,,14.0
H,['2'],2,TMTstop-B_1_2linestimulus13.png,TMTstop-B_1_2greenlinestimulus13.png,TMTstop-B_1_2redlinestimulus13.png,TMT_B,2,41,1.0,123.75422668457031,123.75422668457031,0.0,,1.0,1.0,0.0,2,0.0005907000013394281,123.75422668457031,123.75422668457031,0.0,,15.0
9,['3'],3,TMTstop-B_1_2linestimulus14.png,TMTstop-B_1_2greenlinestimulus14.png,TMTstop-B_1_2redlinestimulus14.png,TMT_B,2,42,1.0,123.87842559814453,123.87842559814453,0.0,,1.0,1.0,0.0,3,-0.016607900004601106,123.87842559814453,123.87842559814453,0.0,,16.0
I,['1'],1,TMTstop-B_1_2linestimulus15.png,TMTstop-B_1_2greenlinestimulus15.png,TMTstop-B_1_2redlinestimulus15.png,TMT_B,2,43,1.0,124.00633239746094,124.00633239746094,0.0,,1.0,1.0,0.0,1,0.0014802000077906996,124.00633239746094,124.00633239746094,0.0,,17.0
10,['2'],2,TMTstop-B_1_2linestimulus16.png,TMTstop-B_1_2greenlinestimulus16.png,TMTstop-B_1_2redlinestimulus16.png,TMT_B,2,44,1.0,124.13365936279297,124.13365936279297,0.0,,1.0,1.0,0.0,2,-0.06662940001115203,124.13365936279297,124.13365936279297,0.0,,18.0
J,['1'],1,TMTstop-B_1_2linestimulus17.png,TMTstop-B_1_2greenlinestimulus17.png,TMTstop-B_1_2redlinestimulus17.png,TMT_B,2,45,1.0,124.276123046875,124.276123046875,0.0,,1.0,1.0,0.0,3,1,-0.09412439999869093,0.06798590000835247,124.276123046875,124.276123046875,0.0,,19.0
11,['3'],3,TMTstop-B_1_2linestimulus18.png,TMTstop-B_1_2greenlinestimulus18.png,TMTstop-B_1_2redlinestimulus18.png,TMT_B,2,46,1.0,124.53121185302734,124.53121185302734,0.0,,1.0,1.0,0.0,2,3,-0.07818849998875521,-0.006190100000821985,124.53121185302734,124.53121185302734,0.0,,20.0
K,['2'],2,TMTstop-B_1_2linestimulus19.png,TMTstop-B_1_2greenlinestimulus19.png,TMTstop-B_1_2redlinestimulus19.png,TMT_B,2,47,1.0,124.65788269042969,124.65788269042969,0.0,,1.0,1.0,0.0,1,2,0.2958890000008978,0.3937614000024041,124.65788269042969,124.65788269042969,0.0,,21.0
12,['1'],1,TMTstop-B_1_2linestimulus20.png,TMTstop-B_1_2greenlinestimulus20.png,TMTstop-B_1_2redlinestimulus20.png,TMT_B,2,48,1.0,125.1911392211914,125.1911392211914,0.0,,1.0,1.0,0.0,3,1,2,3,1,-0.057214200001908466,0.07503929999074899,0.14249379999819212,0.27055879999534227,0.4052672999969218,125.1911392211914,125.1911392211914,0.0,,22.0
L,['2'],2,TMTstop-B_1_2linestimulus21.png,TMTstop-B_1_2greenlinestimulus21.png,TMTstop-B_1_2redlinestimulus21.png,TMT_B,2,49,1.0,125.72527313232422,125.72527313232422,0.0,,1.0,1.0,0.0,2,0.04426100000273436,125.72527313232422,125.72527313232422,0.0,,23.0
13,['1'],1,TMTstop-B_1_2linestimulus22.png,TMTstop-B_1_2greenlinestimulus22.png,TMTstop-B_1_2redlinestimulus22.png,TMT_B,2,50,1.0,125.86528778076172,125.86528778076172,0.0,,1.0,1.0,0.0,1,0.28172060000360943,125.86528778076172,125.86528778076172,0.0,,24.0
None,None,None,TMTstop-B_1_2linestimulus23.png,TMTstop-B_1_2greenlinestimulus23.png,TMTstop-B_1_2redlinestimulus23.png,TMT_B,2,Feedback_last,1.0,126.25672149658203,126.25672149658203,0.0,,0.0,0.0,0.0,2,3,-0.05858899999293499,0.09501889999955893,126.25672149658203,126.25672149658203,0.0,,25.0

extraInfo
participant,
session,001
date,2022_May_10_1109
expName,TMT_fmri
psychopyVersion,2021.2.3
frameRate,122.71384113973052
