NumberLetter,corrAns,Correct,StimFile,Correct_StimFile,False_StimFile,Version,Block,TrialNumber_session,n,Stim.started_mean,Stim.started_raw,Stim.started_std,Stim.stopped_raw,key_resp_2.corr_mean,key_resp_2.corr_raw,key_resp_2.corr_std,key_resp_2.keys_raw,key_resp_2.rt_raw,key_resp_2.started_mean,key_resp_2.started_raw,key_resp_2.started_std,key_resp_2.stopped_raw,order
1,['3'],3,TMTstop-control_1_5.png,TMTstop-control_1_5.png,TMTstop-control_1_5.png,TMT_Control,5,101,1.0,144.21127319335938,144.21127319335938,0.0,,1.0,1.0,0.0,2,3,0.7651897000032477,1.3633050000062212,144.21127319335938,144.21127319335938,0.0,,0.0
2,['2'],2,TMTstop-control_1_5.png,TMTstop-control_1_5firstgreen.png,TMTstop-control_1_5firstred.png,TMT_Control,5,102,1.0,145.64913940429688,145.64913940429688,0.0,,1.0,1.0,0.0,1,2,0.18721410000580363,0.2506420999998227,145.64913940429688,145.64913940429688,0.0,,1.0
3,['1'],1,TMTstop-control_1_5linestimulus0.png,TMTstop-control_1_5greenlinestimulus0.png,TMTstop-control_1_5redlinestimulus0.png,TMT_Control,5,103,1.0,145.95703125,145.95703125,0.0,,1.0,1.0,0.0,3,1,2,3,1,0.09045120002701879,0.3878186000220012,0.40406000000075437,0.5928138000017498,1.1834054000210017,145.95703125,145.95703125,0.0,,2.0
4,['3'],3,TMTstop-control_1_5linestimulus1.png,TMTstop-control_1_5greenlinestimulus1.png,TMTstop-control_1_5redlinestimulus1.png,TMT_Control,5,104,1.0,147.22225952148438,147.22225952148438,0.0,,1.0,1.0,0.0,3,0.2481827000156045,147.22225952148438,147.22225952148438,0.0,,3.0
5,['1'],1,TMTstop-control_1_5linestimulus2.png,TMTstop-control_1_5greenlinestimulus2.png,TMTstop-control_1_5redlinestimulus2.png,TMT_Control,5,105,1.0,147.53038024902344,147.53038024902344,0.0,,1.0,1.0,0.0,1,0.13737979999859817,147.53038024902344,147.53038024902344,0.0,,4.0
6,['2'],2,TMTstop-control_1_5linestimulus3.png,TMTstop-control_1_5greenlinestimulus3.png,TMTstop-control_1_5redlinestimulus3.png,TMT_Control,5,106,1.0,147.73779296875,147.73779296875,0.0,,1.0,1.0,0.0,2,0.05010500000207685,147.73779296875,147.73779296875,0.0,,5.0
7,['3'],3,TMTstop-control_1_5linestimulus4.png,TMTstop-control_1_5greenlinestimulus4.png,TMTstop-control_1_5redlinestimulus4.png,TMT_Control,5,107,1.0,147.837890625,147.837890625,0.0,,1.0,1.0,0.0,3,0.05860240000765771,147.837890625,147.837890625,0.0,,6.0
8,['2'],2,TMTstop-control_1_5linestimulus4.png,TMTstop-control_1_5greenlinestimulus5.png,TMTstop-control_1_5redlinestimulus5.png,TMT_Control,5,108,1.0,147.96298217773438,147.96298217773438,0.0,,1.0,1.0,0.0,1,2,0.1484651000064332,0.2047139999922365,147.96298217773438,147.96298217773438,0.0,,7.0
9,['1'],1,TMTstop-control_1_5linestimulus6.png,TMTstop-control_1_5greenlinestimulus6.png,TMTstop-control_1_5redlinestimulus6.png,TMT_Control,5,109,1.0,148.25318908691406,148.25318908691406,0.0,,1.0,1.0,0.0,3,1,0.04288229998201132,0.20730819998425432,148.25318908691406,148.25318908691406,0.0,,8.0
10,['2'],2,TMTstop-control_1_5linestimulus7.png,TMTstop-control_1_5greenlinestimulus7.png,TMTstop-control_1_5redlinestimulus7.png,TMT_Control,5,110,1.0,148.51638793945312,148.51638793945312,0.0,,1.0,1.0,0.0,2,0.004275599989341572,148.51638793945312,148.51638793945312,0.0,,9.0
11,['1'],1,TMTstop-control_1_5linestimulus8.png,TMTstop-control_1_5greenlinestimulus8.png,TMTstop-control_1_5redlinestimulus8.png,TMT_Control,5,111,1.0,148.5908203125,148.5908203125,0.0,,1.0,1.0,0.0,3,1,0.04328380001243204,0.18504159999429248,148.5908203125,148.5908203125,0.0,,10.0
12,['3'],3,TMTstop-control_1_5linestimulus9.png,TMTstop-control_1_5greenlinestimulus9.png,TMTstop-control_1_5redlinestimulus9.png,TMT_Control,5,112,1.0,148.8487091064453,148.8487091064453,0.0,,1.0,1.0,0.0,2,3,0.021509199985302985,0.11239689998910762,148.8487091064453,148.8487091064453,0.0,,11.0
13,['2'],2,TMTstop-control_1_5linestimulus10.png,TMTstop-control_1_5greenlinestimulus10.png,TMTstop-control_1_5redlinestimulus10.png,TMT_Control,5,113,1.0,149.0489501953125,149.0489501953125,0.0,,1.0,1.0,0.0,1,2,0.05336119999992661,0.12171450001187623,149.0489501953125,149.0489501953125,0.0,,12.0
14,['3'],3,TMTstop-control_1_5linestimulus11.png,TMTstop-control_1_5greenlinestimulus11.png,TMTstop-control_1_5redlinestimulus11.png,TMT_Control,5,114,1.0,149.26138305664062,149.26138305664062,0.0,,1.0,1.0,0.0,3,0.03292309999233112,149.26138305664062,149.26138305664062,0.0,,13.0
15,['1'],1,TMTstop-control_1_5linestimulus12.png,TMTstop-control_1_5greenlinestimulus12.png,TMTstop-control_1_5redlinestimulus12.png,TMT_Control,5,115,1.0,149.35205078125,149.35205078125,0.0,,1.0,1.0,0.0,1,0.09150660000159405,149.35205078125,149.35205078125,0.0,,14.0
16,['2'],2,TMTstop-control_1_5linestimulus13.png,TMTstop-control_1_5greenlinestimulus13.png,TMTstop-control_1_5redlinestimulus13.png,TMT_Control,5,116,1.0,149.5022430419922,149.5022430419922,0.0,,1.0,1.0,0.0,2,0.004513599997153506,149.5022430419922,149.5022430419922,0.0,,15.0
17,['3'],3,TMTstop-control_1_5linestimulus14.png,TMTstop-control_1_5greenlinestimulus14.png,TMTstop-control_1_5redlinestimulus14.png,TMT_Control,5,117,1.0,149.5689239501953,149.5689239501953,0.0,,1.0,1.0,0.0,3,0.057721000019228086,149.5689239501953,149.5689239501953,0.0,,16.0
18,['1'],1,TMTstop-control_1_5linestimulus15.png,TMTstop-control_1_5greenlinestimulus15.png,TMTstop-control_1_5redlinestimulus15.png,TMT_Control,5,118,1.0,149.68527221679688,149.68527221679688,0.0,,1.0,1.0,0.0,1,0.10153479999280535,149.68527221679688,149.68527221679688,0.0,,17.0
19,['2'],2,TMTstop-control_1_5linestimulus16.png,TMTstop-control_1_5greenlinestimulus16.png,TMTstop-control_1_5redlinestimulus16.png,TMT_Control,5,119,1.0,149.84371948242188,149.84371948242188,0.0,,1.0,1.0,0.0,2,-0.0039370000013150275,149.84371948242188,149.84371948242188,0.0,,18.0
20,['1'],1,TMTstop-control_1_5linestimulus17.png,TMTstop-control_1_5greenlinestimulus17.png,TMTstop-control_1_5redlinestimulus17.png,TMT_Control,5,120,1.0,149.89315795898438,149.89315795898438,0.0,,1.0,1.0,0.0,3,1,0.07325570000102744,0.20957090001320466,149.89315795898438,149.89315795898438,0.0,,19.0
21,['2'],2,TMTstop-control_1_5linestimulus18.png,TMTstop-control_1_5greenlinestimulus18.png,TMTstop-control_1_5redlinestimulus18.png,TMT_Control,5,121,1.0,150.1890869140625,150.1890869140625,0.0,,1.0,1.0,0.0,2,-0.02250839999760501,150.1890869140625,150.1890869140625,0.0,,20.0
22,['1'],1,TMTstop-control_1_5linestimulus19.png,TMTstop-control_1_5greenlinestimulus19.png,TMTstop-control_1_5redlinestimulus19.png,TMT_Control,5,122,1.0,150.23883056640625,150.23883056640625,0.0,,1.0,1.0,0.0,3,1,0.0422804000263568,0.21181440001237206,150.23883056640625,150.23883056640625,0.0,,21.0
23,['3'],3,TMTstop-control_1_5linestimulus20.png,TMTstop-control_1_5greenlinestimulus20.png,TMTstop-control_1_5redlinestimulus20.png,TMT_Control,5,123,1.0,150.50344848632812,150.50344848632812,0.0,,1.0,1.0,0.0,2,3,0.030144999996991828,0.14752579998457804,150.50344848632812,150.50344848632812,0.0,,22.0
24,['1'],1,TMTstop-control_1_5linestimulus21.png,TMTstop-control_1_5greenlinestimulus21.png,TMTstop-control_1_5redlinestimulus21.png,TMT_Control,5,124,1.0,150.72042846679688,150.72042846679688,0.0,,1.0,1.0,0.0,1,0.08865059999516234,150.72042846679688,150.72042846679688,0.0,,23.0
25,['3'],3,TMTstop-control_1_5linestimulus22.png,TMTstop-control_1_5greenlinestimulus22.png,TMTstop-control_1_5redlinestimulus22.png,TMT_Control,5,125,1.0,150.87045288085938,150.87045288085938,0.0,,1.0,1.0,0.0,2,3,-0.0015368000022135675,0.12563819999922998,150.87045288085938,150.87045288085938,0.0,,24.0
None,None,None,TMTstop-control_1_5linestimulus23.png,TMTstop-control_1_5greenlinestimulus23.png,TMTstop-control_1_5redlinestimulus23.png,TMT_Control,5,Feedback_last,1.0,151.08016967773438,151.08016967773438,0.0,,0.0,0.0,0.0,1,2,0.045272499992279336,0.15559820001362823,151.08016967773438,151.08016967773438,0.0,,25.0

extraInfo
participant,
session,001
date,2022_May_11_1050
expName,TMT_fmri
psychopyVersion,2021.2.3
frameRate,59.917948361028124
﻿NumberLetter,corrAns,Correct,StimFile,Correct_StimFile,False_StimFile,Version,Block,TrialNumber_session,n,Stim.started_mean,Stim.started_raw,Stim.started_std,Stim.stopped_raw,key_resp_2.corr_mean,key_resp_2.corr_raw,key_resp_2.corr_std,key_resp_2.keys_raw,key_resp_2.rt_raw,key_resp_2.started_mean,key_resp_2.started_raw,key_resp_2.started_std,key_resp_2.stopped_raw,order
1,['3'],3,TMTstop-control_1_6.png,TMTstop-control_1_6.png,TMTstop-control_1_6.png,TMT_Control,6,126,1.0,155.22010803222656,155.22010803222656,0.0,,1.0,1.0,0.0,1,2,3,0.45730439998442307,0.5464821999776177,0.647369099984644,155.22010803222656,155.22010803222656,0.0,,0.0
2,['2'],2,TMTstop-control_1_6.png,TMTstop-control_1_6firstgreen.png,TMTstop-control_1_6firstred.png,TMT_Control,6,127,1.0,155.9524383544922,155.9524383544922,0.0,,1.0,1.0,0.0,1,2,0.061620599997695535,0.12296649999916553,155.9524383544922,155.9524383544922,0.0,,1.0
3,['1'],1,TMTstop-control_1_6linestimulus0.png,TMTstop-control_1_6greenlinestimulus0.png,TMTstop-control_1_6redlinestimulus0.png,TMT_Control,6,128,1.0,156.14476013183594,156.14476013183594,0.0,,1.0,1.0,0.0,3,1,0.04017100000055507,0.1824194000218995,156.14476013183594,156.14476013183594,0.0,,2.0
4,['2'],2,TMTstop-control_1_6linestimulus1.png,TMTstop-control_1_6greenlinestimulus1.png,TMTstop-control_1_6redlinestimulus1.png,TMT_Control,6,129,1.0,156.40252685546875,156.40252685546875,0.0,,1.0,1.0,0.0,2,-0.01989070000126958,156.40252685546875,156.40252685546875,0.0,,3.0
5,['3'],3,TMTstop-control_1_6linestimulus2.png,TMTstop-control_1_6greenlinestimulus2.png,TMTstop-control_1_6redlinestimulus2.png,TMT_Control,6,130,1.0,156.45269775390625,156.45269775390625,0.0,,1.0,1.0,0.0,3,0.05031859999871813,156.45269775390625,156.45269775390625,0.0,,4.0
6,['2'],2,TMTstop-control_1_6linestimulus3.png,TMTstop-control_1_6greenlinestimulus3.png,TMTstop-control_1_6redlinestimulus3.png,TMT_Control,6,131,1.0,156.55270385742188,156.55270385742188,0.0,,1.0,1.0,0.0,1,2,0.08231209998484701,0.13585069999680854,156.55270385742188,156.55270385742188,0.0,,5.0
7,['1'],1,TMTstop-control_1_6linestimulus4.png,TMTstop-control_1_6greenlinestimulus4.png,TMTstop-control_1_6redlinestimulus4.png,TMT_Control,6,132,1.0,156.79226684570312,156.79226684570312,0.0,,1.0,1.0,0.0,3,1,-0.01127640000777319,0.127396800002316,156.79226684570312,156.79226684570312,0.0,,6.0
8,['3'],3,TMTstop-control_1_6linestimulus4.png,TMTstop-control_1_6greenlinestimulus5.png,TMTstop-control_1_6redlinestimulus5.png,TMT_Control,6,133,1.0,156.99252319335938,156.99252319335938,0.0,,1.0,1.0,0.0,2,3,0.00039159998414106667,0.12223790001007728,156.99252319335938,156.99252319335938,0.0,,7.0
9,['2'],2,TMTstop-control_1_6linestimulus6.png,TMTstop-control_1_6greenlinestimulus6.png,TMTstop-control_1_6redlinestimulus6.png,TMT_Control,6,134,1.0,157.1927032470703,157.1927032470703,0.0,,1.0,1.0,0.0,1,2,0.15013920000637881,0.21984340000199154,157.1927032470703,157.1927032470703,0.0,,8.0
10,['1'],1,TMTstop-control_1_6linestimulus7.png,TMTstop-control_1_6greenlinestimulus7.png,TMTstop-control_1_6redlinestimulus7.png,TMT_Control,6,135,1.0,157.49876403808594,157.49876403808594,0.0,,1.0,1.0,0.0,3,1,0.019224499992560595,0.17791500000748783,157.49876403808594,157.49876403808594,0.0,,9.0
11,['2'],2,TMTstop-control_1_6linestimulus8.png,TMTstop-control_1_6greenlinestimulus8.png,TMTstop-control_1_6redlinestimulus8.png,TMT_Control,6,136,1.0,157.73939514160156,157.73939514160156,0.0,,1.0,1.0,0.0,2,-0.014901599992299452,157.73939514160156,157.73939514160156,0.0,,10.0
12,['3'],3,TMTstop-control_1_6linestimulus9.png,TMTstop-control_1_6greenlinestimulus9.png,TMTstop-control_1_6redlinestimulus9.png,TMT_Control,6,137,1.0,157.78973388671875,157.78973388671875,0.0,,1.0,1.0,0.0,3,0.04887329999473877,157.78973388671875,157.78973388671875,0.0,,11.0
13,['1'],1,TMTstop-control_1_6linestimulus10.png,TMTstop-control_1_6greenlinestimulus10.png,TMTstop-control_1_6redlinestimulus10.png,TMT_Control,6,138,1.0,157.88987731933594,157.88987731933594,0.0,,1.0,1.0,0.0,1,0.0851340000226628,157.88987731933594,157.88987731933594,0.0,,12.0
14,['3'],3,TMTstop-control_1_6linestimulus11.png,TMTstop-control_1_6greenlinestimulus11.png,TMTstop-control_1_6redlinestimulus11.png,TMT_Control,6,139,1.0,158.03964233398438,158.03964233398438,0.0,,1.0,1.0,0.0,2,3,0.005826900014653802,0.08726970001589507,158.03964233398438,158.03964233398438,0.0,,13.0
15,['2'],2,TMTstop-control_1_6linestimulus12.png,TMTstop-control_1_6greenlinestimulus12.png,TMTstop-control_1_6redlinestimulus12.png,TMT_Control,6,140,1.0,158.21365356445312,158.21365356445312,0.0,,1.0,1.0,0.0,1,2,0.04303639999125153,0.10583929999847896,158.21365356445312,158.21365356445312,0.0,,14.0
16,['3'],3,TMTstop-control_1_6linestimulus13.png,TMTstop-control_1_6greenlinestimulus13.png,TMTstop-control_1_6redlinestimulus13.png,TMT_Control,6,141,1.0,158.41387939453125,158.41387939453125,0.0,,1.0,1.0,0.0,3,0.005170699994778261,158.41387939453125,158.41387939453125,0.0,,15.0
17,['1'],1,TMTstop-control_1_6linestimulus14.png,TMTstop-control_1_6greenlinestimulus14.png,TMTstop-control_1_6redlinestimulus14.png,TMT_Control,6,142,1.0,158.48719787597656,158.48719787597656,0.0,,1.0,1.0,0.0,1,0.07149700002628379,158.48719787597656,158.48719787597656,0.0,,16.0
18,['2'],2,TMTstop-control_1_6linestimulus15.png,TMTstop-control_1_6greenlinestimulus15.png,TMTstop-control_1_6redlinestimulus15.png,TMT_Control,6,143,1.0,158.62396240234375,158.62396240234375,0.0,,1.0,1.0,0.0,2,-0.014396999991731718,158.62396240234375,158.62396240234375,0.0,,17.0
19,['3'],3,TMTstop-control_1_6linestimulus16.png,TMTstop-control_1_6greenlinestimulus16.png,TMTstop-control_1_6redlinestimulus16.png,TMT_Control,6,144,1.0,158.6803436279297,158.6803436279297,0.0,,1.0,1.0,0.0,3,0.04161329998169094,158.6803436279297,158.6803436279297,0.0,,18.0
20,['2'],2,TMTstop-control_1_6linestimulus17.png,TMTstop-control_1_6greenlinestimulus17.png,TMTstop-control_1_6redlinestimulus17.png,TMT_Control,6,145,1.0,158.78041076660156,158.78041076660156,0.0,,1.0,1.0,0.0,1,2,0.05681320000439882,0.1233801000053063,158.78041076660156,158.78041076660156,0.0,,19.0
21,['1'],1,TMTstop-control_1_6linestimulus18.png,TMTstop-control_1_6greenlinestimulus18.png,TMTstop-control_1_6redlinestimulus18.png,TMT_Control,6,146,1.0,159.00526428222656,159.00526428222656,0.0,,1.0,1.0,0.0,3,1,0.006882599991513416,0.13919000001624227,159.00526428222656,159.00526428222656,0.0,,20.0
22,['2'],2,TMTstop-control_1_6linestimulus19.png,TMTstop-control_1_6greenlinestimulus19.png,TMTstop-control_1_6redlinestimulus19.png,TMT_Control,6,147,0.0,,,,'--',,,,'--','--',,,,'--',
23,['1'],1,TMTstop-control_1_6linestimulus20.png,TMTstop-control_1_6greenlinestimulus20.png,TMTstop-control_1_6redlinestimulus20.png,TMT_Control,6,148,0.0,,,,'--',,,,'--','--',,,,'--',
24,['2'],2,TMTstop-control_1_6linestimulus21.png,TMTstop-control_1_6greenlinestimulus21.png,TMTstop-control_1_6redlinestimulus21.png,TMT_Control,6,149,0.0,,,,'--',,,,'--','--',,,,'--',
25,['3'],3,TMTstop-control_1_6linestimulus22.png,TMTstop-control_1_6greenlinestimulus22.png,TMTstop-control_1_6redlinestimulus22.png,TMT_Control,6,150,0.0,,,,'--',,,,'--','--',,,,'--',
None,None,None,TMTstop-control_1_6linestimulus23.png,TMTstop-control_1_6greenlinestimulus23.png,TMTstop-control_1_6redlinestimulus23.png,TMT_Control,6,Feedback_last,0.0,,,,'--',,,,'--','--',,,,'--',

extraInfo
participant,
session,001
date,2022_May_11_1050
expName,TMT_fmri
psychopyVersion,2021.2.3
frameRate,59.917948361028124
﻿NumberLetter,corrAns,Correct,StimFile,Correct_StimFile,False_StimFile,Version,Block,TrialNumber_session,n,Stim.started_raw,Stim.stopped_raw,key_resp_2.corr_mean,key_resp_2.corr_raw,key_resp_2.corr_std,key_resp_2.keys_raw,key_resp_2.started_raw,key_resp_2.stopped_raw,order
1,['1'],1,TMTstop-control_1_7.png,TMTstop-control_1_7.png,TMTstop-control_1_7.png,TMT_Control,7,151,1.0,162.28300565002428,,0.0,0.0,0.0,,162.28300565002428,,0.0
2,['2'],2,TMTstop-control_1_7.png,TMTstop-control_1_7firstgreen.png,TMTstop-control_1_7firstred.png,TMT_Control,7,152,0.0,'--','--',,,,'--','--','--',
3,['3'],3,TMTstop-control_1_7linestimulus0.png,TMTstop-control_1_7greenlinestimulus0.png,TMTstop-control_1_7redlinestimulus0.png,TMT_Control,7,153,0.0,'--','--',,,,'--','--','--',
4,['2'],2,TMTstop-control_1_7linestimulus1.png,TMTstop-control_1_7greenlinestimulus1.png,TMTstop-control_1_7redlinestimulus1.png,TMT_Control,7,154,0.0,'--','--',,,,'--','--','--',
5,['3'],3,TMTstop-control_1_7linestimulus2.png,TMTstop-control_1_7greenlinestimulus2.png,TMTstop-control_1_7redlinestimulus2.png,TMT_Control,7,155,0.0,'--','--',,,,'--','--','--',
6,['1'],1,TMTstop-control_1_7linestimulus3.png,TMTstop-control_1_7greenlinestimulus3.png,TMTstop-control_1_7redlinestimulus3.png,TMT_Control,7,156,0.0,'--','--',,,,'--','--','--',
7,['3'],3,TMTstop-control_1_7linestimulus4.png,TMTstop-control_1_7greenlinestimulus4.png,TMTstop-control_1_7redlinestimulus4.png,TMT_Control,7,157,0.0,'--','--',,,,'--','--','--',
8,['2'],2,TMTstop-control_1_7linestimulus4.png,TMTstop-control_1_7greenlinestimulus5.png,TMTstop-control_1_7redlinestimulus5.png,TMT_Control,7,158,0.0,'--','--',,,,'--','--','--',
9,['3'],3,TMTstop-control_1_7linestimulus6.png,TMTstop-control_1_7greenlinestimulus6.png,TMTstop-control_1_7redlinestimulus6.png,TMT_Control,7,159,0.0,'--','--',,,,'--','--','--',
10,['2'],2,TMTstop-control_1_7linestimulus7.png,TMTstop-control_1_7greenlinestimulus7.png,TMTstop-control_1_7redlinestimulus7.png,TMT_Control,7,160,0.0,'--','--',,,,'--','--','--',
11,['1'],1,TMTstop-control_1_7linestimulus8.png,TMTstop-control_1_7greenlinestimulus8.png,TMTstop-control_1_7redlinestimulus8.png,TMT_Control,7,161,0.0,'--','--',,,,'--','--','--',
12,['2'],2,TMTstop-control_1_7linestimulus9.png,TMTstop-control_1_7greenlinestimulus9.png,TMTstop-control_1_7redlinestimulus9.png,TMT_Control,7,162,0.0,'--','--',,,,'--','--','--',
13,['3'],3,TMTstop-control_1_7linestimulus10.png,TMTstop-control_1_7greenlinestimulus10.png,TMTstop-control_1_7redlinestimulus10.png,TMT_Control,7,163,0.0,'--','--',,,,'--','--','--',
14,['1'],1,TMTstop-control_1_7linestimulus11.png,TMTstop-control_1_7greenlinestimulus11.png,TMTstop-control_1_7redlinestimulus11.png,TMT_Control,7,164,0.0,'--','--',,,,'--','--','--',
15,['2'],2,TMTstop-control_1_7linestimulus12.png,TMTstop-control_1_7greenlinestimulus12.png,TMTstop-control_1_7redlinestimulus12.png,TMT_Control,7,165,0.0,'--','--',,,,'--','--','--',
16,['3'],3,TMTstop-control_1_7linestimulus13.png,TMTstop-control_1_7greenlinestimulus13.png,TMTstop-control_1_7redlinestimulus13.png,TMT_Control,7,166,0.0,'--','--',,,,'--','--','--',
17,['1'],1,TMTstop-control_1_7linestimulus14.png,TMTstop-control_1_7greenlinestimulus14.png,TMTstop-control_1_7redlinestimulus14.png,TMT_Control,7,167,0.0,'--','--',,,,'--','--','--',
18,['2'],2,TMTstop-control_1_7linestimulus15.png,TMTstop-control_1_7greenlinestimulus15.png,TMTstop-control_1_7redlinestimulus15.png,TMT_Control,7,168,0.0,'--','--',,,,'--','--','--',
19,['3'],3,TMTstop-control_1_7linestimulus16.png,TMTstop-control_1_7greenlinestimulus16.png,TMTstop-control_1_7redlinestimulus16.png,TMT_Control,7,169,0.0,'--','--',,,,'--','--','--',
20,['2'],2,TMTstop-control_1_7linestimulus17.png,TMTstop-control_1_7greenlinestimulus17.png,TMTstop-control_1_7redlinestimulus17.png,TMT_Control,7,170,0.0,'--','--',,,,'--','--','--',
21,['3'],3,TMTstop-control_1_7linestimulus18.png,TMTstop-control_1_7greenlinestimulus18.png,TMTstop-control_1_7redlinestimulus18.png,TMT_Control,7,171,0.0,'--','--',,,,'--','--','--',
22,['2'],2,TMTstop-control_1_7linestimulus19.png,TMTstop-control_1_7greenlinestimulus19.png,TMTstop-control_1_7redlinestimulus19.png,TMT_Control,7,172,0.0,'--','--',,,,'--','--','--',
23,['3'],3,TMTstop-control_1_7linestimulus20.png,TMTstop-control_1_7greenlinestimulus20.png,TMTstop-control_1_7redlinestimulus20.png,TMT_Control,7,173,0.0,'--','--',,,,'--','--','--',
24,['2'],2,TMTstop-control_1_7linestimulus21.png,TMTstop-control_1_7greenlinestimulus21.png,TMTstop-control_1_7redlinestimulus21.png,TMT_Control,7,174,0.0,'--','--',,,,'--','--','--',
25,['3'],3,TMTstop-control_1_7linestimulus22.png,TMTstop-control_1_7greenlinestimulus22.png,TMTstop-control_1_7redlinestimulus22.png,TMT_Control,7,175,0.0,'--','--',,,,'--','--','--',
None,None,None,TMTstop-control_1_7linestimulus23.png,TMTstop-control_1_7greenlinestimulus23.png,TMTstop-control_1_7redlinestimulus23.png,TMT_Control,7,Feedback_last,0.0,'--','--',,,,'--','--','--',

extraInfo
participant,
session,001
date,2022_May_11_1050
expName,TMT_fmri
psychopyVersion,2021.2.3
frameRate,59.917948361028124
﻿NumberLetter,corrAns,Correct,StimFile,Correct_StimFile,False_StimFile,Version,Block,TrialNumber_session,n,Stim.started_raw,Stim.stopped_raw,key_resp_2.corr_mean,key_resp_2.corr_raw,key_resp_2.corr_std,key_resp_2.keys_raw,key_resp_2.started_raw,key_resp_2.stopped_raw,order
1,['3'],3,TMTstop-control_1_8.png,TMTstop-control_1_8.png,TMTstop-control_1_8.png,TMT_Control,8,176,1.0,162.5663529800484,,0.0,0.0,0.0,,162.5663529800484,,0.0
2,['2'],2,TMTstop-control_1_8.png,TMTstop-control_1_8firstgreen.png,TMTstop-control_1_8firstred.png,TMT_Control,8,177,0.0,'--','--',,,,'--','--','--',
3,['3'],3,TMTstop-control_1_8linestimulus0.png,TMTstop-control_1_8greenlinestimulus0.png,TMTstop-control_1_8redlinestimulus0.png,TMT_Control,8,178,0.0,'--','--',,,,'--','--','--',
4,['2'],2,TMTstop-control_1_8linestimulus1.png,TMTstop-control_1_8greenlinestimulus1.png,TMTstop-control_1_8redlinestimulus1.png,TMT_Control,8,179,0.0,'--','--',,,,'--','--','--',
5,['1'],1,TMTstop-control_1_8linestimulus2.png,TMTstop-control_1_8greenlinestimulus2.png,TMTstop-control_1_8redlinestimulus2.png,TMT_Control,8,180,0.0,'--','--',,,,'--','--','--',
6,['2'],2,TMTstop-control_1_8linestimulus3.png,TMTstop-control_1_8greenlinestimulus3.png,TMTstop-control_1_8redlinestimulus3.png,TMT_Control,8,181,0.0,'--','--',,,,'--','--','--',
7,['1'],1,TMTstop-control_1_8linestimulus4.png,TMTstop-control_1_8greenlinestimulus4.png,TMTstop-control_1_8redlinestimulus4.png,TMT_Control,8,182,0.0,'--','--',,,,'--','--','--',
8,['2'],2,TMTstop-control_1_8linestimulus4.png,TMTstop-control_1_8greenlinestimulus5.png,TMTstop-control_1_8redlinestimulus5.png,TMT_Control,8,183,0.0,'--','--',,,,'--','--','--',
9,['3'],3,TMTstop-control_1_8linestimulus6.png,TMTstop-control_1_8greenlinestimulus6.png,TMTstop-control_1_8redlinestimulus6.png,TMT_Control,8,184,0.0,'--','--',,,,'--','--','--',
10,['2'],2,TMTstop-control_1_8linestimulus7.png,TMTstop-control_1_8greenlinestimulus7.png,TMTstop-control_1_8redlinestimulus7.png,TMT_Control,8,185,0.0,'--','--',,,,'--','--','--',
11,['1'],1,TMTstop-control_1_8linestimulus8.png,TMTstop-control_1_8greenlinestimulus8.png,TMTstop-control_1_8redlinestimulus8.png,TMT_Control,8,186,0.0,'--','--',,,,'--','--','--',
12,['3'],3,TMTstop-control_1_8linestimulus9.png,TMTstop-control_1_8greenlinestimulus9.png,TMTstop-control_1_8redlinestimulus9.png,TMT_Control,8,187,0.0,'--','--',,,,'--','--','--',
13,['1'],1,TMTstop-control_1_8linestimulus10.png,TMTstop-control_1_8greenlinestimulus10.png,TMTstop-control_1_8redlinestimulus10.png,TMT_Control,8,188,0.0,'--','--',,,,'--','--','--',
14,['3'],3,TMTstop-control_1_8linestimulus11.png,TMTstop-control_1_8greenlinestimulus11.png,TMTstop-control_1_8redlinestimulus11.png,TMT_Control,8,189,0.0,'--','--',,,,'--','--','--',
15,['1'],1,TMTstop-control_1_8linestimulus12.png,TMTstop-control_1_8greenlinestimulus12.png,TMTstop-control_1_8redlinestimulus12.png,TMT_Control,8,190,0.0,'--','--',,,,'--','--','--',
16,['3'],3,TMTstop-control_1_8linestimulus13.png,TMTstop-control_1_8greenlinestimulus13.png,TMTstop-control_1_8redlinestimulus13.png,TMT_Control,8,191,0.0,'--','--',,,,'--','--','--',
17,['1'],1,TMTstop-control_1_8linestimulus14.png,TMTstop-control_1_8greenlinestimulus14.png,TMTstop-control_1_8redlinestimulus14.png,TMT_Control,8,192,0.0,'--','--',,,,'--','--','--',
18,['2'],2,TMTstop-control_1_8linestimulus15.png,TMTstop-control_1_8greenlinestimulus15.png,TMTstop-control_1_8redlinestimulus15.png,TMT_Control,8,193,0.0,'--','--',,,,'--','--','--',
19,['1'],1,TMTstop-control_1_8linestimulus16.png,TMTstop-control_1_8greenlinestimulus16.png,TMTstop-control_1_8redlinestimulus16.png,TMT_Control,8,194,0.0,'--','--',,,,'--','--','--',
20,['3'],3,TMTstop-control_1_8linestimulus17.png,TMTstop-control_1_8greenlinestimulus17.png,TMTstop-control_1_8redlinestimulus17.png,TMT_Control,8,195,0.0,'--','--',,,,'--','--','--',
21,['2'],2,TMTstop-control_1_8linestimulus18.png,TMTstop-control_1_8greenlinestimulus18.png,TMTstop-control_1_8redlinestimulus18.png,TMT_Control,8,196,0.0,'--','--',,,,'--','--','--',
22,['3'],3,TMTstop-control_1_8linestimulus19.png,TMTstop-control_1_8greenlinestimulus19.png,TMTstop-control_1_8redlinestimulus19.png,TMT_Control,8,197,0.0,'--','--',,,,'--','--','--',
23,['1'],1,TMTstop-control_1_8linestimulus20.png,TMTstop-control_1_8greenlinestimulus20.png,TMTstop-control_1_8redlinestimulus20.png,TMT_Control,8,198,0.0,'--','--',,,,'--','--','--',
24,['2'],2,TMTstop-control_1_8linestimulus21.png,TMTstop-control_1_8greenlinestimulus21.png,TMTstop-control_1_8redlinestimulus21.png,TMT_Control,8,199,0.0,'--','--',,,,'--','--','--',
25,['3'],3,TMTstop-control_1_8linestimulus22.png,TMTstop-control_1_8greenlinestimulus22.png,TMTstop-control_1_8redlinestimulus22.png,TMT_Control,8,200,0.0,'--','--',,,,'--','--','--',
None,None,None,TMTstop-control_1_8linestimulus23.png,TMTstop-control_1_8greenlinestimulus23.png,TMTstop-control_1_8redlinestimulus23.png,TMT_Control,8,Feedback_last,0.0,'--','--',,,,'--','--','--',

extraInfo
participant,
session,001
date,2022_May_11_1050
expName,TMT_fmri
psychopyVersion,2021.2.3
frameRate,59.917948361028124
