NumberLetter,corrAns,Correct,StimFile,Correct_StimFile,False_StimFile,Block,TrialNumber_session,n,Stim.started_mean,Stim.started_raw,Stim.started_std,Stim.stopped_raw,key_resp_2.corr_mean,key_resp_2.corr_raw,key_resp_2.corr_std,key_resp_2.keys_raw,key_resp_2.rt_raw,key_resp_2.started_mean,key_resp_2.started_raw,key_resp_2.started_std,key_resp_2.stopped_raw,order
1,['2'],2,TMTstop-B_1_1.png,TMTstop-B_1_1.png,TMTstop-B_1_1.png,1,1,1.0,83.20450592041016,83.20450592041016,0.0,,1.0,1.0,0.0,1,2,1.0636460999958217,1.2225232999771833,83.20450592041016,83.20450592041016,0.0,,0.0
A,['1'],1,TMTstop-B_1_1.png,TMTstop-B_1_1firstgreen.png,TMTstop-B_1_1firstred.png,1,2,1.0,84.5316162109375,84.5316162109375,0.0,,1.0,1.0,0.0,3,1,-0.0654651999939233,0.10779429995454848,84.5316162109375,84.5316162109375,0.0,,1.0
2,['2'],2,TMTstop-B_1_1linestimulus0.png,TMTstop-B_1_1greenlinestimulus0.png,TMTstop-B_1_1redlinestimulus0.png,1,3,1.0,84.72582244873047,84.72582244873047,0.0,,1.0,1.0,0.0,2,-0.01811730000190437,84.72582244873047,84.72582244873047,0.0,,2.0
B,['1'],1,TMTstop-B_1_1linestimulus1.png,TMTstop-B_1_1greenlinestimulus1.png,TMTstop-B_1_1redlinestimulus1.png,1,4,1.0,84.80924224853516,84.80924224853516,0.0,,1.0,1.0,0.0,3,1,0.016252300003543496,0.1505074999295175,84.80924224853516,84.80924224853516,0.0,,3.0
3,['3'],3,TMTstop-B_1_1linestimulus2.png,TMTstop-B_1_1greenlinestimulus2.png,TMTstop-B_1_1redlinestimulus2.png,1,5,1.0,85.06612396240234,85.06612396240234,0.0,,1.0,1.0,0.0,2,3,-0.04289839998818934,0.08221829985268414,85.06612396240234,85.06612396240234,0.0,,4.0
C,['2'],2,TMTstop-B_1_1linestimulus3.png,TMTstop-B_1_1greenlinestimulus3.png,TMTstop-B_1_1redlinestimulus3.png,1,6,1.0,85.22703552246094,85.22703552246094,0.0,,1.0,1.0,0.0,1,2,0.05260749999433756,0.1486611000727862,85.22703552246094,85.22703552246094,0.0,,5.0
4,['3'],3,TMTstop-B_1_1linestimulus4.png,TMTstop-B_1_1greenlinestimulus4.png,TMTstop-B_1_1redlinestimulus4.png,1,7,1.0,85.48572540283203,85.48572540283203,0.0,,1.0,1.0,0.0,3,-0.01331509998999536,85.48572540283203,85.48572540283203,0.0,,6.0
D,['1'],1,TMTstop-B_1_1linestimulus5.png,TMTstop-B_1_1greenlinestimulus5.png,TMTstop-B_1_1redlinestimulus5.png,1,8,1.0,85.56240844726562,85.56240844726562,0.0,,1.0,1.0,0.0,1,0.5952153999824077,85.56240844726562,85.56240844726562,0.0,,7.0
5,['2'],2,TMTstop-B_1_1linestimulus6.png,TMTstop-B_1_1greenlinestimulus6.png,TMTstop-B_1_1redlinestimulus6.png,1,9,1.0,86.2325210571289,86.2325210571289,0.0,,1.0,1.0,0.0,2,0.043265199987217784,86.2325210571289,86.2325210571289,0.0,,8.0
E,['3'],3,TMTstop-B_1_1linestimulus7.png,TMTstop-B_1_1greenlinestimulus7.png,TMTstop-B_1_1redlinestimulus7.png,1,10,1.0,86.35765075683594,86.35765075683594,0.0,,1.0,1.0,0.0,3,-0.012142000021412969,86.35765075683594,86.35765075683594,0.0,,9.0
6,['1'],1,TMTstop-B_1_1linestimulus8.png,TMTstop-B_1_1greenlinestimulus8.png,TMTstop-B_1_1redlinestimulus8.png,1,11,1.0,86.42719268798828,86.42719268798828,0.0,,1.0,1.0,0.0,1,0.1614603998605162,86.42719268798828,86.42719268798828,0.0,,10.0
F,['2'],2,TMTstop-B_1_1linestimulus9.png,TMTstop-B_1_1greenlinestimulus9.png,TMTstop-B_1_1redlinestimulus9.png,1,12,1.0,86.67707824707031,86.67707824707031,0.0,,1.0,1.0,0.0,2,0.00013729999773204327,86.67707824707031,86.67707824707031,0.0,,11.0
7,['1'],1,TMTstop-B_1_1linestimulus10.png,TMTstop-B_1_1greenlinestimulus10.png,TMTstop-B_1_1redlinestimulus10.png,1,13,1.0,86.7535171508789,86.7535171508789,0.0,,1.0,1.0,0.0,3,1,0.005846899934113026,0.18780399998649955,86.7535171508789,86.7535171508789,0.0,,12.0
G,['2'],2,TMTstop-B_1_1linestimulus11.png,TMTstop-B_1_1greenlinestimulus11.png,TMTstop-B_1_1redlinestimulus11.png,1,14,1.0,87.05292510986328,87.05292510986328,0.0,,1.0,1.0,0.0,1,2,0.11015900014899671,0.15776020009070635,87.05292510986328,87.05292510986328,0.0,,13.0
8,['1'],1,TMTstop-B_1_1linestimulus12.png,TMTstop-B_1_1greenlinestimulus12.png,TMTstop-B_1_1redlinestimulus12.png,1,15,1.0,87.2881851196289,87.2881851196289,0.0,,1.0,1.0,0.0,3,1,0.05409039999358356,0.2005043001845479,87.2881851196289,87.2881851196289,0.0,,14.0
H,['2'],2,TMTstop-B_1_1linestimulus13.png,TMTstop-B_1_1greenlinestimulus13.png,TMTstop-B_1_1redlinestimulus13.png,1,16,1.0,87.60121154785156,87.60121154785156,0.0,,1.0,1.0,0.0,2,-0.04329610010609031,87.60121154785156,87.60121154785156,0.0,,15.0
9,['3'],3,TMTstop-B_1_1linestimulus14.png,TMTstop-B_1_1greenlinestimulus14.png,TMTstop-B_1_1redlinestimulus14.png,1,17,1.0,87.68431091308594,87.68431091308594,0.0,,1.0,1.0,0.0,3,0.0009258999489247799,87.68431091308594,87.68431091308594,0.0,,16.0
I,['1'],1,TMTstop-B_1_1linestimulus15.png,TMTstop-B_1_1greenlinestimulus15.png,TMTstop-B_1_1redlinestimulus15.png,1,18,1.0,87.78176879882812,87.78176879882812,0.0,,1.0,1.0,0.0,1,0.054763799998909235,87.78176879882812,87.78176879882812,0.0,,17.0
10,['2'],2,TMTstop-B_1_1linestimulus16.png,TMTstop-B_1_1greenlinestimulus16.png,TMTstop-B_1_1redlinestimulus16.png,1,19,1.0,87.9141616821289,87.9141616821289,0.0,,1.0,1.0,0.0,2,0.009521899977698922,87.9141616821289,87.9141616821289,0.0,,18.0
J,['1'],1,TMTstop-B_1_1linestimulus17.png,TMTstop-B_1_1greenlinestimulus17.png,TMTstop-B_1_1redlinestimulus17.png,1,20,1.0,88.00511932373047,88.00511932373047,0.0,,1.0,1.0,0.0,3,1,0.018682199995964766,0.1610818998888135,88.00511932373047,88.00511932373047,0.0,,19.0
11,['2'],2,TMTstop-B_1_1linestimulus18.png,TMTstop-B_1_1greenlinestimulus18.png,TMTstop-B_1_1redlinestimulus18.png,1,21,1.0,88.281494140625,88.281494140625,0.0,,1.0,1.0,0.0,2,-0.021570299984887242,88.281494140625,88.281494140625,0.0,,20.0
K,['3'],3,TMTstop-B_1_1linestimulus19.png,TMTstop-B_1_1greenlinestimulus19.png,TMTstop-B_1_1redlinestimulus19.png,1,22,1.0,88.35796356201172,88.35796356201172,0.0,,1.0,1.0,0.0,3,0.00241830013692379,88.35796356201172,88.35796356201172,0.0,,21.0
12,['1'],1,TMTstop-B_1_1linestimulus20.png,TMTstop-B_1_1greenlinestimulus20.png,TMTstop-B_1_1redlinestimulus20.png,1,23,1.0,88.45537567138672,88.45537567138672,0.0,,1.0,1.0,0.0,1,0.0459368999581784,88.45537567138672,88.45537567138672,0.0,,22.0
L,['3'],3,TMTstop-B_1_1linestimulus21.png,TMTstop-B_1_1greenlinestimulus21.png,TMTstop-B_1_1redlinestimulus21.png,1,24,1.0,88.59452819824219,88.59452819824219,0.0,,1.0,1.0,0.0,2,3,0.00449250009842217,0.09647800005041063,88.59452819824219,88.59452819824219,0.0,,23.0
13,['2'],2,TMTstop-B_1_1linestimulus22.png,TMTstop-B_1_1greenlinestimulus22.png,TMTstop-B_1_1redlinestimulus22.png,1,25,1.0,88.77510833740234,88.77510833740234,0.0,,1.0,1.0,0.0,1,2,0.060367200057953596,0.12722230004146695,88.77510833740234,88.77510833740234,0.0,,24.0
None,None,None,TMTstop-B_1_1linestimulus23.png,TMTstop-B_1_1greenlinestimulus23.png,TMTstop-B_1_1redlinestimulus23.png,1,Feedback_last,1.0,89.01031494140625,89.01031494140625,0.0,,0.0,0.0,0.0,3,-0.009428099961951375,89.01031494140625,89.01031494140625,0.0,,25.0

extraInfo
participant,
session,001
date,2022_Feb_02_1715
expName,TMTAstop-A
psychopyVersion,2021.2.3
frameRate,None
﻿NumberLetter,corrAns,Correct,StimFile,Correct_StimFile,False_StimFile,Block,TrialNumber_session,n,Stim.started_mean,Stim.started_raw,Stim.started_std,Stim.stopped_raw,key_resp_2.corr_mean,key_resp_2.corr_raw,key_resp_2.corr_std,key_resp_2.keys_raw,key_resp_2.rt_raw,key_resp_2.started_mean,key_resp_2.started_raw,key_resp_2.started_std,key_resp_2.stopped_raw,order
1,['2'],2,TMTstop-B_1_2.png,TMTstop-B_1_2.png,TMTstop-B_1_2.png,2,26,1.0,93.1290283203125,93.1290283203125,0.0,,1.0,1.0,0.0,1,2,0.4512600000016391,0.5513213002122939,93.1290283203125,93.1290283203125,0.0,,0.0
A,['3'],3,TMTstop-B_1_2.png,TMTstop-B_1_2firstgreen.png,TMTstop-B_1_2firstred.png,2,27,1.0,93.76100158691406,93.76100158691406,0.0,,1.0,1.0,0.0,1,2,3,0.15844939998351038,0.21299310005269945,0.3223961000330746,93.76100158691406,93.76100158691406,0.0,,1.0
2,['1'],1,TMTstop-B_1_2linestimulus0.png,TMTstop-B_1_2greenlinestimulus0.png,TMTstop-B_1_2redlinestimulus0.png,2,28,1.0,94.16328430175781,94.16328430175781,0.0,,1.0,1.0,0.0,1,0.05784059991128743,94.16328430175781,94.16328430175781,0.0,,2.0
B,['2'],2,TMTstop-B_1_2linestimulus1.png,TMTstop-B_1_2greenlinestimulus1.png,TMTstop-B_1_2redlinestimulus1.png,2,29,1.0,94.30207824707031,94.30207824707031,0.0,,1.0,1.0,0.0,2,-0.02600970002822578,94.30207824707031,94.30207824707031,0.0,,3.0
3,['3'],3,TMTstop-B_1_2linestimulus2.png,TMTstop-B_1_2greenlinestimulus2.png,TMTstop-B_1_2redlinestimulus2.png,2,30,1.0,94.37850189208984,94.37850189208984,0.0,,1.0,1.0,0.0,3,0.01238609990105033,94.37850189208984,94.37850189208984,0.0,,4.0
C,['1'],1,TMTstop-B_1_2linestimulus3.png,TMTstop-B_1_2greenlinestimulus3.png,TMTstop-B_1_2redlinestimulus3.png,2,31,1.0,94.4693374633789,94.4693374633789,0.0,,1.0,1.0,0.0,1,0.052260300144553185,94.4693374633789,94.4693374633789,0.0,,5.0
4,['2'],2,TMTstop-B_1_2linestimulus4.png,TMTstop-B_1_2greenlinestimulus4.png,TMTstop-B_1_2redlinestimulus4.png,2,32,1.0,94.59468078613281,94.59468078613281,0.0,,1.0,1.0,0.0,2,-0.025420400081202388,94.59468078613281,94.59468078613281,0.0,,6.0
D,['3'],3,TMTstop-B_1_2linestimulus5.png,TMTstop-B_1_2greenlinestimulus5.png,TMTstop-B_1_2redlinestimulus5.png,2,33,1.0,94.67058563232422,94.67058563232422,0.0,,1.0,1.0,0.0,3,0.01752580003812909,94.67058563232422,94.67058563232422,0.0,,7.0
5,['2'],2,TMTstop-B_1_2linestimulus6.png,TMTstop-B_1_2greenlinestimulus6.png,TMTstop-B_1_2redlinestimulus6.png,2,34,1.0,94.77444458007812,94.77444458007812,0.0,,1.0,1.0,0.0,1,2,0.062024899991229177,0.11076020007021725,94.77444458007812,94.77444458007812,0.0,,8.0
E,['1'],1,TMTstop-B_1_2linestimulus7.png,TMTstop-B_1_2greenlinestimulus7.png,TMTstop-B_1_2redlinestimulus7.png,2,35,1.0,95.00324249267578,95.00324249267578,0.0,,0.0,0.0,0.0,3,0.0028295000083744526,95.00324249267578,95.00324249267578,0.0,,9.0
6,['3'],3,TMTstop-B_1_2linestimulus8.png,TMTstop-B_1_2greenlinestimulus8.png,TMTstop-B_1_2redlinestimulus8.png,2,36,0.0,,,,'--',,,,'--','--',,,,'--',
F,['1'],1,TMTstop-B_1_2linestimulus9.png,TMTstop-B_1_2greenlinestimulus9.png,TMTstop-B_1_2redlinestimulus9.png,2,37,0.0,,,,'--',,,,'--','--',,,,'--',
7,['3'],3,TMTstop-B_1_2linestimulus10.png,TMTstop-B_1_2greenlinestimulus10.png,TMTstop-B_1_2redlinestimulus10.png,2,38,0.0,,,,'--',,,,'--','--',,,,'--',
G,['2'],2,TMTstop-B_1_2linestimulus11.png,TMTstop-B_1_2greenlinestimulus11.png,TMTstop-B_1_2redlinestimulus11.png,2,39,0.0,,,,'--',,,,'--','--',,,,'--',
8,['3'],3,TMTstop-B_1_2linestimulus12.png,TMTstop-B_1_2greenlinestimulus12.png,TMTstop-B_1_2redlinestimulus12.png,2,40,0.0,,,,'--',,,,'--','--',,,,'--',
H,['2'],2,TMTstop-B_1_2linestimulus13.png,TMTstop-B_1_2greenlinestimulus13.png,TMTstop-B_1_2redlinestimulus13.png,2,41,0.0,,,,'--',,,,'--','--',,,,'--',
9,['3'],3,TMTstop-B_1_2linestimulus14.png,TMTstop-B_1_2greenlinestimulus14.png,TMTstop-B_1_2redlinestimulus14.png,2,42,0.0,,,,'--',,,,'--','--',,,,'--',
I,['1'],1,TMTstop-B_1_2linestimulus15.png,TMTstop-B_1_2greenlinestimulus15.png,TMTstop-B_1_2redlinestimulus15.png,2,43,0.0,,,,'--',,,,'--','--',,,,'--',
10,['2'],2,TMTstop-B_1_2linestimulus16.png,TMTstop-B_1_2greenlinestimulus16.png,TMTstop-B_1_2redlinestimulus16.png,2,44,0.0,,,,'--',,,,'--','--',,,,'--',
J,['3'],3,TMTstop-B_1_2linestimulus17.png,TMTstop-B_1_2greenlinestimulus17.png,TMTstop-B_1_2redlinestimulus17.png,2,45,0.0,,,,'--',,,,'--','--',,,,'--',
11,['2'],2,TMTstop-B_1_2linestimulus18.png,TMTstop-B_1_2greenlinestimulus18.png,TMTstop-B_1_2redlinestimulus18.png,2,46,0.0,,,,'--',,,,'--','--',,,,'--',
K,['3'],3,TMTstop-B_1_2linestimulus19.png,TMTstop-B_1_2greenlinestimulus19.png,TMTstop-B_1_2redlinestimulus19.png,2,47,0.0,,,,'--',,,,'--','--',,,,'--',
12,['1'],1,TMTstop-B_1_2linestimulus20.png,TMTstop-B_1_2greenlinestimulus20.png,TMTstop-B_1_2redlinestimulus20.png,2,48,0.0,,,,'--',,,,'--','--',,,,'--',
L,['2'],2,TMTstop-B_1_2linestimulus21.png,TMTstop-B_1_2greenlinestimulus21.png,TMTstop-B_1_2redlinestimulus21.png,2,49,0.0,,,,'--',,,,'--','--',,,,'--',
13,['3'],3,TMTstop-B_1_2linestimulus22.png,TMTstop-B_1_2greenlinestimulus22.png,TMTstop-B_1_2redlinestimulus22.png,2,50,0.0,,,,'--',,,,'--','--',,,,'--',
None,None,None,TMTstop-B_1_2linestimulus23.png,TMTstop-B_1_2greenlinestimulus23.png,TMTstop-B_1_2redlinestimulus23.png,2,Feedback_last,0.0,,,,'--',,,,'--','--',,,,'--',

extraInfo
participant,
session,001
date,2022_Feb_02_1715
expName,TMTAstop-A
psychopyVersion,2021.2.3
frameRate,None
﻿NumberLetter,corrAns,Correct,StimFile,Correct_StimFile,False_StimFile,Block,TrialNumber_session,n,Stim.started_raw,Stim.stopped_raw,key_resp_2.corr_mean,key_resp_2.corr_raw,key_resp_2.corr_std,key_resp_2.keys_raw,key_resp_2.started_raw,key_resp_2.stopped_raw,order
1,['3'],3,TMTstop-B_1_3.png,TMTstop-B_1_3.png,TMTstop-B_1_3.png,3,51,1.0,101.3407420799602,,0.0,0.0,0.0,,101.3407420799602,,0.0
A,['2'],2,TMTstop-B_1_3.png,TMTstop-B_1_3firstgreen.png,TMTstop-B_1_3firstred.png,3,52,0.0,'--','--',,,,'--','--','--',
2,['3'],3,TMTstop-B_1_3linestimulus0.png,TMTstop-B_1_3greenlinestimulus0.png,TMTstop-B_1_3redlinestimulus0.png,3,53,0.0,'--','--',,,,'--','--','--',
B,['2'],2,TMTstop-B_1_3linestimulus1.png,TMTstop-B_1_3greenlinestimulus1.png,TMTstop-B_1_3redlinestimulus1.png,3,54,0.0,'--','--',,,,'--','--','--',
3,['3'],3,TMTstop-B_1_3linestimulus2.png,TMTstop-B_1_3greenlinestimulus2.png,TMTstop-B_1_3redlinestimulus2.png,3,55,0.0,'--','--',,,,'--','--','--',
C,['1'],1,TMTstop-B_1_3linestimulus3.png,TMTstop-B_1_3greenlinestimulus3.png,TMTstop-B_1_3redlinestimulus3.png,3,56,0.0,'--','--',,,,'--','--','--',
4,['2'],2,TMTstop-B_1_3linestimulus4.png,TMTstop-B_1_3greenlinestimulus4.png,TMTstop-B_1_3redlinestimulus4.png,3,57,0.0,'--','--',,,,'--','--','--',
D,['3'],3,TMTstop-B_1_3linestimulus5.png,TMTstop-B_1_3greenlinestimulus5.png,TMTstop-B_1_3redlinestimulus5.png,3,58,0.0,'--','--',,,,'--','--','--',
5,['2'],2,TMTstop-B_1_3linestimulus6.png,TMTstop-B_1_3greenlinestimulus6.png,TMTstop-B_1_3redlinestimulus6.png,3,59,0.0,'--','--',,,,'--','--','--',
E,['3'],3,TMTstop-B_1_3linestimulus7.png,TMTstop-B_1_3greenlinestimulus7.png,TMTstop-B_1_3redlinestimulus7.png,3,60,0.0,'--','--',,,,'--','--','--',
6,['1'],1,TMTstop-B_1_3linestimulus8.png,TMTstop-B_1_3greenlinestimulus8.png,TMTstop-B_1_3redlinestimulus8.png,3,61,0.0,'--','--',,,,'--','--','--',
F,['3'],3,TMTstop-B_1_3linestimulus9.png,TMTstop-B_1_3greenlinestimulus9.png,TMTstop-B_1_3redlinestimulus9.png,3,62,0.0,'--','--',,,,'--','--','--',
7,['1'],1,TMTstop-B_1_3linestimulus10.png,TMTstop-B_1_3greenlinestimulus10.png,TMTstop-B_1_3redlinestimulus10.png,3,63,0.0,'--','--',,,,'--','--','--',
G,['3'],3,TMTstop-B_1_3linestimulus11.png,TMTstop-B_1_3greenlinestimulus11.png,TMTstop-B_1_3redlinestimulus11.png,3,64,0.0,'--','--',,,,'--','--','--',
8,['2'],2,TMTstop-B_1_3linestimulus12.png,TMTstop-B_1_3greenlinestimulus12.png,TMTstop-B_1_3redlinestimulus12.png,3,65,0.0,'--','--',,,,'--','--','--',
H,['3'],3,TMTstop-B_1_3linestimulus13.png,TMTstop-B_1_3greenlinestimulus13.png,TMTstop-B_1_3redlinestimulus13.png,3,66,0.0,'--','--',,,,'--','--','--',
9,['1'],1,TMTstop-B_1_3linestimulus14.png,TMTstop-B_1_3greenlinestimulus14.png,TMTstop-B_1_3redlinestimulus14.png,3,67,0.0,'--','--',,,,'--','--','--',
I,['2'],2,TMTstop-B_1_3linestimulus15.png,TMTstop-B_1_3greenlinestimulus15.png,TMTstop-B_1_3redlinestimulus15.png,3,68,0.0,'--','--',,,,'--','--','--',
10,['3'],3,TMTstop-B_1_3linestimulus16.png,TMTstop-B_1_3greenlinestimulus16.png,TMTstop-B_1_3redlinestimulus16.png,3,69,0.0,'--','--',,,,'--','--','--',
J,['1'],1,TMTstop-B_1_3linestimulus17.png,TMTstop-B_1_3greenlinestimulus17.png,TMTstop-B_1_3redlinestimulus17.png,3,70,0.0,'--','--',,,,'--','--','--',
11,['3'],3,TMTstop-B_1_3linestimulus18.png,TMTstop-B_1_3greenlinestimulus18.png,TMTstop-B_1_3redlinestimulus18.png,3,71,0.0,'--','--',,,,'--','--','--',
K,['1'],1,TMTstop-B_1_3linestimulus19.png,TMTstop-B_1_3greenlinestimulus19.png,TMTstop-B_1_3redlinestimulus19.png,3,72,0.0,'--','--',,,,'--','--','--',
12,['2'],2,TMTstop-B_1_3linestimulus20.png,TMTstop-B_1_3greenlinestimulus20.png,TMTstop-B_1_3redlinestimulus20.png,3,73,0.0,'--','--',,,,'--','--','--',
L,['1'],1,TMTstop-B_1_3linestimulus21.png,TMTstop-B_1_3greenlinestimulus21.png,TMTstop-B_1_3redlinestimulus21.png,3,74,0.0,'--','--',,,,'--','--','--',
13,['3'],3,TMTstop-B_1_3linestimulus22.png,TMTstop-B_1_3greenlinestimulus22.png,TMTstop-B_1_3redlinestimulus22.png,3,75,0.0,'--','--',,,,'--','--','--',
None,None,None,TMTstop-B_1_3linestimulus23.png,TMTstop-B_1_3greenlinestimulus23.png,TMTstop-B_1_3redlinestimulus23.png,3,Feedback_last,0.0,'--','--',,,,'--','--','--',

extraInfo
participant,
session,001
date,2022_Feb_02_1715
expName,TMTAstop-A
psychopyVersion,2021.2.3
frameRate,None
﻿NumberLetter,corrAns,Correct,StimFile,Correct_StimFile,False_StimFile,Block,TrialNumber_session,n,Stim.started_raw,Stim.stopped_raw,key_resp_2.corr_mean,key_resp_2.corr_raw,key_resp_2.corr_std,key_resp_2.keys_raw,key_resp_2.started_raw,key_resp_2.stopped_raw,order
1,['1'],1,TMTstop-B_1_4.png,TMTstop-B_1_4.png,TMTstop-B_1_4.png,4,76,1.0,104.41137029998936,,0.0,0.0,0.0,,104.41137029998936,,0.0
A,['2'],2,TMTstop-B_1_4.png,TMTstop-B_1_4firstgreen.png,TMTstop-B_1_4firstred.png,4,77,0.0,'--','--',,,,'--','--','--',
2,['1'],1,TMTstop-B_1_4linestimulus0.png,TMTstop-B_1_4greenlinestimulus0.png,TMTstop-B_1_4redlinestimulus0.png,4,78,0.0,'--','--',,,,'--','--','--',
B,['2'],2,TMTstop-B_1_4linestimulus1.png,TMTstop-B_1_4greenlinestimulus1.png,TMTstop-B_1_4redlinestimulus1.png,4,79,0.0,'--','--',,,,'--','--','--',
3,['3'],3,TMTstop-B_1_4linestimulus2.png,TMTstop-B_1_4greenlinestimulus2.png,TMTstop-B_1_4redlinestimulus2.png,4,80,0.0,'--','--',,,,'--','--','--',
C,['2'],2,TMTstop-B_1_4linestimulus3.png,TMTstop-B_1_4greenlinestimulus3.png,TMTstop-B_1_4redlinestimulus3.png,4,81,0.0,'--','--',,,,'--','--','--',
4,['3'],3,TMTstop-B_1_4linestimulus4.png,TMTstop-B_1_4greenlinestimulus4.png,TMTstop-B_1_4redlinestimulus4.png,4,82,0.0,'--','--',,,,'--','--','--',
D,['1'],1,TMTstop-B_1_4linestimulus5.png,TMTstop-B_1_4greenlinestimulus5.png,TMTstop-B_1_4redlinestimulus5.png,4,83,0.0,'--','--',,,,'--','--','--',
5,['2'],2,TMTstop-B_1_4linestimulus6.png,TMTstop-B_1_4greenlinestimulus6.png,TMTstop-B_1_4redlinestimulus6.png,4,84,0.0,'--','--',,,,'--','--','--',
E,['3'],3,TMTstop-B_1_4linestimulus7.png,TMTstop-B_1_4greenlinestimulus7.png,TMTstop-B_1_4redlinestimulus7.png,4,85,0.0,'--','--',,,,'--','--','--',
6,['1'],1,TMTstop-B_1_4linestimulus8.png,TMTstop-B_1_4greenlinestimulus8.png,TMTstop-B_1_4redlinestimulus8.png,4,86,0.0,'--','--',,,,'--','--','--',
F,['3'],3,TMTstop-B_1_4linestimulus9.png,TMTstop-B_1_4greenlinestimulus9.png,TMTstop-B_1_4redlinestimulus9.png,4,87,0.0,'--','--',,,,'--','--','--',
7,['1'],1,TMTstop-B_1_4linestimulus10.png,TMTstop-B_1_4greenlinestimulus10.png,TMTstop-B_1_4redlinestimulus10.png,4,88,0.0,'--','--',,,,'--','--','--',
G,['3'],3,TMTstop-B_1_4linestimulus11.png,TMTstop-B_1_4greenlinestimulus11.png,TMTstop-B_1_4redlinestimulus11.png,4,89,0.0,'--','--',,,,'--','--','--',
8,['2'],2,TMTstop-B_1_4linestimulus12.png,TMTstop-B_1_4greenlinestimulus12.png,TMTstop-B_1_4redlinestimulus12.png,4,90,0.0,'--','--',,,,'--','--','--',
H,['3'],3,TMTstop-B_1_4linestimulus13.png,TMTstop-B_1_4greenlinestimulus13.png,TMTstop-B_1_4redlinestimulus13.png,4,91,0.0,'--','--',,,,'--','--','--',
9,['2'],2,TMTstop-B_1_4linestimulus14.png,TMTstop-B_1_4greenlinestimulus14.png,TMTstop-B_1_4redlinestimulus14.png,4,92,0.0,'--','--',,,,'--','--','--',
I,['1'],1,TMTstop-B_1_4linestimulus15.png,TMTstop-B_1_4greenlinestimulus15.png,TMTstop-B_1_4redlinestimulus15.png,4,93,0.0,'--','--',,,,'--','--','--',
10,['3'],3,TMTstop-B_1_4linestimulus16.png,TMTstop-B_1_4greenlinestimulus16.png,TMTstop-B_1_4redlinestimulus16.png,4,94,0.0,'--','--',,,,'--','--','--',
J,['1'],1,TMTstop-B_1_4linestimulus17.png,TMTstop-B_1_4greenlinestimulus17.png,TMTstop-B_1_4redlinestimulus17.png,4,95,0.0,'--','--',,,,'--','--','--',
11,['3'],3,TMTstop-B_1_4linestimulus18.png,TMTstop-B_1_4greenlinestimulus18.png,TMTstop-B_1_4redlinestimulus18.png,4,96,0.0,'--','--',,,,'--','--','--',
K,['2'],2,TMTstop-B_1_4linestimulus19.png,TMTstop-B_1_4greenlinestimulus19.png,TMTstop-B_1_4redlinestimulus19.png,4,97,0.0,'--','--',,,,'--','--','--',
12,['3'],3,TMTstop-B_1_4linestimulus20.png,TMTstop-B_1_4greenlinestimulus20.png,TMTstop-B_1_4redlinestimulus20.png,4,98,0.0,'--','--',,,,'--','--','--',
L,['2'],2,TMTstop-B_1_4linestimulus21.png,TMTstop-B_1_4greenlinestimulus21.png,TMTstop-B_1_4redlinestimulus21.png,4,99,0.0,'--','--',,,,'--','--','--',
13,['3'],3,TMTstop-B_1_4linestimulus22.png,TMTstop-B_1_4greenlinestimulus22.png,TMTstop-B_1_4redlinestimulus22.png,4,100,0.0,'--','--',,,,'--','--','--',
None,None,None,TMTstop-B_1_4linestimulus23.png,TMTstop-B_1_4greenlinestimulus23.png,TMTstop-B_1_4redlinestimulus23.png,4,Feedback_last,0.0,'--','--',,,,'--','--','--',

extraInfo
participant,
session,001
date,2022_Feb_02_1715
expName,TMTAstop-A
psychopyVersion,2021.2.3
frameRate,None
﻿NumberLetter,corrAns,Correct,StimFile,Correct_StimFile,False_StimFile,Block,TrialNumber_session,n,Stim.started_raw,Stim.stopped_raw,key_resp_2.corr_mean,key_resp_2.corr_raw,key_resp_2.corr_std,key_resp_2.keys_raw,key_resp_2.started_raw,key_resp_2.stopped_raw,order
1,['1'],1,TMTstop-B_1_5.png,TMTstop-B_1_5.png,TMTstop-B_1_5.png,5,101,1.0,107.47923940001056,,0.0,0.0,0.0,,107.47923940001056,,0.0
A,['2'],2,TMTstop-B_1_5.png,TMTstop-B_1_5firstgreen.png,TMTstop-B_1_5firstred.png,5,102,0.0,'--','--',,,,'--','--','--',
2,['1'],1,TMTstop-B_1_5linestimulus0.png,TMTstop-B_1_5greenlinestimulus0.png,TMTstop-B_1_5redlinestimulus0.png,5,103,0.0,'--','--',,,,'--','--','--',
B,['3'],3,TMTstop-B_1_5linestimulus1.png,TMTstop-B_1_5greenlinestimulus1.png,TMTstop-B_1_5redlinestimulus1.png,5,104,0.0,'--','--',,,,'--','--','--',
3,['1'],1,TMTstop-B_1_5linestimulus2.png,TMTstop-B_1_5greenlinestimulus2.png,TMTstop-B_1_5redlinestimulus2.png,5,105,0.0,'--','--',,,,'--','--','--',
C,['3'],3,TMTstop-B_1_5linestimulus3.png,TMTstop-B_1_5greenlinestimulus3.png,TMTstop-B_1_5redlinestimulus3.png,5,106,0.0,'--','--',,,,'--','--','--',
4,['1'],1,TMTstop-B_1_5linestimulus4.png,TMTstop-B_1_5greenlinestimulus4.png,TMTstop-B_1_5redlinestimulus4.png,5,107,0.0,'--','--',,,,'--','--','--',
D,['3'],3,TMTstop-B_1_5linestimulus5.png,TMTstop-B_1_5greenlinestimulus5.png,TMTstop-B_1_5redlinestimulus5.png,5,108,0.0,'--','--',,,,'--','--','--',
5,['2'],2,TMTstop-B_1_5linestimulus6.png,TMTstop-B_1_5greenlinestimulus6.png,TMTstop-B_1_5redlinestimulus6.png,5,109,0.0,'--','--',,,,'--','--','--',
E,['3'],3,TMTstop-B_1_5linestimulus7.png,TMTstop-B_1_5greenlinestimulus7.png,TMTstop-B_1_5redlinestimulus7.png,5,110,0.0,'--','--',,,,'--','--','--',
6,['2'],2,TMTstop-B_1_5linestimulus8.png,TMTstop-B_1_5greenlinestimulus8.png,TMTstop-B_1_5redlinestimulus8.png,5,111,0.0,'--','--',,,,'--','--','--',
F,['3'],3,TMTstop-B_1_5linestimulus9.png,TMTstop-B_1_5greenlinestimulus9.png,TMTstop-B_1_5redlinestimulus9.png,5,112,0.0,'--','--',,,,'--','--','--',
7,['1'],1,TMTstop-B_1_5linestimulus10.png,TMTstop-B_1_5greenlinestimulus10.png,TMTstop-B_1_5redlinestimulus10.png,5,113,0.0,'--','--',,,,'--','--','--',
G,['3'],3,TMTstop-B_1_5linestimulus11.png,TMTstop-B_1_5greenlinestimulus11.png,TMTstop-B_1_5redlinestimulus11.png,5,114,0.0,'--','--',,,,'--','--','--',
8,['1'],1,TMTstop-B_1_5linestimulus12.png,TMTstop-B_1_5greenlinestimulus12.png,TMTstop-B_1_5redlinestimulus12.png,5,115,0.0,'--','--',,,,'--','--','--',
H,['2'],2,TMTstop-B_1_5linestimulus13.png,TMTstop-B_1_5greenlinestimulus13.png,TMTstop-B_1_5redlinestimulus13.png,5,116,0.0,'--','--',,,,'--','--','--',
9,['3'],3,TMTstop-B_1_5linestimulus14.png,TMTstop-B_1_5greenlinestimulus14.png,TMTstop-B_1_5redlinestimulus14.png,5,117,0.0,'--','--',,,,'--','--','--',
I,['1'],1,TMTstop-B_1_5linestimulus15.png,TMTstop-B_1_5greenlinestimulus15.png,TMTstop-B_1_5redlinestimulus15.png,5,118,0.0,'--','--',,,,'--','--','--',
10,['3'],3,TMTstop-B_1_5linestimulus16.png,TMTstop-B_1_5greenlinestimulus16.png,TMTstop-B_1_5redlinestimulus16.png,5,119,0.0,'--','--',,,,'--','--','--',
J,['2'],2,TMTstop-B_1_5linestimulus17.png,TMTstop-B_1_5greenlinestimulus17.png,TMTstop-B_1_5redlinestimulus17.png,5,120,0.0,'--','--',,,,'--','--','--',
11,['1'],1,TMTstop-B_1_5linestimulus18.png,TMTstop-B_1_5greenlinestimulus18.png,TMTstop-B_1_5redlinestimulus18.png,5,121,0.0,'--','--',,,,'--','--','--',
K,['2'],2,TMTstop-B_1_5linestimulus19.png,TMTstop-B_1_5greenlinestimulus19.png,TMTstop-B_1_5redlinestimulus19.png,5,122,0.0,'--','--',,,,'--','--','--',
12,['3'],3,TMTstop-B_1_5linestimulus20.png,TMTstop-B_1_5greenlinestimulus20.png,TMTstop-B_1_5redlinestimulus20.png,5,123,0.0,'--','--',,,,'--','--','--',
L,['1'],1,TMTstop-B_1_5linestimulus21.png,TMTstop-B_1_5greenlinestimulus21.png,TMTstop-B_1_5redlinestimulus21.png,5,124,0.0,'--','--',,,,'--','--','--',
13,['3'],3,TMTstop-B_1_5linestimulus22.png,TMTstop-B_1_5greenlinestimulus22.png,TMTstop-B_1_5redlinestimulus22.png,5,125,0.0,'--','--',,,,'--','--','--',
None,None,None,TMTstop-B_1_5linestimulus23.png,TMTstop-B_1_5greenlinestimulus23.png,TMTstop-B_1_5redlinestimulus23.png,5,Feedback_last,0.0,'--','--',,,,'--','--','--',

extraInfo
participant,
session,001
date,2022_Feb_02_1715
expName,TMTAstop-A
psychopyVersion,2021.2.3
frameRate,None
