NumberLetter,corrAns,StimFile,Correct_StimFile,False_StimFile,DurationTrial,Block_file,Condition_rows,Correct,restartpractice.thisRepN,restartpractice.thisTrialN,restartpractice.thisN,restartpractice.thisIndex,trials_practice.thisRepN,trials_practice.thisTrialN,trials_practice.thisN,trials_practice.thisIndex,Blocks_loop.thisRepN,Blocks_loop.thisTrialN,Blocks_loop.thisN,Blocks_loop.thisIndex,trials.thisRepN,trials.thisTrialN,trials.thisN,trials.thisIndex,Instruct.started,Instruct.stopped,image_2.started,image_2.stopped,key_resp_6.keys,key_resp_6.rt,key_resp_6.started,key_resp_6.stopped,polygon.started,polygon.stopped,Stim_practice.started,Stim_practice.stopped,key_resp_practice.keys,key_resp_practice.rt,key_resp_practice.started,key_resp_practice.stopped,text_5.started,text_5.stopped,key_resp_5.keys,key_resp_5.rt,key_resp_5.started,key_resp_5.stopped,Stim.started,Stim.stopped,key_resp_2.keys,key_resp_2.corr,key_resp_2.rt,key_resp_2.started,key_resp_2.stopped,participant,session,date,expName,psychopyVersion,frameRate,
,,,,,,,,,,,,,,,,,,,,,,,,,6.594857899937779,None,7.807204099954106,None,3,0.5561322000576183,7.807204099954106,None,,,,,,,,,,,,,,,,,,,,,,,001,2022_Jan_24_1135,TMTAstop-A,2021.2.3,60.027108224871476,
1,['1'],TMTstop-A_1_practice.png,TMTstop-A_1_practice.png,TMTstop-A_1_practice.png,10,,,,0,0,0,0,0,0,0,0,,,,,,,,,,,,,,,,,8.389756399905309,None,11.492695299908519,None,1,1.1719520000042394,11.492695299908519,None,,,,,,,,,,,,,,,001,2022_Jan_24_1135,TMTAstop-A,2021.2.3,60.027108224871476,
2,['2'],TMTstop-A_1_practice.png,TMTstop-A_1_practicefirstgreen.png,TMTstop-A_1_practicefirstred.png,10,,,,0,0,0,0,0,1,1,1,,,,,,,,,,,,,,,,,,,12.743764699902385,None,2,0.15636050002649426,12.743764699902385,None,,,,,,,,,,,,,,,001,2022_Jan_24_1135,TMTAstop-A,2021.2.3,60.027108224871476,
3,['3'],TMTstop-A_1_practicelinestimulus0.png,TMTstop-A_1_practicegreenlinestimulus0.png,TMTstop-A_1_practiceredlinestimulus0.png,10,,,,0,0,0,0,0,2,2,2,,,,,,,,,,,,,,,,,,,12.994044399936683,None,3,0.35107339988462627,12.994044399936683,None,,,,,,,,,,,,,,,001,2022_Jan_24_1135,TMTAstop-A,2021.2.3,60.027108224871476,
4,['1'],TMTstop-A_1_practicelinestimulus1.png,TMTstop-A_1_practicegreenlinestimulus1.png,TMTstop-A_1_practiceredlinestimulus1.png,10,,,,0,0,0,0,0,3,3,3,,,,,,,,,,,,,,,,,,,13.42761839996092,None,1,0.10880180005915463,13.42761839996092,None,,,,,,,,,,,,,,,001,2022_Jan_24_1135,TMTAstop-A,2021.2.3,60.027108224871476,
5,['2'],TMTstop-A_1_practicelinestimulus2.png,TMTstop-A_1_practicegreenlinestimulus2.png,TMTstop-A_1_practiceredlinestimulus2.png,10,,,,0,0,0,0,0,4,4,4,,,,,,,,,,,,,,,,,,,13.627678999910131,None,2,0.04460499994456768,13.627678999910131,None,,,,,,,,,,,,,,,001,2022_Jan_24_1135,TMTAstop-A,2021.2.3,60.027108224871476,
6,['3'],TMTstop-A_1_practicelinestimulus3.png,TMTstop-A_1_practicegreenlinestimulus3.png,TMTstop-A_1_practiceredlinestimulus3.png,10,,,,0,0,0,0,0,5,5,5,,,,,,,,,,,,,,,,,,,13.761248899972998,None,3,0.039816000033169985,13.761248899972998,None,,,,,,,,,,,,,,,001,2022_Jan_24_1135,TMTAstop-A,2021.2.3,60.027108224871476,
7,['1'],TMTstop-A_1_practicelinestimulus4.png,TMTstop-A_1_practicegreenlinestimulus4.png,TMTstop-A_1_practiceredlinestimulus4.png,10,,,,0,0,0,0,0,6,6,6,,,,,,,,,,,,,,,,,,,13.894422699930146,None,1,0.43821079994086176,13.894422699930146,None,,,,,,,,,,,,,,,001,2022_Jan_24_1135,TMTAstop-A,2021.2.3,60.027108224871476,
8,['3'],TMTstop-A_1_practicelinestimulus5.png,TMTstop-A_1_practicegreenlinestimulus5.png,TMTstop-A_1_practiceredlinestimulus5.png,10,,,,0,0,0,0,0,7,7,7,,,,,,,,,,,,,,,,,,,14.428147499915212,None,3,0.10639489989262074,14.428147499915212,None,,,,,,,,,,,,,,,001,2022_Jan_24_1135,TMTAstop-A,2021.2.3,60.027108224871476,
9,['2'],TMTstop-A_1_practicelinestimulus6.png,TMTstop-A_1_practicegreenlinestimulus6.png,TMTstop-A_1_practiceredlinestimulus6.png,10,,,,0,0,0,0,0,8,8,8,,,,,,,,,,,,,,,,,,,14.628219699952751,None,2,0.20552299998234957,14.628219699952751,None,,,,,,,,,,,,,,,001,2022_Jan_24_1135,TMTAstop-A,2021.2.3,60.027108224871476,
10,['3'],TMTstop-A_1_practicelinestimulus7.png,TMTstop-A_1_practicegreenlinestimulus7.png,TMTstop-A_1_practiceredlinestimulus7.png,10,,,,0,0,0,0,0,9,9,9,,,,,,,,,,,,,,,,,,,14.928233499987982,None,3,0.05723110004328191,14.928233499987982,None,,,,,,,,,,,,,,,001,2022_Jan_24_1135,TMTAstop-A,2021.2.3,60.027108224871476,
11,['1'],TMTstop-A_1_practicelinestimulus8.png,TMTstop-A_1_practicegreenlinestimulus8.png,TMTstop-A_1_practiceredlinestimulus8.png,10,,,,0,0,0,0,0,10,10,10,,,,,,,,,,,,,,,,,,,15.078329399926588,None,1,0.09537159989122301,15.078329399926588,None,,,,,,,,,,,,,,,001,2022_Jan_24_1135,TMTAstop-A,2021.2.3,60.027108224871476,
12,['2'],TMTstop-A_1_practicelinestimulus9.png,TMTstop-A_1_practicegreenlinestimulus9.png,TMTstop-A_1_practiceredlinestimulus9.png,10,,,,0,0,0,0,0,11,11,11,,,,,,,,,,,,,,,,,,,15.262072099954821,None,2,0.00216749997343868,15.262072099954821,None,,,,,,,,,,,,,,,001,2022_Jan_24_1135,TMTAstop-A,2021.2.3,60.027108224871476,
None,None,TMTstop-A_1_practicelinestimulus10.png,TMTstop-A_1_practicegreenlinestimulus10.png,TMTstop-A_1_practiceredlinestimulus10.png,None,,,,0,0,0,0,0,12,12,12,,,,,,,,,,,,,,,,,,,15.345069999922998,None,1,0.21344889991451055,15.345069999922998,None,,,,,,,,,,,,,,,001,2022_Jan_24_1135,TMTAstop-A,2021.2.3,60.027108224871476,
,,,,,,,,,0,0,0,0,,,,,,,,,,,,,,,,,,,,,,,,,,,,,16.49179819994606,None,2,0.6905884000007063,16.49179819994606,None,,,,,,,,,001,2022_Jan_24_1135,TMTAstop-A,2021.2.3,60.027108224871476,
1,['2'],TMTstop-A_1_1.png,TMTstop-A_1_1.png,TMTstop-A_1_1.png,10,TMTstop-A_1_1.xlsx,0:26,,,,,,,,,,0,0,0,0,0,0,0,0,,,,,,,,,17.27544139989186,None,,,,,,,,,,,,,20.330147399916314,None,['2'],1,[0.6791450999444351],20.330147399916314,None,,001,2022_Jan_24_1135,TMTAstop-A,2021.2.3,60.027108224871476,
2,['1'],TMTstop-A_1_1.png,TMTstop-A_1_1firstgreen.png,TMTstop-A_1_1firstred.png,10,TMTstop-A_1_1.xlsx,0:26,,,,,,,,,,0,0,0,0,0,1,1,1,,,,,,,,,,,,,,,,,,,,,,,21.097625999944285,None,['1'],1,[0.14374299999326468],21.097625999944285,None,,001,2022_Jan_24_1135,TMTAstop-A,2021.2.3,60.027108224871476,
3,['2'],TMTstop-A_1_1linestimulus0.png,TMTstop-A_1_1greenlinestimulus0.png,TMTstop-A_1_1redlinestimulus0.png,10,TMTstop-A_1_1.xlsx,0:26,,,,,,,,,,0,0,0,0,0,2,2,2,,,,,,,,,,,,,,,,,,,,,,,21.33156739990227,None,"['3', '1', '2']",1,"[-0.006148900021798909, 0.21331409993581474, 0.29609109996818006]",21.33156739990227,None,,001,2022_Jan_24_1135,TMTAstop-A,2021.2.3,60.027108224871476,
4,['3'],TMTstop-A_1_1linestimulus1.png,TMTstop-A_1_1greenlinestimulus1.png,TMTstop-A_1_1redlinestimulus1.png,10,TMTstop-A_1_1.xlsx,0:26,,,,,,,,,,0,0,0,0,0,3,3,3,,,,,,,,,,,,,,,,,,,,,,,21.714606099994853,None,['3'],1,[0.02055859996471554],21.714606099994853,None,,001,2022_Jan_24_1135,TMTAstop-A,2021.2.3,60.027108224871476,
5,['2'],TMTstop-A_1_1linestimulus2.png,TMTstop-A_1_1greenlinestimulus2.png,TMTstop-A_1_1redlinestimulus2.png,10,TMTstop-A_1_1.xlsx,0:26,,,,,,,,,,0,0,0,0,0,4,4,4,,,,,,,,,,,,,,,,,,,,,,,21.831377299968153,None,"['1', '2']",1,"[0.0714681000681594, 0.16350050002802163]",21.831377299968153,None,,001,2022_Jan_24_1135,TMTAstop-A,2021.2.3,60.027108224871476,
6,['3'],TMTstop-A_1_1linestimulus3.png,TMTstop-A_1_1greenlinestimulus3.png,TMTstop-A_1_1redlinestimulus3.png,10,TMTstop-A_1_1.xlsx,0:26,,,,,,,,,,0,0,0,0,0,5,5,5,,,,,,,,,,,,,,,,,,,,,,,22.09861169999931,None,['3'],1,[-0.01648460002616048],22.09861169999931,None,,001,2022_Jan_24_1135,TMTAstop-A,2021.2.3,60.027108224871476,
7,['2'],TMTstop-A_1_1linestimulus4.png,TMTstop-A_1_1greenlinestimulus4.png,TMTstop-A_1_1redlinestimulus4.png,10,TMTstop-A_1_1.xlsx,0:26,,,,,,,,,,0,0,0,0,0,6,6,6,,,,,,,,,,,,,,,,,,,,,,,22.18157389992848,None,"['1', '2']",1,"[0.0530062000034377, 0.13882509991526604]",22.18157389992848,None,,001,2022_Jan_24_1135,TMTAstop-A,2021.2.3,60.027108224871476,
8,['1'],TMTstop-A_1_1linestimulus5.png,TMTstop-A_1_1greenlinestimulus5.png,TMTstop-A_1_1redlinestimulus5.png,10,TMTstop-A_1_1.xlsx,0:26,,,,,,,,,,0,0,0,0,0,7,7,7,,,,,,,,,,,,,,,,,,,,,,,22.431615499895997,None,"['3', '1']",1,"[-0.0030439000111073256, 0.15727969992440194]",22.431615499895997,None,,001,2022_Jan_24_1135,TMTAstop-A,2021.2.3,60.027108224871476,
9,['2'],TMTstop-A_1_1linestimulus6.png,TMTstop-A_1_1greenlinestimulus6.png,TMTstop-A_1_1redlinestimulus6.png,10,TMTstop-A_1_1.xlsx,0:26,,,,,,,,,,0,0,0,0,0,8,8,8,,,,,,,,,,,,,,,,,,,,,,,22.715102099929936,None,['2'],1,[-0.05896260007284582],22.715102099929936,None,,001,2022_Jan_24_1135,TMTAstop-A,2021.2.3,60.027108224871476,
10,['1'],TMTstop-A_1_1linestimulus7.png,TMTstop-A_1_1greenlinestimulus7.png,TMTstop-A_1_1redlinestimulus7.png,10,TMTstop-A_1_1.xlsx,0:26,,,,,,,,,,0,0,0,0,0,9,9,9,,,,,,,,,,,,,,,,,,,,,,,22.79850739997346,None,"['3', '1']",1,"[-0.04424369998741895, 0.13391900004353374]",22.79850739997346,None,,001,2022_Jan_24_1135,TMTAstop-A,2021.2.3,60.027108224871476,
11,['2'],TMTstop-A_1_1linestimulus8.png,TMTstop-A_1_1greenlinestimulus8.png,TMTstop-A_1_1redlinestimulus8.png,10,TMTstop-A_1_1.xlsx,0:26,,,,,,,,,,0,0,0,0,0,10,10,10,,,,,,,,,,,,,,,,,,,,,,,23.031987299909815,None,['2'],1,[-0.026493399986065924],23.031987299909815,None,,001,2022_Jan_24_1135,TMTAstop-A,2021.2.3,60.027108224871476,
12,['3'],TMTstop-A_1_1linestimulus9.png,TMTstop-A_1_1greenlinestimulus9.png,TMTstop-A_1_1redlinestimulus9.png,10,TMTstop-A_1_1.xlsx,0:26,,,,,,,,,,0,0,0,0,0,11,11,11,,,,,,,,,,,,,,,,,,,,,,,23.115314799943008,None,['3'],1,[-0.0136438999325037],23.115314799943008,None,,001,2022_Jan_24_1135,TMTAstop-A,2021.2.3,60.027108224871476,
13,['2'],TMTstop-A_1_1linestimulus10.png,TMTstop-A_1_1greenlinestimulus10.png,TMTstop-A_1_1redlinestimulus10.png,1,TMTstop-A_1_1.xlsx,0:26,,,,,,,,,,0,0,0,0,0,12,12,12,,,,,,,,,,,,,,,,,,,,,,,23.19860149989836,None,"['1', '2']",1,"[0.08376379997935146, 0.17103189998306334]",23.19860149989836,None,,001,2022_Jan_24_1135,TMTAstop-A,2021.2.3,60.027108224871476,
14,['3'],TMTstop-A_1_1linestimulus11.png,TMTstop-A_1_1greenlinestimulus11.png,TMTstop-A_1_1redlinestimulus11.png,None,TMTstop-A_1_1.xlsx,0:26,,,,,,,,,,0,0,0,0,0,13,13,13,,,,,,,,,,,,,,,,,,,,,,,23.465359999914654,None,['3'],1,[-0.0016490000998601317],23.465359999914654,None,,001,2022_Jan_24_1135,TMTAstop-A,2021.2.3,60.027108224871476,
15,['1'],TMTstop-A_1_1linestimulus12.png,TMTstop-A_1_1greenlinestimulus12.png,TMTstop-A_1_1redlinestimulus12.png,None,TMTstop-A_1_1.xlsx,0:26,,,,,,,,,,0,0,0,0,0,14,14,14,,,,,,,,,,,,,,,,,,,,,,,23.54896749998443,None,['1'],1,[0.0769569999538362],23.54896749998443,None,,001,2022_Jan_24_1135,TMTAstop-A,2021.2.3,60.027108224871476,
16,['3'],TMTstop-A_1_1linestimulus13.png,TMTstop-A_1_1greenlinestimulus13.png,TMTstop-A_1_1redlinestimulus13.png,None,TMTstop-A_1_1.xlsx,0:26,,,,,,,,,,0,0,0,0,0,15,15,15,,,,,,,,,,,,,,,,,,,,,,,23.715521099977195,None,"['2', '3']",1,"[-0.017550599994137883, 0.11163409997243434]",23.715521099977195,None,,001,2022_Jan_24_1135,TMTAstop-A,2021.2.3,60.027108224871476,
17,['2'],TMTstop-A_1_1linestimulus14.png,TMTstop-A_1_1greenlinestimulus14.png,TMTstop-A_1_1redlinestimulus14.png,None,TMTstop-A_1_1.xlsx,0:26,,,,,,,,,,0,0,0,0,0,16,16,16,,,,,,,,,,,,,,,,,,,,,,,23.949039299972355,None,"['1', '2']",1,"[0.04421399999409914, 0.1219398999819532]",23.949039299972355,None,,001,2022_Jan_24_1135,TMTAstop-A,2021.2.3,60.027108224871476,
18,['3'],TMTstop-A_1_1linestimulus15.png,TMTstop-A_1_1greenlinestimulus15.png,TMTstop-A_1_1redlinestimulus15.png,None,TMTstop-A_1_1.xlsx,0:26,,,,,,,,,,0,0,0,0,0,17,17,17,,,,,,,,,,,,,,,,,,,,,,,24.184493899927475,None,['3'],1,[-0.01312860008329153],24.184493899927475,None,,001,2022_Jan_24_1135,TMTAstop-A,2021.2.3,60.027108224871476,
19,['1'],TMTstop-A_1_1linestimulus16.png,TMTstop-A_1_1greenlinestimulus16.png,TMTstop-A_1_1redlinestimulus16.png,None,TMTstop-A_1_1.xlsx,0:26,,,,,,,,,,0,0,0,0,0,18,18,18,,,,,,,,,,,,,,,,,,,,,,,24.26583309995476,None,['1'],1,[0.05411680007819086],24.26583309995476,None,,001,2022_Jan_24_1135,TMTAstop-A,2021.2.3,60.027108224871476,
20,['3'],TMTstop-A_1_1linestimulus17.png,TMTstop-A_1_1greenlinestimulus17.png,TMTstop-A_1_1redlinestimulus17.png,None,TMTstop-A_1_1.xlsx,0:26,,,,,,,,,,0,0,0,0,0,19,19,19,,,,,,,,,,,,,,,,,,,,,,,24.41581179993227,None,"['2', '3']",1,"[-0.008509900071658194, 0.07849099999293685]",24.41581179993227,None,,001,2022_Jan_24_1135,TMTAstop-A,2021.2.3,60.027108224871476,
21,['1'],TMTstop-A_1_1linestimulus18.png,TMTstop-A_1_1greenlinestimulus18.png,TMTstop-A_1_1redlinestimulus18.png,None,TMTstop-A_1_1.xlsx,0:26,,,,,,,,,,0,0,0,0,0,20,20,20,,,,,,,,,,,,,,,,,,,,,,,24.59936139988713,None,['1'],1,[0.07429609994869679],24.59936139988713,None,,001,2022_Jan_24_1135,TMTAstop-A,2021.2.3,60.027108224871476,
22,['3'],TMTstop-A_1_1linestimulus19.png,TMTstop-A_1_1greenlinestimulus19.png,TMTstop-A_1_1redlinestimulus19.png,None,TMTstop-A_1_1.xlsx,0:26,,,,,,,,,,0,0,0,0,0,21,21,21,,,,,,,,,,,,,,,,,,,,,,,24.76648899994325,None,"['2', '3']",1,"[-0.0032921999227255583, 0.1040888000279665]",24.76648899994325,None,,001,2022_Jan_24_1135,TMTAstop-A,2021.2.3,60.027108224871476,
23,['1'],TMTstop-A_1_1linestimulus20.png,TMTstop-A_1_1greenlinestimulus20.png,TMTstop-A_1_1redlinestimulus20.png,None,TMTstop-A_1_1.xlsx,0:26,,,,,,,,,,0,0,0,0,0,22,22,22,,,,,,,,,,,,,,,,,,,,,,,25.000347499968484,None,['1'],1,[0.03603720001410693],25.000347499968484,None,,001,2022_Jan_24_1135,TMTAstop-A,2021.2.3,60.027108224871476,
24,['2'],TMTstop-A_1_1linestimulus21.png,TMTstop-A_1_1greenlinestimulus21.png,TMTstop-A_1_1redlinestimulus21.png,None,TMTstop-A_1_1.xlsx,0:26,,,,,,,,,,0,0,0,0,0,23,23,23,,,,,,,,,,,,,,,,,,,,,,,25.13295699993614,None,['2'],1,[-0.03470530000049621],25.13295699993614,None,,001,2022_Jan_24_1135,TMTAstop-A,2021.2.3,60.027108224871476,
25,['3'],TMTstop-A_1_1linestimulus22.png,TMTstop-A_1_1greenlinestimulus22.png,TMTstop-A_1_1redlinestimulus22.png,None,TMTstop-A_1_1.xlsx,0:26,,,,,,,,,,0,0,0,0,0,24,24,24,,,,,,,,,,,,,,,,,,,,,,,25.21835209999699,None,['3'],1,[-0.019022700027562678],25.21835209999699,None,,001,2022_Jan_24_1135,TMTAstop-A,2021.2.3,60.027108224871476,
None,None,TMTstop-A_1_1linestimulus23.png,TMTstop-A_1_1greenlinestimulus23.png,TMTstop-A_1_1redlinestimulus23.png,None,TMTstop-A_1_1.xlsx,0:26,,,,,,,,,,0,0,0,0,0,25,25,25,,,,,,,,,,,,,,,,,,,,,,,25.29956799990032,None,"['1', '2', '3']",0,"[0.03799669991713017, 0.1277661999920383, 0.22360539995133877]",25.29956799990032,None,,001,2022_Jan_24_1135,TMTAstop-A,2021.2.3,60.027108224871476,
,,,,,,TMTstop-A_1_1.xlsx,0:26,,,,,,,,,,0,0,0,0,,,,,,,,,,,,,26.3982886999147,None,,,,,,,,,,,,,,,,,,,,,001,2022_Jan_24_1135,TMTAstop-A,2021.2.3,60.027108224871476,
1,['3'],TMTstop-A_1_2.png,TMTstop-A_1_2.png,TMTstop-A_1_2.png,10,TMTstop-A_1_2.xlsx,26:52,3,,,,,,,,,0,1,1,1,0,0,0,0,,,,,,,,,,,,,,,,,,,,,,,29.40157139999792,None,"['1', '2', '3']",1,"[0.6458971999818459, 0.7976500999648124, 0.9406665000133216]",29.40157139999792,None,,001,2022_Jan_24_1135,TMTAstop-A,2021.2.3,60.027108224871476,
2,['2'],TMTstop-A_1_2.png,TMTstop-A_1_2firstgreen.png,TMTstop-A_1_2firstred.png,10,TMTstop-A_1_2.xlsx,26:52,2,,,,,,,,,0,1,1,1,0,1,1,1,,,,,,,,,,,,,,,,,,,,,,,30.435407999902964,None,"['1', '2']",1,"[0.13199199992232025, 0.23810949991457164]",30.435407999902964,None,,001,2022_Jan_24_1135,TMTAstop-A,2021.2.3,60.027108224871476,
3,['3'],TMTstop-A_1_2linestimulus0.png,TMTstop-A_1_2greenlinestimulus0.png,TMTstop-A_1_2redlinestimulus0.png,10,TMTstop-A_1_2.xlsx,26:52,3,,,,,,,,,0,1,1,1,0,2,2,2,,,,,,,,,,,,,,,,,,,,,,,30.802227499894798,None,['3'],1,[0.04937140003312379],30.802227499894798,None,,001,2022_Jan_24_1135,TMTAstop-A,2021.2.3,60.027108224871476,
4,['1'],TMTstop-A_1_2linestimulus1.png,TMTstop-A_1_2greenlinestimulus1.png,TMTstop-A_1_2redlinestimulus1.png,10,TMTstop-A_1_2.xlsx,26:52,1,,,,,,,,,0,1,1,1,0,3,3,3,,,,,,,,,,,,,,,,,,,,,,,30.9356699999189,None,['1'],1,[0.06857759994454682],30.9356699999189,None,,001,2022_Jan_24_1135,TMTAstop-A,2021.2.3,60.027108224871476,
5,['2'],TMTstop-A_1_2linestimulus2.png,TMTstop-A_1_2greenlinestimulus2.png,TMTstop-A_1_2redlinestimulus2.png,10,TMTstop-A_1_2.xlsx,26:52,2,,,,,,,,,0,1,1,1,0,4,4,4,,,,,,,,,,,,,,,,,,,,,,,31.10225029999856,None,['2'],1,[-0.0380507999798283],31.10225029999856,None,,001,2022_Jan_24_1135,TMTAstop-A,2021.2.3,60.027108224871476,
6,['3'],TMTstop-A_1_2linestimulus3.png,TMTstop-A_1_2greenlinestimulus3.png,TMTstop-A_1_2redlinestimulus3.png,10,TMTstop-A_1_2.xlsx,26:52,3,,,,,,,,,0,1,1,1,0,5,5,5,,,,,,,,,,,,,,,,,,,,,,,31.185702299932018,None,['3'],1,[-0.012802699930034578],31.185702299932018,None,,001,2022_Jan_24_1135,TMTAstop-A,2021.2.3,60.027108224871476,
7,['2'],TMTstop-A_1_2linestimulus4.png,TMTstop-A_1_2greenlinestimulus4.png,TMTstop-A_1_2redlinestimulus4.png,10,TMTstop-A_1_2.xlsx,26:52,2,,,,,,,,,0,1,1,1,0,6,6,6,,,,,,,,,,,,,,,,,,,,,,,31.269300199928693,None,"['1', '2']",1,"[0.08247330004815012, 0.14759170007891953]",31.269300199928693,None,,001,2022_Jan_24_1135,TMTAstop-A,2021.2.3,60.027108224871476,
8,['1'],TMTstop-A_1_2linestimulus5.png,TMTstop-A_1_2greenlinestimulus5.png,TMTstop-A_1_2redlinestimulus5.png,10,TMTstop-A_1_2.xlsx,26:52,1,,,,,,,,,0,1,1,1,0,7,7,7,,,,,,,,,,,,,,,,,,,,,,,31.53579799993895,None,"['3', '1']",1,"[-0.018214300042018294, 0.15119849995244294]",31.53579799993895,None,,001,2022_Jan_24_1135,TMTAstop-A,2021.2.3,60.027108224871476,
9,['2'],TMTstop-A_1_2linestimulus6.png,TMTstop-A_1_2greenlinestimulus6.png,TMTstop-A_1_2redlinestimulus6.png,10,TMTstop-A_1_2.xlsx,26:52,2,,,,,,,,,0,1,1,1,0,8,8,8,,,,,,,,,,,,,,,,,,,,,,,31.769422799930908,None,['2'],1,[-0.016687100054696202],31.769422799930908,None,,001,2022_Jan_24_1135,TMTAstop-A,2021.2.3,60.027108224871476,
10,['3'],TMTstop-A_1_2linestimulus7.png,TMTstop-A_1_2greenlinestimulus7.png,TMTstop-A_1_2redlinestimulus7.png,10,TMTstop-A_1_2.xlsx,26:52,3,,,,,,,,,0,1,1,1,0,9,9,9,,,,,,,,,,,,,,,,,,,,,,,31.852876599994488,None,['3'],1,[0.0005297999596223235],31.852876599994488,None,,001,2022_Jan_24_1135,TMTAstop-A,2021.2.3,60.027108224871476,
11,['1'],TMTstop-A_1_2linestimulus8.png,TMTstop-A_1_2greenlinestimulus8.png,TMTstop-A_1_2redlinestimulus8.png,10,TMTstop-A_1_2.xlsx,26:52,1,,,,,,,,,0,1,1,1,0,10,10,10,,,,,,,,,,,,,,,,,,,,,,,31.93599169992376,None,['1'],1,[0.09836880001239479],31.93599169992376,None,,001,2022_Jan_24_1135,TMTAstop-A,2021.2.3,60.027108224871476,
12,['2'],TMTstop-A_1_2linestimulus9.png,TMTstop-A_1_2greenlinestimulus9.png,TMTstop-A_1_2redlinestimulus9.png,10,TMTstop-A_1_2.xlsx,26:52,2,,,,,,,,,0,1,1,1,0,11,11,11,,,,,,,,,,,,,,,,,,,,,,,32.15281119989231,None,['2'],1,[-0.06363760004751384],32.15281119989231,None,,001,2022_Jan_24_1135,TMTAstop-A,2021.2.3,60.027108224871476,
13,['3'],TMTstop-A_1_2linestimulus10.png,TMTstop-A_1_2greenlinestimulus10.png,TMTstop-A_1_2redlinestimulus10.png,1,TMTstop-A_1_2.xlsx,26:52,3,,,,,,,,,0,1,1,1,0,12,12,12,,,,,,,,,,,,,,,,,,,,,,,32.236166299902834,None,['3'],1,[-0.02895050006918609],32.236166299902834,None,,001,2022_Jan_24_1135,TMTAstop-A,2021.2.3,60.027108224871476,
14,['1'],TMTstop-A_1_2linestimulus11.png,TMTstop-A_1_2greenlinestimulus11.png,TMTstop-A_1_2redlinestimulus11.png,None,TMTstop-A_1_2.xlsx,26:52,1,,,,,,,,,0,1,1,1,0,13,13,13,,,,,,,,,,,,,,,,,,,,,,,32.31946919998154,None,['1'],1,[0.05760669999290258],32.31946919998154,None,,001,2022_Jan_24_1135,TMTAstop-A,2021.2.3,60.027108224871476,
15,['3'],TMTstop-A_1_2linestimulus12.png,TMTstop-A_1_2greenlinestimulus12.png,TMTstop-A_1_2redlinestimulus12.png,None,TMTstop-A_1_2.xlsx,26:52,3,,,,,,,,,0,1,1,1,0,14,14,14,,,,,,,,,,,,,,,,,,,,,,,32.46943729999475,None,"['2', '3']",1,"[-0.0367038999684155, 0.05547689995728433]",32.46943729999475,None,,001,2022_Jan_24_1135,TMTAstop-A,2021.2.3,60.027108224871476,
16,['1'],TMTstop-A_1_2linestimulus13.png,TMTstop-A_1_2greenlinestimulus13.png,TMTstop-A_1_2redlinestimulus13.png,None,TMTstop-A_1_2.xlsx,26:52,1,,,,,,,,,0,1,1,1,0,15,15,15,,,,,,,,,,,,,,,,,,,,,,,32.653360399999656,None,['1'],1,[0.03174319991376251],32.653360399999656,None,,001,2022_Jan_24_1135,TMTAstop-A,2021.2.3,60.027108224871476,
17,['2'],TMTstop-A_1_2linestimulus14.png,TMTstop-A_1_2greenlinestimulus14.png,TMTstop-A_1_2redlinestimulus14.png,None,TMTstop-A_1_2.xlsx,26:52,2,,,,,,,,,0,1,1,1,0,16,16,16,,,,,,,,,,,,,,,,,,,,,,,32.76975519990083,None,['2'],1,[-0.016119300038553774],32.76975519990083,None,,001,2022_Jan_24_1135,TMTAstop-A,2021.2.3,60.027108224871476,
18,['1'],TMTstop-A_1_2linestimulus15.png,TMTstop-A_1_2greenlinestimulus15.png,TMTstop-A_1_2redlinestimulus15.png,None,TMTstop-A_1_2.xlsx,26:52,1,,,,,,,,,0,1,1,1,0,17,17,17,,,,,,,,,,,,,,,,,,,,,,,32.853202499914914,None,"['3', '1']",1,"[0.04314869991503656, 0.198823899962008]",32.853202499914914,None,,001,2022_Jan_24_1135,TMTAstop-A,2021.2.3,60.027108224871476,
19,['3'],TMTstop-A_1_2linestimulus16.png,TMTstop-A_1_2greenlinestimulus16.png,TMTstop-A_1_2redlinestimulus16.png,None,TMTstop-A_1_2.xlsx,26:52,3,,,,,,,,,0,1,1,1,0,18,18,18,,,,,,,,,,,,,,,,,,,,,,,33.13647259993013,None,"['2', '3']",1,"[-0.06012710009235889, 0.10308699996676296]",33.13647259993013,None,,001,2022_Jan_24_1135,TMTAstop-A,2021.2.3,60.027108224871476,
20,['1'],TMTstop-A_1_2linestimulus17.png,TMTstop-A_1_2greenlinestimulus17.png,TMTstop-A_1_2redlinestimulus17.png,None,TMTstop-A_1_2.xlsx,26:52,1,,,,,,,,,0,1,1,1,0,19,19,19,,,,,,,,,,,,,,,,,,,,,,,33.36997179989703,None,['1'],1,[0.026769299991428852],33.36997179989703,None,,001,2022_Jan_24_1135,TMTAstop-A,2021.2.3,60.027108224871476,
21,['2'],TMTstop-A_1_2linestimulus18.png,TMTstop-A_1_2greenlinestimulus18.png,TMTstop-A_1_2redlinestimulus18.png,None,TMTstop-A_1_2.xlsx,26:52,2,,,,,,,,,0,1,1,1,0,20,20,20,,,,,,,,,,,,,,,,,,,,,,,33.48895489994902,None,['2'],1,[-0.05176750000100583],33.48895489994902,None,,001,2022_Jan_24_1135,TMTAstop-A,2021.2.3,60.027108224871476,
22,['1'],TMTstop-A_1_2linestimulus19.png,TMTstop-A_1_2greenlinestimulus19.png,TMTstop-A_1_2redlinestimulus19.png,None,TMTstop-A_1_2.xlsx,26:52,1,,,,,,,,,0,1,1,1,0,21,21,21,,,,,,,,,,,,,,,,,,,,,,,33.57005669991486,None,"['3', '1']",1,"[0.005935499910265207, 0.1805469999089837]",33.57005669991486,None,,001,2022_Jan_24_1135,TMTAstop-A,2021.2.3,60.027108224871476,
23,['2'],TMTstop-A_1_2linestimulus20.png,TMTstop-A_1_2greenlinestimulus20.png,TMTstop-A_1_2redlinestimulus20.png,None,TMTstop-A_1_2.xlsx,26:52,2,,,,,,,,,0,1,1,1,0,22,22,22,,,,,,,,,,,,,,,,,,,,,,,33.870263999910094,None,['2'],1,[-0.060618999996222556],33.870263999910094,None,,001,2022_Jan_24_1135,TMTAstop-A,2021.2.3,60.027108224871476,
24,['1'],TMTstop-A_1_2linestimulus21.png,TMTstop-A_1_2greenlinestimulus21.png,TMTstop-A_1_2redlinestimulus21.png,None,TMTstop-A_1_2.xlsx,26:52,1,,,,,,,,,0,1,1,1,0,23,23,23,,,,,,,,,,,,,,,,,,,,,,,33.953814899898134,None,"['3', '1']",1,"[-0.02408810006454587, 0.13502059993334115]",33.953814899898134,None,,001,2022_Jan_24_1135,TMTAstop-A,2021.2.3,60.027108224871476,
25,['2'],TMTstop-A_1_2linestimulus22.png,TMTstop-A_1_2greenlinestimulus22.png,TMTstop-A_1_2redlinestimulus22.png,None,TMTstop-A_1_2.xlsx,26:52,2,,,,,,,,,0,1,1,1,0,24,24,24,,,,,,,,,,,,,,,,,,,,,,,34.18710519990418,None,['2'],1,[-0.01842380000744015],34.18710519990418,None,,001,2022_Jan_24_1135,TMTAstop-A,2021.2.3,60.027108224871476,
None,None,TMTstop-A_1_2linestimulus23.png,TMTstop-A_1_2greenlinestimulus23.png,TMTstop-A_1_2redlinestimulus23.png,None,TMTstop-A_1_2.xlsx,26:52,None,,,,,,,,,0,1,1,1,0,25,25,25,,,,,,,,,,,,,,,,,,,,,,,34.27050149999559,None,"['3', '1', '2', '3', '1', '2', '3']",0,"[0.00388930004555732, 0.17169889993965626, 0.23218039993662387, 0.3516990999924019, 0.48290159995667636, 0.5733933999435976, 0.7284254999831319]",34.27050149999559,None,,001,2022_Jan_24_1135,TMTAstop-A,2021.2.3,60.027108224871476,
,,,,,,TMTstop-A_1_2.xlsx,26:52,,,,,,,,,,0,1,1,1,,,,,,,,,,,,,35.41933659999631,None,,,,,,,,,,,,,,,,,,,,,001,2022_Jan_24_1135,TMTAstop-A,2021.2.3,60.027108224871476,
