Block_paper,Condition_rows,NumberLetter,corrAns,Correct,StimFile,Correct_StimFile,False_StimFile,Version,Paper,TrialNumber_Version,Round,Block,Blocks_Control1.thisRepN,Blocks_Control1.thisTrialN,Blocks_Control1.thisN,Blocks_Control1.thisIndex,trials_Control1.thisRepN,trials_Control1.thisTrialN,trials_Control1.thisN,trials_Control1.thisIndex,Blocks_TMTA1.thisRepN,Blocks_TMTA1.thisTrialN,Blocks_TMTA1.thisN,Blocks_TMTA1.thisIndex,trials_TMTA1.thisRepN,trials_TMTA1.thisTrialN,trials_TMTA1.thisN,trials_TMTA1.thisIndex,Blocks_Control2.thisRepN,Blocks_Control2.thisTrialN,Blocks_Control2.thisN,Blocks_Control2.thisIndex,trials_Control2.thisRepN,trials_Control2.thisTrialN,trials_Control2.thisN,trials_Control2.thisIndex,Blocks_TMTB1.thisRepN,Blocks_TMTB1.thisTrialN,Blocks_TMTB1.thisN,Blocks_TMTB1.thisIndex,trials_TMTB1.thisRepN,trials_TMTB1.thisTrialN,trials_TMTB1.thisN,trials_TMTB1.thisIndex,key_resp_7.keys,key_resp_7.rt,key_resp_7.started,key_resp_7.stopped,polygon_2.started,polygon_2.stopped,text_2.started,text_2.stopped,Attempts,First_attempt,ResponseClock,Stim.started,Stim.stopped,key_resp_2.keys,key_resp_2.corr,key_resp_2.rt,key_resp_2.started,key_resp_2.stopped,Info2.started,Info2.stopped,participant,session,date,expName,psychopyVersion,frameRate,
,,,,,,,,,,,,,,,,,,,,,,,,,,,,,,,,,,,,,,,,,,,,,s,1.3851971998810768,12.281864800024778,None,,,,,,,,,,,,,,,,,,001,2022_Dec_12_1615,TMT_fmri,2021.2.3,60.52213660714845,
C1,0:26,1,['2'],2,Images/TMTstop-control_1_1.png,Images/TMTstop-control_1_1.png,Images/TMTstop-control_1_1.png,TMT_Control,C1,1,1,1,0,0,0,0,0,0,0,0,,,,,,,,,,,,,,,,,,,,,,,,,,,,,12.281864800024778,None,27.191882899962366,None,2,0,8.744324499741197,34.52426109975204,None,"['1', '2']",1,"[1.246052899863571, 1.351891300175339]",34.52426109975204,None,,,,001,2022_Dec_12_1615,TMT_fmri,2021.2.3,60.52213660714845,
C1,0:26,2,['1'],1,Images/TMTstop-control_1_1.png,Images/TMTstop-control_1_1firstgreen.png,Images/TMTstop-control_1_1firstred.png,TMT_Control,C1,2,None,1,0,0,0,0,0,1,1,1,,,,,,,,,,,,,,,,,,,,,,,,,,,,,,,,,2,0,8.950328900013119,35.96943769976497,None,"['3', '1']",1,"[-0.020706700161099434, 0.12802059995010495]",35.96943769976497,None,,,,001,2022_Dec_12_1615,TMT_fmri,2021.2.3,60.52213660714845,
C1,0:26,3,['3'],3,Images/TMTstop-control_1_1linestimulus0.png,Images/TMTstop-control_1_1greenlinestimulus0.png,Images/TMTstop-control_1_1redlinestimulus0.png,TMT_Control,C1,3,None,1,0,0,0,0,0,2,2,2,,,,,,,,,,,,,,,,,,,,,,,,,,,,,,,,,2,0,9.06635869992897,36.18615370010957,None,"['2', '3']",1,"[-0.03954679984599352, 0.033914499916136265]",36.18615370010957,None,,,,001,2022_Dec_12_1615,TMT_fmri,2021.2.3,60.52213660714845,
C1,0:26,4,['1'],1,Images/TMTstop-control_1_1linestimulus1.png,Images/TMTstop-control_1_1greenlinestimulus1.png,Images/TMTstop-control_1_1redlinestimulus1.png,TMT_Control,C1,4,None,1,0,0,0,0,0,3,3,3,,,,,,,,,,,,,,,,,,,,,,,,,,,,,,,,,1,1,9.203375599812716,36.28944339975715,None,['1'],1,[0.0571322999894619],36.28944339975715,None,,,,001,2022_Dec_12_1615,TMT_fmri,2021.2.3,60.52213660714845,
C1,0:26,5,['3'],3,Images/TMTstop-control_1_1linestimulus2.png,Images/TMTstop-control_1_1greenlinestimulus2.png,Images/TMTstop-control_1_1redlinestimulus2.png,TMT_Control,C1,5,None,1,0,0,0,0,0,4,4,4,,,,,,,,,,,,,,,,,,,,,,,,,,,,,,,,,2,0,9.35336389997974,36.422933800145984,None,"['2', '3']",1,"[-0.02790360013023019, 0.054790500085800886]",36.422933800145984,None,,,,001,2022_Dec_12_1615,TMT_fmri,2021.2.3,60.52213660714845,
C1,0:26,6,['1'],1,Images/TMTstop-control_1_1linestimulus3.png,Images/TMTstop-control_1_1greenlinestimulus3.png,Images/TMTstop-control_1_1redlinestimulus3.png,TMT_Control,C1,6,None,1,0,0,0,0,0,5,5,5,,,,,,,,,,,,,,,,,,,,,,,,,,,,,,,,,1,1,9.45340729970485,36.572910299990326,None,['1'],1,[0.031089100055396557],36.572910299990326,None,,,,001,2022_Dec_12_1615,TMT_fmri,2021.2.3,60.52213660714845,
C1,0:26,7,['2'],2,Images/TMTstop-control_1_1linestimulus4.png,Images/TMTstop-control_1_1greenlinestimulus4.png,Images/TMTstop-control_1_1redlinestimulus4.png,TMT_Control,C1,7,None,1,0,0,0,0,0,6,6,6,,,,,,,,,,,,,,,,,,,,,,,,,,,,,,,,,1,1,9.503373499959707,36.67304780008271,None,['2'],1,[-0.00802799966186285],36.67304780008271,None,,,,001,2022_Dec_12_1615,TMT_fmri,2021.2.3,60.52213660714845,
C1,0:26,8,['1'],1,Images/TMTstop-control_1_1linestimulus4.png,Images/TMTstop-control_1_1greenlinestimulus5.png,Images/TMTstop-control_1_1redlinestimulus5.png,TMT_Control,C1,8,None,1,0,0,0,0,0,7,7,7,,,,,,,,,,,,,,,,,,,,,,,,,,,,,,,,,2,0,9.703377399593592,36.72332580015063,None,"['3', '1']",1,"[0.021041699685156345, 0.14357100008055568]",36.72332580015063,None,,,,001,2022_Dec_12_1615,TMT_fmri,2021.2.3,60.52213660714845,
C1,0:26,9,['3'],3,Images/TMTstop-control_1_1linestimulus6.png,Images/TMTstop-control_1_1greenlinestimulus6.png,Images/TMTstop-control_1_1redlinestimulus6.png,TMT_Control,C1,9,None,1,0,0,0,0,0,8,8,8,,,,,,,,,,,,,,,,,,,,,,,,,,,,,,,,,2,0,9.88436899986118,36.923550200182945,None,"['2', '3']",1,"[0.0173873002640903, 0.09081279998645186]",36.923550200182945,None,,,,001,2022_Dec_12_1615,TMT_fmri,2021.2.3,60.52213660714845,
C1,0:26,10,['2'],2,Images/TMTstop-control_1_1linestimulus7.png,Images/TMTstop-control_1_1greenlinestimulus7.png,Images/TMTstop-control_1_1redlinestimulus7.png,TMT_Control,C1,10,None,1,0,0,0,0,0,9,9,9,,,,,,,,,,,,,,,,,,,,,,,,,,,,,,,,,2,0,10.084343599621207,37.10371779976413,None,"['1', '2']",1,"[0.04452549992129207, 0.1292897998355329]",37.10371779976413,None,,,,001,2022_Dec_12_1615,TMT_fmri,2021.2.3,60.52213660714845,
C1,0:26,11,['1'],1,Images/TMTstop-control_1_1linestimulus8.png,Images/TMTstop-control_1_1greenlinestimulus8.png,Images/TMTstop-control_1_1redlinestimulus8.png,TMT_Control,C1,11,None,1,0,0,0,0,0,10,10,10,,,,,,,,,,,,,,,,,,,,,,,,,,,,,,,,,2,0,10.284367499873042,37.30402579996735,None,"['3', '1']",1,"[-0.006660900078713894, 0.1491753002628684]",37.30402579996735,None,,,,001,2022_Dec_12_1615,TMT_fmri,2021.2.3,60.52213660714845,
C1,0:26,12,['2'],2,Images/TMTstop-control_1_1linestimulus9.png,Images/TMTstop-control_1_1greenlinestimulus9.png,Images/TMTstop-control_1_1redlinestimulus9.png,TMT_Control,C1,12,None,1,0,0,0,0,0,11,11,11,,,,,,,,,,,,,,,,,,,,,,,,,,,,,,,,,1,1,10.351515999995172,37.50427069980651,None,['2'],1,[0.005307099781930447],37.50427069980651,None,,,,001,2022_Dec_12_1615,TMT_fmri,2021.2.3,60.52213660714845,
C1,0:26,13,['3'],3,Images/TMTstop-control_1_1linestimulus10.png,Images/TMTstop-control_1_1greenlinestimulus10.png,Images/TMTstop-control_1_1redlinestimulus10.png,TMT_Control,C1,13,None,1,0,0,0,0,0,12,12,12,,,,,,,,,,,,,,,,,,,,,,,,,,,,,,,,,1,1,10.458415399771184,37.577906399965286,None,['3'],1,[0.019441499840468168],37.577906399965286,None,,,,001,2022_Dec_12_1615,TMT_fmri,2021.2.3,60.52213660714845,
C1,0:26,14,['2'],2,Images/TMTstop-control_1_1linestimulus11.png,Images/TMTstop-control_1_1greenlinestimulus11.png,Images/TMTstop-control_1_1redlinestimulus11.png,TMT_Control,C1,14,None,1,0,0,0,0,0,13,13,13,,,,,,,,,,,,,,,,,,,,,,,,,,,,,,,,,2,0,10.658429599832743,37.677339300047606,None,"['1', '2']",1,"[0.04573389980942011, 0.10648229997605085]",37.677339300047606,None,,,,001,2022_Dec_12_1615,TMT_fmri,2021.2.3,60.52213660714845,
C1,0:26,15,['3'],3,Images/TMTstop-control_1_1linestimulus12.png,Images/TMTstop-control_1_1greenlinestimulus12.png,Images/TMTstop-control_1_1redlinestimulus12.png,TMT_Control,C1,15,None,1,0,0,0,0,0,14,14,14,,,,,,,,,,,,,,,,,,,,,,,,,,,,,,,,,1,1,10.715356799773872,37.885055100079626,None,['3'],1,[-0.030069599859416485],37.885055100079626,None,,,,001,2022_Dec_12_1615,TMT_fmri,2021.2.3,60.52213660714845,
C1,0:26,16,['2'],2,Images/TMTstop-control_1_1linestimulus13.png,Images/TMTstop-control_1_1greenlinestimulus13.png,Images/TMTstop-control_1_1redlinestimulus13.png,TMT_Control,C1,16,None,1,0,0,0,0,0,15,15,15,,,,,,,,,,,,,,,,,,,,,,,,,,,,,,,,,2,0,10.899336099624634,37.934497400186956,None,"['1', '2']",1,"[0.07290410017594695, 0.10872940020635724]",37.934497400186956,None,,,,001,2022_Dec_12_1615,TMT_fmri,2021.2.3,60.52213660714845,
C1,0:26,17,['3'],3,Images/TMTstop-control_1_1linestimulus14.png,Images/TMTstop-control_1_1greenlinestimulus14.png,Images/TMTstop-control_1_1redlinestimulus14.png,TMT_Control,C1,17,None,1,0,0,0,0,0,16,16,16,,,,,,,,,,,,,,,,,,,,,,,,,,,,,,,,,1,1,10.990393299609423,38.12408749992028,None,['3'],1,[0.0191040001809597],38.12408749992028,None,,,,001,2022_Dec_12_1615,TMT_fmri,2021.2.3,60.52213660714845,
C1,0:26,18,['2'],2,Images/TMTstop-control_1_1linestimulus15.png,Images/TMTstop-control_1_1greenlinestimulus15.png,Images/TMTstop-control_1_1redlinestimulus15.png,TMT_Control,C1,18,None,1,0,0,0,0,0,17,17,17,,,,,,,,,,,,,,,,,,,,,,,,,,,,,,,,,2,0,11.217983399983495,38.212917800061405,None,"['1', '2']",1,"[0.10619640024378896, 0.1379961003549397]",38.212917800061405,None,,,,001,2022_Dec_12_1615,TMT_fmri,2021.2.3,60.52213660714845,
C1,0:26,19,['1'],1,Images/TMTstop-control_1_1linestimulus16.png,Images/TMTstop-control_1_1greenlinestimulus16.png,Images/TMTstop-control_1_1redlinestimulus16.png,TMT_Control,C1,19,None,1,0,0,0,0,0,18,18,18,,,,,,,,,,,,,,,,,,,,,,,,,,,,,,,,,2,0,11.47599079972133,38.4540904997848,None,"['3', '1']",1,"[0.00496299983933568, 0.16263899998739362]",38.4540904997848,None,,,,001,2022_Dec_12_1615,TMT_fmri,2021.2.3,60.52213660714845,
C1,0:26,20,['3'],3,Images/TMTstop-control_1_1linestimulus17.png,Images/TMTstop-control_1_1greenlinestimulus17.png,Images/TMTstop-control_1_1redlinestimulus17.png,TMT_Control,C1,20,None,1,0,0,0,0,0,19,19,19,,,,,,,,,,,,,,,,,,,,,,,,,,,,,,,,,2,0,11.62915869988501,38.69495719997212,None,"['2', '3']",1,"[-0.02175790024921298, 0.06247159978374839]",38.69495719997212,None,,,,001,2022_Dec_12_1615,TMT_fmri,2021.2.3,60.52213660714845,
C1,0:26,21,['1'],1,Images/TMTstop-control_1_1linestimulus18.png,Images/TMTstop-control_1_1greenlinestimulus18.png,Images/TMTstop-control_1_1redlinestimulus18.png,TMT_Control,C1,21,None,1,0,0,0,0,0,20,20,20,,,,,,,,,,,,,,,,,,,,,,,,,,,,,,,,,1,1,11.762225499842316,38.84861780004576,None,['1'],1,[0.07715369993820786],38.84861780004576,None,,,,001,2022_Dec_12_1615,TMT_fmri,2021.2.3,60.52213660714845,
C1,0:26,22,['2'],2,Images/TMTstop-control_1_1linestimulus19.png,Images/TMTstop-control_1_1greenlinestimulus19.png,Images/TMTstop-control_1_1redlinestimulus19.png,TMT_Control,C1,22,None,1,0,0,0,0,0,21,21,21,,,,,,,,,,,,,,,,,,,,,,,,,,,,,,,,,1,1,11.812179999891669,38.98212580010295,None,['2'],1,[-0.018633900210261345],38.98212580010295,None,,,,001,2022_Dec_12_1615,TMT_fmri,2021.2.3,60.52213660714845,
C1,0:26,23,['3'],3,Images/TMTstop-control_1_1linestimulus20.png,Images/TMTstop-control_1_1greenlinestimulus20.png,Images/TMTstop-control_1_1redlinestimulus20.png,TMT_Control,C1,23,None,1,0,0,0,0,0,22,22,22,,,,,,,,,,,,,,,,,,,,,,,,,,,,,,,,,1,1,11.91318849986419,39.03204410010949,None,['3'],1,[0.03497650008648634],39.03204410010949,None,,,,001,2022_Dec_12_1615,TMT_fmri,2021.2.3,60.52213660714845,
C1,0:26,24,['2'],2,Images/TMTstop-control_1_1linestimulus21.png,Images/TMTstop-control_1_1greenlinestimulus21.png,Images/TMTstop-control_1_1redlinestimulus21.png,TMT_Control,C1,24,None,1,0,0,0,0,0,23,23,23,,,,,,,,,,,,,,,,,,,,,,,,,,,,,,,,,2,0,12.130179099738598,39.13175030006096,None,"['1', '2']",1,"[0.1105102002620697, 0.15945470007136464]",39.13175030006096,None,,,,001,2022_Dec_12_1615,TMT_fmri,2021.2.3,60.52213660714845,
C1,0:26,25,['1'],1,Images/TMTstop-control_1_1linestimulus22.png,Images/TMTstop-control_1_1greenlinestimulus22.png,Images/TMTstop-control_1_1redlinestimulus22.png,TMT_Control,C1,25,None,1,0,0,0,0,0,24,24,24,,,,,,,,,,,,,,,,,,,,,,,,,,,,,,,,,2,0,12.393153799697757,39.34869620017707,None,"['3', '1']",1,"[0.04455090034753084, 0.18161780014634132]",39.34869620017707,None,,,,001,2022_Dec_12_1615,TMT_fmri,2021.2.3,60.52213660714845,
C1,0:26,None,None,None,Images/TMTstop-control_1_1linestimulus23.png,Images/TMTstop-control_1_1greenlinestimulus23.png,Images/TMTstop-control_1_1redlinestimulus23.png,TMT_Control,C1,Feedback_last,None,1,0,0,0,0,0,25,25,25,,,,,,,,,,,,,,,,,,,,,,,,,,,,,,,,,3,0,,39.61303520016372,None,"['2', '3', '1']",0,"[-0.03710529999807477, 0.0591863002628088, 0.19063539989292622]",39.61303520016372,None,,,,001,2022_Dec_12_1615,TMT_fmri,2021.2.3,60.52213660714845,
C2,26:52,1,['2'],2,Images/TMTstop-control_1_2.png,Images/TMTstop-control_1_2.png,Images/TMTstop-control_1_2.png,TMT_Control,C2,26,None,1,0,1,1,1,0,0,0,0,,,,,,,,,,,,,,,,,,,,,,,,,,,,,,,,,2,0,17.372751999646425,43.92014299985021,None,"['1', '2']",1,"[0.473047100007534, 0.5894705997779965]",43.92014299985021,None,,,,001,2022_Dec_12_1615,TMT_fmri,2021.2.3,60.52213660714845,
C2,26:52,2,['3'],3,Images/TMTstop-control_1_2.png,Images/TMTstop-control_1_2firstgreen.png,Images/TMTstop-control_1_2firstred.png,TMT_Control,C2,27,None,1,0,1,1,1,0,1,1,1,,,,,,,,,,,,,,,,,,,,,,,,,,,,,,,,,1,1,17.427831899840385,44.59693989995867,None,['3'],1,[-0.03240660019218922],44.59693989995867,None,,,,001,2022_Dec_12_1615,TMT_fmri,2021.2.3,60.52213660714845,
C2,26:52,3,['2'],2,Images/TMTstop-control_1_2linestimulus0.png,Images/TMTstop-control_1_2greenlinestimulus0.png,Images/TMTstop-control_1_2redlinestimulus0.png,TMT_Control,C2,28,None,1,0,1,1,1,0,2,2,2,,,,,,,,,,,,,,,,,,,,,,,,,,,,,,,,,2,0,17.650753299705684,44.64693310018629,None,"['1', '2']",1,"[0.06443809997290373, 0.12652979977428913]",44.64693310018629,None,,,,001,2022_Dec_12_1615,TMT_fmri,2021.2.3,60.52213660714845,
C2,26:52,4,['3'],3,Images/TMTstop-control_1_2linestimulus1.png,Images/TMTstop-control_1_2greenlinestimulus1.png,Images/TMTstop-control_1_2redlinestimulus1.png,TMT_Control,C2,29,None,1,0,1,1,1,0,3,3,3,,,,,,,,,,,,,,,,,,,,,,,,,,,,,,,,,1,1,17.707783799618483,44.87712989980355,None,['3'],1,[-0.03064880007877946],44.87712989980355,None,,,,001,2022_Dec_12_1615,TMT_fmri,2021.2.3,60.52213660714845,
C2,26:52,5,['2'],2,Images/TMTstop-control_1_2linestimulus2.png,Images/TMTstop-control_1_2greenlinestimulus2.png,Images/TMTstop-control_1_2redlinestimulus2.png,TMT_Control,C2,30,None,1,0,1,1,1,0,4,4,4,,,,,,,,,,,,,,,,,,,,,,,,,,,,,,,,,2,0,17.907786099705845,44.92679180018604,None,"['1', '2']",1,"[0.10058289999142289, 0.13641409995034337]",44.92679180018604,None,,,,001,2022_Dec_12_1615,TMT_fmri,2021.2.3,60.52213660714845,
C2,26:52,6,['3'],3,Images/TMTstop-control_1_2linestimulus3.png,Images/TMTstop-control_1_2greenlinestimulus3.png,Images/TMTstop-control_1_2redlinestimulus3.png,TMT_Control,C2,31,None,1,0,1,1,1,0,5,5,5,,,,,,,,,,,,,,,,,,,,,,,,,,,,,,,,,1,1,18.064805699978024,45.133954000193626,None,['3'],1,[0.08792909979820251],45.133954000193626,None,,,,001,2022_Dec_12_1615,TMT_fmri,2021.2.3,60.52213660714845,
C2,26:52,7,['2'],2,Images/TMTstop-control_1_2linestimulus4.png,Images/TMTstop-control_1_2greenlinestimulus4.png,Images/TMTstop-control_1_2redlinestimulus4.png,TMT_Control,C2,32,None,1,0,1,1,1,0,6,6,6,,,,,,,,,,,,,,,,,,,,,,,,,,,,,,,,,2,0,18.2727517997846,45.28495070012286,None,"['1', '2']",1,"[0.08632389968261123, 0.13088889978826046]",45.28495070012286,None,,,,001,2022_Dec_12_1615,TMT_fmri,2021.2.3,60.52213660714845,
C2,26:52,8,['1'],1,Images/TMTstop-control_1_2linestimulus4.png,Images/TMTstop-control_1_2greenlinestimulus5.png,Images/TMTstop-control_1_2redlinestimulus5.png,TMT_Control,C2,33,None,1,0,1,1,1,0,7,7,7,,,,,,,,,,,,,,,,,,,,,,,,,,,,,,,,,5,0,19.07170769991353,45.492383799981326,None,"['3', '1', '2', '3', '1']",1,"[0.07495060004293919, 0.4173286999575794, 0.43165949964895844, 0.5187287000007927, 0.7207168997265399]",45.492383799981326,None,,,,001,2022_Dec_12_1615,TMT_fmri,2021.2.3,60.52213660714845,
C2,26:52,9,['3'],3,Images/TMTstop-control_1_2linestimulus6.png,Images/TMTstop-control_1_2greenlinestimulus6.png,Images/TMTstop-control_1_2redlinestimulus6.png,TMT_Control,C2,34,None,1,0,1,1,1,0,8,8,8,,,,,,,,,,,,,,,,,,,,,,,,,,,,,,,,,2,0,19.173750899732113,46.292370799928904,None,"['2', '3']",1,"[-0.03745790012180805, 0.04243340017274022]",46.292370799928904,None,,,,001,2022_Dec_12_1615,TMT_fmri,2021.2.3,60.52213660714845,
C2,26:52,10,['2'],2,Images/TMTstop-control_1_2linestimulus7.png,Images/TMTstop-control_1_2greenlinestimulus7.png,Images/TMTstop-control_1_2redlinestimulus7.png,TMT_Control,C2,35,None,1,0,1,1,1,0,9,9,9,,,,,,,,,,,,,,,,,,,,,,,,,,,,,,,,,2,0,19.39074709964916,46.39309370005503,None,"['1', '2']",1,"[0.115595200099051, 0.16600350011140108]",46.39309370005503,None,,,,001,2022_Dec_12_1615,TMT_fmri,2021.2.3,60.52213660714845,
C2,26:52,11,['3'],3,Images/TMTstop-control_1_2linestimulus8.png,Images/TMTstop-control_1_2greenlinestimulus8.png,Images/TMTstop-control_1_2redlinestimulus8.png,TMT_Control,C2,36,None,1,0,1,1,1,0,10,10,10,,,,,,,,,,,,,,,,,,,,,,,,,,,,,,,,,1,1,19.479756499640644,46.61540469992906,None,['3'],1,[0.02157209999859333],46.61540469992906,None,,,,001,2022_Dec_12_1615,TMT_fmri,2021.2.3,60.52213660714845,
C2,26:52,12,['2'],2,Images/TMTstop-control_1_2linestimulus9.png,Images/TMTstop-control_1_2greenlinestimulus9.png,Images/TMTstop-control_1_2redlinestimulus9.png,TMT_Control,C2,37,None,1,0,1,1,1,0,11,11,11,,,,,,,,,,,,,,,,,,,,,,,,,,,,,,,,,2,0,19.679719099774957,46.69846189999953,None,"['1', '2']",1,"[0.09792440012097359, 0.12110569979995489]",46.69846189999953,None,,,,001,2022_Dec_12_1615,TMT_fmri,2021.2.3,60.52213660714845,
C2,26:52,13,['3'],3,Images/TMTstop-control_1_2linestimulus10.png,Images/TMTstop-control_1_2greenlinestimulus10.png,Images/TMTstop-control_1_2redlinestimulus10.png,TMT_Control,C2,38,None,1,0,1,1,1,0,12,12,12,,,,,,,,,,,,,,,,,,,,,,,,,,,,,,,,,1,1,19.762828500010073,46.899284299928695,None,['3'],1,[0.02954469993710518],46.899284299928695,None,,,,001,2022_Dec_12_1615,TMT_fmri,2021.2.3,60.52213660714845,
C2,26:52,14,['2'],2,Images/TMTstop-control_1_2linestimulus11.png,Images/TMTstop-control_1_2greenlinestimulus11.png,Images/TMTstop-control_1_2redlinestimulus11.png,TMT_Control,C2,39,None,1,0,1,1,1,0,13,13,13,,,,,,,,,,,,,,,,,,,,,,,,,,,,,,,,,2,0,20.012714799959213,46.982658700086176,None,"['1', '2']",1,"[0.09721000026911497, 0.1814373000524938]",46.982658700086176,None,,,,001,2022_Dec_12_1615,TMT_fmri,2021.2.3,60.52213660714845,
C2,26:52,15,['3'],3,Images/TMTstop-control_1_2linestimulus12.png,Images/TMTstop-control_1_2greenlinestimulus12.png,Images/TMTstop-control_1_2redlinestimulus12.png,TMT_Control,C2,40,None,1,0,1,1,1,0,14,14,14,,,,,,,,,,,,,,,,,,,,,,,,,,,,,,,,,1,1,20.08375529991463,47.23692139983177,None,['3'],1,[0.007037899922579527],47.23692139983177,None,,,,001,2022_Dec_12_1615,TMT_fmri,2021.2.3,60.52213660714845,
C2,26:52,16,['1'],1,Images/TMTstop-control_1_2linestimulus13.png,Images/TMTstop-control_1_2greenlinestimulus13.png,Images/TMTstop-control_1_2redlinestimulus13.png,TMT_Control,C2,41,None,1,0,1,1,1,0,15,15,15,,,,,,,,,,,,,,,,,,,,,,,,,,,,,,,,,1,1,20.241758899763227,47.30825689993799,None,['1'],1,[0.10048600006848574],47.30825689993799,None,,,,001,2022_Dec_12_1615,TMT_fmri,2021.2.3,60.52213660714845,
C2,26:52,17,['2'],2,Images/TMTstop-control_1_2linestimulus14.png,Images/TMTstop-control_1_2greenlinestimulus14.png,Images/TMTstop-control_1_2redlinestimulus14.png,TMT_Control,C2,42,None,1,0,1,1,1,0,16,16,16,,,,,,,,,,,,,,,,,,,,,,,,,,,,,,,,,1,1,20.309761099983007,47.47895039990544,None,['2'],1,[-0.008994499687105417],47.47895039990544,None,,,,001,2022_Dec_12_1615,TMT_fmri,2021.2.3,60.52213660714845,
C2,26:52,18,['1'],1,Images/TMTstop-control_1_2linestimulus15.png,Images/TMTstop-control_1_2greenlinestimulus15.png,Images/TMTstop-control_1_2redlinestimulus15.png,TMT_Control,C2,43,None,1,0,1,1,1,0,17,17,17,,,,,,,,,,,,,,,,,,,,,,,,,,,,,,,,,2,0,20.585765399970114,47.532354599796236,None,"['3', '1']",1,"[0.004675100091844797, 0.18491340009495616]",47.532354599796236,None,,,,001,2022_Dec_12_1615,TMT_fmri,2021.2.3,60.52213660714845,
C2,26:52,19,['2'],2,Images/TMTstop-control_1_2linestimulus16.png,Images/TMTstop-control_1_2greenlinestimulus16.png,Images/TMTstop-control_1_2redlinestimulus16.png,TMT_Control,C2,44,None,1,0,1,1,1,0,18,18,18,,,,,,,,,,,,,,,,,,,,,,,,,,,,,,,,,1,1,20.635757899843156,47.80512550007552,None,['2'],1,[-0.032771400175988674],47.80512550007552,None,,,,001,2022_Dec_12_1615,TMT_fmri,2021.2.3,60.52213660714845,
C2,26:52,20,['3'],3,Images/TMTstop-control_1_2linestimulus17.png,Images/TMTstop-control_1_2greenlinestimulus17.png,Images/TMTstop-control_1_2redlinestimulus17.png,TMT_Control,C2,45,None,1,0,1,1,1,0,19,19,19,,,,,,,,,,,,,,,,,,,,,,,,,,,,,,,,,1,1,20.68684470001608,47.85572919994593,None,['3'],1,[0.0012917001731693745],47.85572919994593,None,,,,001,2022_Dec_12_1615,TMT_fmri,2021.2.3,60.52213660714845,
C2,26:52,21,['1'],1,Images/TMTstop-control_1_2linestimulus18.png,Images/TMTstop-control_1_2greenlinestimulus18.png,Images/TMTstop-control_1_2redlinestimulus18.png,TMT_Control,C2,46,None,1,0,1,1,1,0,20,20,20,,,,,,,,,,,,,,,,,,,,,,,,,,,,,,,,,1,1,20.852815799880773,47.905258500017226,None,['1'],1,[0.11105050006881356],47.905258500017226,None,,,,001,2022_Dec_12_1615,TMT_fmri,2021.2.3,60.52213660714845,
C2,26:52,22,['3'],3,Images/TMTstop-control_1_2linestimulus19.png,Images/TMTstop-control_1_2greenlinestimulus19.png,Images/TMTstop-control_1_2redlinestimulus19.png,TMT_Control,C2,47,None,1,0,1,1,1,0,21,21,21,,,,,,,,,,,,,,,,,,,,,,,,,,,,,,,,,2,0,21.008796999696642,48.07153270021081,None,"['2', '3']",1,"[0.0009579001925885677, 0.09065480018034577]",48.07153270021081,None,,,,001,2022_Dec_12_1615,TMT_fmri,2021.2.3,60.52213660714845,
C2,26:52,23,['2'],2,Images/TMTstop-control_1_2linestimulus20.png,Images/TMTstop-control_1_2greenlinestimulus20.png,Images/TMTstop-control_1_2redlinestimulus20.png,TMT_Control,C2,48,None,1,0,1,1,1,0,22,22,22,,,,,,,,,,,,,,,,,,,,,,,,,,,,,,,,,2,0,21.199062999803573,48.234955300111324,None,"['1', '2']",1,"[0.08304869988933206, 0.13129949988797307]",48.234955300111324,None,,,,001,2022_Dec_12_1615,TMT_fmri,2021.2.3,60.52213660714845,
C2,26:52,24,['3'],3,Images/TMTstop-control_1_2linestimulus21.png,Images/TMTstop-control_1_2greenlinestimulus21.png,Images/TMTstop-control_1_2redlinestimulus21.png,TMT_Control,C2,49,None,1,0,1,1,1,0,23,23,23,,,,,,,,,,,,,,,,,,,,,,,,,,,,,,,,,1,1,21.287944899871945,48.42383489990607,None,['3'],1,[0.013084300328046083],48.42383489990607,None,,,,001,2022_Dec_12_1615,TMT_fmri,2021.2.3,60.52213660714845,
C2,26:52,25,['1'],1,Images/TMTstop-control_1_2linestimulus22.png,Images/TMTstop-control_1_2greenlinestimulus22.png,Images/TMTstop-control_1_2redlinestimulus22.png,TMT_Control,C2,50,None,1,0,1,1,1,0,24,24,24,,,,,,,,,,,,,,,,,,,,,,,,,,,,,,,,,1,1,21.420906299725175,48.506712100002915,None,['1'],1,[0.08493929961696267],48.506712100002915,None,,,,001,2022_Dec_12_1615,TMT_fmri,2021.2.3,60.52213660714845,
C2,26:52,None,None,None,Images/TMTstop-control_1_2linestimulus23.png,Images/TMTstop-control_1_2greenlinestimulus23.png,Images/TMTstop-control_1_2redlinestimulus23.png,TMT_Control,C2,Feedback_last,None,1,0,1,1,1,0,25,25,25,,,,,,,,,,,,,,,,,,,,,,,,,,,,,,,,,2,0,,48.64078290015459,None,"['2', '3']",0,"[0.000938700046390295, 0.0825423002243042]",48.64078290015459,None,,,,001,2022_Dec_12_1615,TMT_fmri,2021.2.3,60.52213660714845,
A1,208:234,1,['1'],1,Images/TMTstop-A_1_1.png,Images/TMTstop-A_1_1.png,Images/TMTstop-A_1_1.png,TMT_A,A1,1,1,2,,,,,,,,,0,0,0,0,0,0,0,0,,,,,,,,,,,,,,,,,,,,,,,,,1,1,58.57972100004554,84.43121339986101,None,['1'],1,[1.3178131002932787],84.43121339986101,None,,,,001,2022_Dec_12_1615,TMT_fmri,2021.2.3,60.52213660714845,
A1,208:234,2,['3'],3,Images/TMTstop-A_1_1.png,Images/TMTstop-A_1_1firstgreen.png,Images/TMTstop-A_1_1firstred.png,TMT_A,A1,2,None,2,,,,,,,,,0,0,0,0,0,1,1,1,,,,,,,,,,,,,,,,,,,,,,,,,2,0,58.8126750998199,85.8076681997627,None,"['2', '3']",1,"[0.06500190030783415, 0.1455703000538051]",85.8076681997627,None,,,,001,2022_Dec_12_1615,TMT_fmri,2021.2.3,60.52213660714845,
A1,208:234,3,['1'],1,Images/TMTstop-A_1_1linestimulus0.png,Images/TMTstop-A_1_1greenlinestimulus0.png,Images/TMTstop-A_1_1redlinestimulus0.png,TMT_A,A1,3,None,2,,,,,,,,,0,0,0,0,0,2,2,2,,,,,,,,,,,,,,,,,,,,,,,,,1,1,58.984688399825245,86.03810629993677,None,['1'],1,[0.10215419996529818],86.03810629993677,None,,,,001,2022_Dec_12_1615,TMT_fmri,2021.2.3,60.52213660714845,
A1,208:234,4,['3'],3,Images/TMTstop-A_1_1linestimulus1.png,Images/TMTstop-A_1_1greenlinestimulus1.png,Images/TMTstop-A_1_1redlinestimulus1.png,TMT_A,A1,4,None,2,,,,,,,,,0,0,0,0,0,3,3,3,,,,,,,,,,,,,,,,,,,,,,,,,2,0,59.11868439987302,86.20498859975487,None,"['2', '3']",1,"[0.01773800002411008, 0.05884800013154745]",86.20498859975487,None,,,,001,2022_Dec_12_1615,TMT_fmri,2021.2.3,60.52213660714845,
A1,208:234,5,['1'],1,Images/TMTstop-A_1_1linestimulus2.png,Images/TMTstop-A_1_1greenlinestimulus2.png,Images/TMTstop-A_1_1redlinestimulus2.png,TMT_A,A1,5,None,2,,,,,,,,,0,0,0,0,0,4,4,4,,,,,,,,,,,,,,,,,,,,,,,,,1,1,59.26872709998861,86.33827630011365,None,['1'],1,[0.09601299976930022],86.33827630011365,None,,,,001,2022_Dec_12_1615,TMT_fmri,2021.2.3,60.52213660714845,
A1,208:234,6,['3'],3,Images/TMTstop-A_1_1linestimulus3.png,Images/TMTstop-A_1_1greenlinestimulus3.png,Images/TMTstop-A_1_1redlinestimulus3.png,TMT_A,A1,6,None,2,,,,,,,,,0,0,0,0,0,5,5,5,,,,,,,,,,,,,,,,,,,,,,,,,2,0,59.38573049986735,86.5054413001053,None,"['2', '3']",1,"[-0.019627199973911047, 0.03325509978458285]",86.5054413001053,None,,,,001,2022_Dec_12_1615,TMT_fmri,2021.2.3,60.52213660714845,
A1,208:234,7,['1'],1,Images/TMTstop-A_1_1linestimulus4.png,Images/TMTstop-A_1_1greenlinestimulus4.png,Images/TMTstop-A_1_1redlinestimulus4.png,TMT_A,A1,7,None,2,,,,,,,,,0,0,0,0,0,6,6,6,,,,,,,,,,,,,,,,,,,,,,,,,1,1,59.552719899918884,86.60548930009827,None,['1'],1,[0.10548079991713166],86.60548930009827,None,,,,001,2022_Dec_12_1615,TMT_fmri,2021.2.3,60.52213660714845,
A1,208:234,8,['2'],2,Images/TMTstop-A_1_1linestimulus5.png,Images/TMTstop-A_1_1greenlinestimulus5.png,Images/TMTstop-A_1_1redlinestimulus5.png,TMT_A,A1,8,None,2,,,,,,,,,0,0,0,0,0,7,7,7,,,,,,,,,,,,,,,,,,,,,,,,,1,1,59.6097397999838,86.77958909980953,None,['2'],1,[-0.03980820020660758],86.77958909980953,None,,,,001,2022_Dec_12_1615,TMT_fmri,2021.2.3,60.52213660714845,
A1,208:234,9,['3'],3,Images/TMTstop-A_1_1linestimulus6.png,Images/TMTstop-A_1_1greenlinestimulus6.png,Images/TMTstop-A_1_1redlinestimulus6.png,TMT_A,A1,9,None,2,,,,,,,,,0,0,0,0,0,8,8,8,,,,,,,,,,,,,,,,,,,,,,,,,1,1,59.6617707000114,86.83124489989132,None,['3'],1,[-0.010398099664598703],86.83124489989132,None,,,,001,2022_Dec_12_1615,TMT_fmri,2021.2.3,60.52213660714845,
A1,208:234,10,['1'],1,Images/TMTstop-A_1_1linestimulus7.png,Images/TMTstop-A_1_1greenlinestimulus7.png,Images/TMTstop-A_1_1redlinestimulus7.png,TMT_A,A1,10,None,2,,,,,,,,,0,0,0,0,0,9,9,9,,,,,,,,,,,,,,,,,,,,,,,,,1,1,59.83288390003145,86.88567639980465,None,['1'],1,[0.10608740011230111],86.88567639980465,None,,,,001,2022_Dec_12_1615,TMT_fmri,2021.2.3,60.52213660714845,
A1,208:234,11,['3'],3,Images/TMTstop-A_1_1linestimulus8.png,Images/TMTstop-A_1_1greenlinestimulus8.png,Images/TMTstop-A_1_1redlinestimulus8.png,TMT_A,A1,11,None,2,,,,,,,,,0,0,0,0,0,10,10,10,,,,,,,,,,,,,,,,,,,,,,,,,2,0,59.988710599951446,87.05255750007927,None,"['2', '3']",1,"[-0.008358800318092108, 0.06979599967598915]",87.05255750007927,None,,,,001,2022_Dec_12_1615,TMT_fmri,2021.2.3,60.52213660714845,
A1,208:234,12,['2'],2,Images/TMTstop-A_1_1linestimulus9.png,Images/TMTstop-A_1_1greenlinestimulus9.png,Images/TMTstop-A_1_1redlinestimulus9.png,TMT_A,A1,12,None,2,,,,,,,,,0,0,0,0,0,11,11,11,,,,,,,,,,,,,,,,,,,,,,,,,2,0,60.17972079990432,87.21574439993128,None,"['1', '2']",1,"[0.07410089997574687, 0.1292917998507619]",87.21574439993128,None,,,,001,2022_Dec_12_1615,TMT_fmri,2021.2.3,60.52213660714845,
A1,208:234,13,['1'],1,Images/TMTstop-A_1_1linestimulus10.png,Images/TMTstop-A_1_1greenlinestimulus10.png,Images/TMTstop-A_1_1redlinestimulus10.png,TMT_A,A1,13,None,2,,,,,,,,,0,0,0,0,0,12,12,12,,,,,,,,,,,,,,,,,,,,,,,,,5,0,60.826756899710745,87.4050555001013,None,"['3', '1', '2', '3', '1']",1,"[0.03193760011345148, 0.2442517001181841, 0.28921590000391006, 0.40818879986181855, 0.5850554001517594]",87.4050555001013,None,,,,001,2022_Dec_12_1615,TMT_fmri,2021.2.3,60.52213660714845,
A1,208:234,14,['2'],2,Images/TMTstop-A_1_1linestimulus11.png,Images/TMTstop-A_1_1greenlinestimulus11.png,Images/TMTstop-A_1_1redlinestimulus11.png,TMT_A,A1,14,None,2,,,,,,,,,0,0,0,0,0,13,13,13,,,,,,,,,,,,,,,,,,,,,,,,,1,1,60.877699399832636,88.04686259990558,None,['2'],1,[-0.0016546999104321003],88.04686259990558,None,,,,001,2022_Dec_12_1615,TMT_fmri,2021.2.3,60.52213660714845,
A1,208:234,15,['1'],1,Images/TMTstop-A_1_1linestimulus12.png,Images/TMTstop-A_1_1greenlinestimulus12.png,Images/TMTstop-A_1_1redlinestimulus12.png,TMT_A,A1,15,None,2,,,,,,,,,0,0,0,0,0,14,14,14,,,,,,,,,,,,,,,,,,,,,,,,,2,0,61.15135049959645,88.0972214997746,None,"['3', '1']",1,"[0.06305209966376424, 0.21194079983979464]",88.0972214997746,None,,,,001,2022_Dec_12_1615,TMT_fmri,2021.2.3,60.52213660714845,
A1,208:234,16,['2'],2,Images/TMTstop-A_1_1linestimulus13.png,Images/TMTstop-A_1_1greenlinestimulus13.png,Images/TMTstop-A_1_1redlinestimulus13.png,TMT_A,A1,16,None,2,,,,,,,,,0,0,0,0,0,15,15,15,,,,,,,,,,,,,,,,,,,,,,,,,1,1,61.20127059984952,88.37095349980518,None,['2'],1,[-0.015896799974143505],88.37095349980518,None,,,,001,2022_Dec_12_1615,TMT_fmri,2021.2.3,60.52213660714845,
A1,208:234,17,['1'],1,Images/TMTstop-A_1_1linestimulus14.png,Images/TMTstop-A_1_1greenlinestimulus14.png,Images/TMTstop-A_1_1redlinestimulus14.png,TMT_A,A1,17,None,2,,,,,,,,,0,0,0,0,0,16,16,16,,,,,,,,,,,,,,,,,,,,,,,,,2,0,61.45235349982977,88.42062600003555,None,"['3', '1']",1,"[0.03146620001643896, 0.19421129999682307]",88.42062600003555,None,,,,001,2022_Dec_12_1615,TMT_fmri,2021.2.3,60.52213660714845,
A1,208:234,18,['3'],3,Images/TMTstop-A_1_1linestimulus15.png,Images/TMTstop-A_1_1greenlinestimulus15.png,Images/TMTstop-A_1_1redlinestimulus15.png,TMT_A,A1,18,None,2,,,,,,,,,0,0,0,0,0,17,17,17,,,,,,,,,,,,,,,,,,,,,,,,,2,0,61.62032049987465,88.68811930017546,None,"['2', '3']",1,"[-0.0178400999866426, 0.06828830018639565]",88.68811930017546,None,,,,001,2022_Dec_12_1615,TMT_fmri,2021.2.3,60.52213660714845,
A1,208:234,19,['2'],2,Images/TMTstop-A_1_1linestimulus16.png,Images/TMTstop-A_1_1greenlinestimulus16.png,Images/TMTstop-A_1_1redlinestimulus16.png,TMT_A,A1,19,None,2,,,,,,,,,0,0,0,0,0,18,18,18,,,,,,,,,,,,,,,,,,,,,,,,,3,0,62.07731489976868,88.84238839987665,None,"['1', '1', '2']",1,"[0.1681054998189211, 0.3407856998965144, 0.39259429974481463]",88.84238839987665,None,,,,001,2022_Dec_12_1615,TMT_fmri,2021.2.3,60.52213660714845,
A1,208:234,20,['3'],3,Images/TMTstop-A_1_1linestimulus17.png,Images/TMTstop-A_1_1greenlinestimulus17.png,Images/TMTstop-A_1_1redlinestimulus17.png,TMT_A,A1,20,None,2,,,,,,,,,0,0,0,0,0,19,19,19,,,,,,,,,,,,,,,,,,,,,,,,,1,1,62.17731780000031,89.29718910017982,None,['3'],1,[0.041002599988132715],89.29718910017982,None,,,,001,2022_Dec_12_1615,TMT_fmri,2021.2.3,60.52213660714845,
A1,208:234,21,['1'],1,Images/TMTstop-A_1_1linestimulus18.png,Images/TMTstop-A_1_1greenlinestimulus18.png,Images/TMTstop-A_1_1redlinestimulus18.png,TMT_A,A1,21,None,2,,,,,,,,,0,0,0,0,0,20,20,20,,,,,,,,,,,,,,,,,,,,,,,,,1,1,62.35237400000915,89.40452879993245,None,['1'],1,[0.1114415000192821],89.40452879993245,None,,,,001,2022_Dec_12_1615,TMT_fmri,2021.2.3,60.52213660714845,
A1,208:234,22,['3'],3,Images/TMTstop-A_1_1linestimulus19.png,Images/TMTstop-A_1_1greenlinestimulus19.png,Images/TMTstop-A_1_1redlinestimulus19.png,TMT_A,A1,22,None,2,,,,,,,,,0,0,0,0,0,21,21,21,,,,,,,,,,,,,,,,,,,,,,,,,2,0,62.47031939961016,89.57128959987313,None,"['2', '3']",1,"[-0.0109888999722898, 0.06659700023010373]",89.57128959987313,None,,,,001,2022_Dec_12_1615,TMT_fmri,2021.2.3,60.52213660714845,
A1,208:234,23,['1'],1,Images/TMTstop-A_1_1linestimulus20.png,Images/TMTstop-A_1_1greenlinestimulus20.png,Images/TMTstop-A_1_1redlinestimulus20.png,TMT_A,A1,23,None,2,,,,,,,,,0,0,0,0,0,22,22,22,,,,,,,,,,,,,,,,,,,,,,,,,1,1,62.65735979983583,89.69245859980583,None,['1'],1,[0.12091520009562373],89.69245859980583,None,,,,001,2022_Dec_12_1615,TMT_fmri,2021.2.3,60.52213660714845,
A1,208:234,24,['3'],3,Images/TMTstop-A_1_1linestimulus21.png,Images/TMTstop-A_1_1greenlinestimulus21.png,Images/TMTstop-A_1_1redlinestimulus21.png,TMT_A,A1,24,None,2,,,,,,,,,0,0,0,0,0,23,23,23,,,,,,,,,,,,,,,,,,,,,,,,,2,0,62.81129779992625,89.87555789994076,None,"['2', '3']",1,"[-0.023699200246483088, 0.061843699775636196]",89.87555789994076,None,,,,001,2022_Dec_12_1615,TMT_fmri,2021.2.3,60.52213660714845,
A1,208:234,25,['1'],1,Images/TMTstop-A_1_1linestimulus22.png,Images/TMTstop-A_1_1greenlinestimulus22.png,Images/TMTstop-A_1_1redlinestimulus22.png,TMT_A,A1,25,None,2,,,,,,,,,0,0,0,0,0,24,24,24,,,,,,,,,,,,,,,,,,,,,,,,,1,1,62.969349700026214,90.03838340006769,None,['1'],1,[0.08505180012434721],90.03838340006769,None,,,,001,2022_Dec_12_1615,TMT_fmri,2021.2.3,60.52213660714845,
A1,208:234,None,None,None,Images/TMTstop-A_1_1linestimulus23.png,Images/TMTstop-A_1_1greenlinestimulus23.png,Images/TMTstop-A_1_1redlinestimulus23.png,TMT_A,A1,Feedback_last,None,2,,,,,,,,,0,0,0,0,0,25,25,25,,,,,,,,,,,,,,,,,,,,,,,,,2,0,,90.18888689996675,None,"['2', '3']",0,"[-0.013721399940550327, 0.06636149995028973]",90.18888689996675,None,,,,001,2022_Dec_12_1615,TMT_fmri,2021.2.3,60.52213660714845,
A2,234:260,1,['1'],1,Images/TMTstop-A_1_2.png,Images/TMTstop-A_1_2.png,Images/TMTstop-A_1_2.png,TMT_A,A2,26,None,2,,,,,,,,,0,1,1,1,0,0,0,0,,,,,,,,,,,,,,,,,,,,,,,,,1,1,67.78854189999402,94.45771750016138,None,['1'],1,[0.5005235997959971],94.45771750016138,None,,,,001,2022_Dec_12_1615,TMT_fmri,2021.2.3,60.52213660714845,
A2,234:260,2,['3'],3,Images/TMTstop-A_1_2.png,Images/TMTstop-A_1_2firstgreen.png,Images/TMTstop-A_1_2firstred.png,TMT_A,A2,27,None,2,,,,,,,,,0,1,1,1,0,1,1,1,,,,,,,,,,,,,,,,,,,,,,,,,2,0,67.9965433999896,95.01779600000009,None,"['2', '3']",1,"[0.03741930006071925, 0.12366029992699623]",95.01779600000009,None,,,,001,2022_Dec_12_1615,TMT_fmri,2021.2.3,60.52213660714845,
A2,234:260,3,['1'],1,Images/TMTstop-A_1_2linestimulus0.png,Images/TMTstop-A_1_2greenlinestimulus0.png,Images/TMTstop-A_1_2redlinestimulus0.png,TMT_A,A2,28,None,2,,,,,,,,,0,1,1,1,0,2,2,2,,,,,,,,,,,,,,,,,,,,,,,,,1,1,68.17258789995685,95.22192629985511,None,['1'],1,[0.1073248996399343],95.22192629985511,None,,,,001,2022_Dec_12_1615,TMT_fmri,2021.2.3,60.52213660714845,
A2,234:260,4,['2'],2,Images/TMTstop-A_1_2linestimulus1.png,Images/TMTstop-A_1_2greenlinestimulus1.png,Images/TMTstop-A_1_2redlinestimulus1.png,TMT_A,A2,29,None,2,,,,,,,,,0,1,1,1,0,3,3,3,,,,,,,,,,,,,,,,,,,,,,,,,1,1,68.22256299993023,95.39232049975544,None,['2'],1,[-0.013886400032788515],95.39232049975544,None,,,,001,2022_Dec_12_1615,TMT_fmri,2021.2.3,60.52213660714845,
A2,234:260,5,['1'],1,Images/TMTstop-A_1_2linestimulus2.png,Images/TMTstop-A_1_2greenlinestimulus2.png,Images/TMTstop-A_1_2redlinestimulus2.png,TMT_A,A2,30,None,2,,,,,,,,,0,1,1,1,0,4,4,4,,,,,,,,,,,,,,,,,,,,,,,,,2,0,68.56054339976981,95.44592900015414,None,"['3', '1']",1,"[0.02441389998421073, 0.27996640000492334]",95.44592900015414,None,,,,001,2022_Dec_12_1615,TMT_fmri,2021.2.3,60.52213660714845,
A2,234:260,6,['3'],3,Images/TMTstop-A_1_2linestimulus3.png,Images/TMTstop-A_1_2greenlinestimulus3.png,Images/TMTstop-A_1_2redlinestimulus3.png,TMT_A,A2,31,None,2,,,,,,,,,0,1,1,1,0,5,5,5,,,,,,,,,,,,,,,,,,,,,,,,,2,0,68.71058940002695,95.77964580012485,None,"['2', '3']",1,"[-0.003582499921321869, 0.09106370015069842]",95.77964580012485,None,,,,001,2022_Dec_12_1615,TMT_fmri,2021.2.3,60.52213660714845,
A2,234:260,7,['2'],2,Images/TMTstop-A_1_2linestimulus4.png,Images/TMTstop-A_1_2greenlinestimulus4.png,Images/TMTstop-A_1_2redlinestimulus4.png,TMT_A,A2,32,None,2,,,,,,,,,0,1,1,1,0,6,6,6,,,,,,,,,,,,,,,,,,,,,,,,,2,0,68.93653269996867,95.94683140004054,None,"['1', '2']",1,"[0.0952131999656558, 0.13653380004689097]",95.94683140004054,None,,,,001,2022_Dec_12_1615,TMT_fmri,2021.2.3,60.52213660714845,
A2,234:260,8,['1'],1,Images/TMTstop-A_1_2linestimulus5.png,Images/TMTstop-A_1_2greenlinestimulus5.png,Images/TMTstop-A_1_2redlinestimulus5.png,TMT_A,A2,33,None,2,,,,,,,,,0,1,1,1,0,7,7,7,,,,,,,,,,,,,,,,,,,,,,,,,2,0,69.19357319967821,96.16277669975534,None,"['3', '1']",1,"[-0.01358029991388321, 0.1889285002835095]",96.16277669975534,None,,,,001,2022_Dec_12_1615,TMT_fmri,2021.2.3,60.52213660714845,
A2,234:260,9,['3'],3,Images/TMTstop-A_1_2linestimulus6.png,Images/TMTstop-A_1_2greenlinestimulus6.png,Images/TMTstop-A_1_2redlinestimulus6.png,TMT_A,A2,34,None,2,,,,,,,,,0,1,1,1,0,8,8,8,,,,,,,,,,,,,,,,,,,,,,,,,2,0,69.3455236996524,96.41302709979936,None,"['2', '3']",1,"[-0.024280699901282787, 0.0660737999714911]",96.41302709979936,None,,,,001,2022_Dec_12_1615,TMT_fmri,2021.2.3,60.52213660714845,
A2,234:260,10,['2'],2,Images/TMTstop-A_1_2linestimulus7.png,Images/TMTstop-A_1_2greenlinestimulus7.png,Images/TMTstop-A_1_2redlinestimulus7.png,TMT_A,A2,35,None,2,,,,,,,,,0,1,1,1,0,9,9,9,,,,,,,,,,,,,,,,,,,,,,,,,2,0,69.54654440004379,96.56596460007131,None,"['1', '2']",1,"[0.09404959995299578, 0.1432386999949813]",96.56596460007131,None,,,,001,2022_Dec_12_1615,TMT_fmri,2021.2.3,60.52213660714845,
A2,234:260,11,['1'],1,Images/TMTstop-A_1_2linestimulus8.png,Images/TMTstop-A_1_2greenlinestimulus8.png,Images/TMTstop-A_1_2redlinestimulus8.png,TMT_A,A2,36,None,2,,,,,,,,,0,1,1,1,0,10,10,10,,,,,,,,,,,,,,,,,,,,,,,,,5,0,70.13463300000876,96.77309820009395,None,"['3', '1', '2', '3', '1']",1,"[0.008589699864387512, 0.19244010001420975, 0.22109129978343844, 0.33106719981878996, 0.5034166998229921]",96.77309820009395,None,,,,001,2022_Dec_12_1615,TMT_fmri,2021.2.3,60.52213660714845,
A2,234:260,12,['2'],2,Images/TMTstop-A_1_2linestimulus9.png,Images/TMTstop-A_1_2greenlinestimulus9.png,Images/TMTstop-A_1_2redlinestimulus9.png,TMT_A,A2,37,None,2,,,,,,,,,0,1,1,1,0,11,11,11,,,,,,,,,,,,,,,,,,,,,,,,,1,1,70.18751169973984,97.35710449982435,None,['2'],1,[-0.02701690001413226],97.35710449982435,None,,,,001,2022_Dec_12_1615,TMT_fmri,2021.2.3,60.52213660714845,
A2,234:260,13,['1'],1,Images/TMTstop-A_1_2linestimulus10.png,Images/TMTstop-A_1_2greenlinestimulus10.png,Images/TMTstop-A_1_2redlinestimulus10.png,TMT_A,A2,38,None,2,,,,,,,,,0,1,1,1,0,12,12,12,,,,,,,,,,,,,,,,,,,,,,,,,2,0,70.42453669989482,97.40612810011953,None,"['3', '1']",1,"[0.007748600095510483, 0.18593649985268712]",97.40612810011953,None,,,,001,2022_Dec_12_1615,TMT_fmri,2021.2.3,60.52213660714845,
A2,234:260,14,['3'],3,Images/TMTstop-A_1_2linestimulus11.png,Images/TMTstop-A_1_2greenlinestimulus11.png,Images/TMTstop-A_1_2redlinestimulus11.png,TMT_A,A2,39,None,2,,,,,,,,,0,1,1,1,0,13,13,13,,,,,,,,,,,,,,,,,,,,,,,,,2,0,70.59954389976338,97.66167100006714,None,"['2', '3']",1,"[-0.02260940009728074, 0.06461119977757335]",97.66167100006714,None,,,,001,2022_Dec_12_1615,TMT_fmri,2021.2.3,60.52213660714845,
A2,234:260,15,['1'],1,Images/TMTstop-A_1_2linestimulus12.png,Images/TMTstop-A_1_2greenlinestimulus12.png,Images/TMTstop-A_1_2redlinestimulus12.png,TMT_A,A2,40,None,2,,,,,,,,,0,1,1,1,0,14,14,14,,,,,,,,,,,,,,,,,,,,,,,,,1,1,70.7359944996424,97.82222170010209,None,['1'],1,[0.07387210009619594],97.82222170010209,None,,,,001,2022_Dec_12_1615,TMT_fmri,2021.2.3,60.52213660714845,
A2,234:260,16,['3'],3,Images/TMTstop-A_1_2linestimulus13.png,Images/TMTstop-A_1_2greenlinestimulus13.png,Images/TMTstop-A_1_2redlinestimulus13.png,TMT_A,A2,41,None,2,,,,,,,,,0,1,1,1,0,15,15,15,,,,,,,,,,,,,,,,,,,,,,,,,2,0,70.90293189976364,97.97250089980662,None,"['2', '3']",1,"[-0.009497799910604954, 0.05478519992902875]",97.97250089980662,None,,,,001,2022_Dec_12_1615,TMT_fmri,2021.2.3,60.52213660714845,
A2,234:260,17,['1'],1,Images/TMTstop-A_1_2linestimulus14.png,Images/TMTstop-A_1_2greenlinestimulus14.png,Images/TMTstop-A_1_2redlinestimulus14.png,TMT_A,A2,42,None,2,,,,,,,,,0,1,1,1,0,16,16,16,,,,,,,,,,,,,,,,,,,,,,,,,1,1,71.07109049987048,98.12327509978786,None,['1'],1,[0.10577710019424558],98.12327509978786,None,,,,001,2022_Dec_12_1615,TMT_fmri,2021.2.3,60.52213660714845,
A2,234:260,18,['2'],2,Images/TMTstop-A_1_2linestimulus15.png,Images/TMTstop-A_1_2greenlinestimulus15.png,Images/TMTstop-A_1_2redlinestimulus15.png,TMT_A,A2,43,None,2,,,,,,,,,0,1,1,1,0,17,17,17,,,,,,,,,,,,,,,,,,,,,,,,,1,1,71.12111179996282,98.29011570010334,None,['2'],1,[-0.014764600433409214],98.29011570010334,None,,,,001,2022_Dec_12_1615,TMT_fmri,2021.2.3,60.52213660714845,
A2,234:260,19,['1'],1,Images/TMTstop-A_1_2linestimulus16.png,Images/TMTstop-A_1_2greenlinestimulus16.png,Images/TMTstop-A_1_2redlinestimulus16.png,TMT_A,A2,44,None,2,,,,,,,,,0,1,1,1,0,18,18,18,,,,,,,,,,,,,,,,,,,,,,,,,2,0,71.39408569969237,98.3567325999029,None,"['3', '1']",1,"[0.009544700384140015, 0.18795140041038394]",98.3567325999029,None,,,,001,2022_Dec_12_1615,TMT_fmri,2021.2.3,60.52213660714845,
A2,234:260,20,['2'],2,Images/TMTstop-A_1_2linestimulus17.png,Images/TMTstop-A_1_2greenlinestimulus17.png,Images/TMTstop-A_1_2redlinestimulus17.png,TMT_A,A2,45,None,2,,,,,,,,,0,1,1,1,0,19,19,19,,,,,,,,,,,,,,,,,,,,,,,,,1,1,71.44409139966592,98.61380839999765,None,['2'],1,[-0.008502900134772062],98.61380839999765,None,,,,001,2022_Dec_12_1615,TMT_fmri,2021.2.3,60.52213660714845,
A2,234:260,21,['3'],3,Images/TMTstop-A_1_2linestimulus18.png,Images/TMTstop-A_1_2greenlinestimulus18.png,Images/TMTstop-A_1_2redlinestimulus18.png,TMT_A,A2,46,None,2,,,,,,,,,0,1,1,1,0,20,20,20,,,,,,,,,,,,,,,,,,,,,,,,,1,1,71.53211519960314,98.66785900015384,None,['3'],1,[0.010427099652588367],98.66785900015384,None,,,,001,2022_Dec_12_1615,TMT_fmri,2021.2.3,60.52213660714845,
A2,234:260,22,['2'],2,Images/TMTstop-A_1_2linestimulus19.png,Images/TMTstop-A_1_2greenlinestimulus19.png,Images/TMTstop-A_1_2redlinestimulus19.png,TMT_A,A2,47,None,2,,,,,,,,,0,1,1,1,0,21,21,21,,,,,,,,,,,,,,,,,,,,,,,,,2,0,71.73207859974355,98.76801830017939,None,"['1', '2']",1,"[0.08113129995763302, 0.13010840024799109]",98.76801830017939,None,,,,001,2022_Dec_12_1615,TMT_fmri,2021.2.3,60.52213660714845,
A2,234:260,23,['3'],3,Images/TMTstop-A_1_2linestimulus20.png,Images/TMTstop-A_1_2greenlinestimulus20.png,Images/TMTstop-A_1_2redlinestimulus20.png,TMT_A,A2,48,None,2,,,,,,,,,0,1,1,1,0,22,22,22,,,,,,,,,,,,,,,,,,,,,,,,,1,1,71.83161429967731,98.95145499985665,None,['3'],1,[0.02737920032814145],98.95145499985665,None,,,,001,2022_Dec_12_1615,TMT_fmri,2021.2.3,60.52213660714845,
A2,234:260,24,['2'],2,Images/TMTstop-A_1_2linestimulus21.png,Images/TMTstop-A_1_2greenlinestimulus21.png,Images/TMTstop-A_1_2redlinestimulus21.png,TMT_A,A2,49,None,2,,,,,,,,,0,1,1,1,0,23,23,23,,,,,,,,,,,,,,,,,,,,,,,,,2,0,72.07356889965013,99.05065379990265,None,"['1', '2']",1,"[0.11937079997733235, 0.18072180030867457]",99.05065379990265,None,,,,001,2022_Dec_12_1615,TMT_fmri,2021.2.3,60.52213660714845,
A2,234:260,25,['3'],3,Images/TMTstop-A_1_2linestimulus22.png,Images/TMTstop-A_1_2greenlinestimulus22.png,Images/TMTstop-A_1_2redlinestimulus22.png,TMT_A,A2,50,None,2,,,,,,,,,0,1,1,1,0,24,24,24,,,,,,,,,,,,,,,,,,,,,,,,,1,1,72.1766025996767,99.30969179980457,None,['3'],1,[0.010613899677991867],99.30969179980457,None,,,,001,2022_Dec_12_1615,TMT_fmri,2021.2.3,60.52213660714845,
A2,234:260,None,None,None,Images/TMTstop-A_1_2linestimulus23.png,Images/TMTstop-A_1_2greenlinestimulus23.png,Images/TMTstop-A_1_2redlinestimulus23.png,TMT_A,A2,Feedback_last,None,2,,,,,,,,,0,1,1,1,0,25,25,25,,,,,,,,,,,,,,,,,,,,,,,,,3,0,,99.4002644000575,None,"['1', '2', '3']",0,"[0.37503760028630495, 0.5452281003817916, 0.6610003001987934]",99.4002644000575,None,,,,001,2022_Dec_12_1615,TMT_fmri,2021.2.3,60.52213660714845,
A3,260:286,1,['1'],1,Images/TMTstop-A_1_3.png,Images/TMTstop-A_1_3.png,Images/TMTstop-A_1_3.png,TMT_A,A3,51,None,2,,,,,,,,,0,2,2,2,0,0,0,0,,,,,,,,,,,,,,,,,,,,,,,,,1,1,77.19329419964924,103.69467760017142,None,['1'],1,[0.6567349000833929],103.69467760017142,None,,,,001,2022_Dec_12_1615,TMT_fmri,2021.2.3,60.52213660714845,
A3,260:286,2,['3'],3,Images/TMTstop-A_1_3.png,Images/TMTstop-A_1_3firstgreen.png,Images/TMTstop-A_1_3firstred.png,TMT_A,A3,52,None,2,,,,,,,,,0,2,2,2,0,1,1,1,,,,,,,,,,,,,,,,,,,,,,,,,2,0,77.35551909962669,104.42023660009727,None,"['2', '3']",1,"[-0.005087800323963165, 0.07680849963799119]",104.42023660009727,None,,,,001,2022_Dec_12_1615,TMT_fmri,2021.2.3,60.52213660714845,
A3,260:286,3,['2'],2,Images/TMTstop-A_1_3linestimulus0.png,Images/TMTstop-A_1_3greenlinestimulus0.png,Images/TMTstop-A_1_3redlinestimulus0.png,TMT_A,A3,53,None,2,,,,,,,,,0,2,2,2,0,2,2,2,,,,,,,,,,,,,,,,,,,,,,,,,2,0,77.56230999995023,104.58152970019728,None,"['1', '2']",1,"[0.08775929966941476, 0.1287773996591568]",104.58152970019728,None,,,,001,2022_Dec_12_1615,TMT_fmri,2021.2.3,60.52213660714845,
A3,260:286,4,['3'],3,Images/TMTstop-A_1_3linestimulus1.png,Images/TMTstop-A_1_3greenlinestimulus1.png,Images/TMTstop-A_1_3redlinestimulus1.png,TMT_A,A3,54,None,2,,,,,,,,,0,2,2,2,0,3,3,3,,,,,,,,,,,,,,,,,,,,,,,,,1,1,77.61226789979264,104.78178060008213,None,['3'],1,[0.001255400013178587],104.78178060008213,None,,,,001,2022_Dec_12_1615,TMT_fmri,2021.2.3,60.52213660714845,
A3,260:286,5,['2'],2,Images/TMTstop-A_1_3linestimulus2.png,Images/TMTstop-A_1_3greenlinestimulus2.png,Images/TMTstop-A_1_3redlinestimulus2.png,TMT_A,A3,55,None,2,,,,,,,,,0,2,2,2,0,4,4,4,,,,,,,,,,,,,,,,,,,,,,,,,2,0,77.8512474000454,104.83758240006864,None,"['1', '2']",1,"[0.12083159992471337, 0.16177299991250038]",104.83758240006864,None,,,,001,2022_Dec_12_1615,TMT_fmri,2021.2.3,60.52213660714845,
A3,260:286,6,['1'],1,Images/TMTstop-A_1_3linestimulus3.png,Images/TMTstop-A_1_3greenlinestimulus3.png,Images/TMTstop-A_1_3redlinestimulus3.png,TMT_A,A3,56,None,2,,,,,,,,,0,2,2,2,0,5,5,5,,,,,,,,,,,,,,,,,,,,,,,,,2,0,78.14027410000563,105.07102000014856,None,"['3', '1']",1,"[0.006921299733221531, 0.19194939965382218]",105.07102000014856,None,,,,001,2022_Dec_12_1615,TMT_fmri,2021.2.3,60.52213660714845,
A3,260:286,7,['3'],3,Images/TMTstop-A_1_3linestimulus4.png,Images/TMTstop-A_1_3greenlinestimulus4.png,Images/TMTstop-A_1_3redlinestimulus4.png,TMT_A,A3,57,None,2,,,,,,,,,0,2,2,2,0,6,6,6,,,,,,,,,,,,,,,,,,,,,,,,,2,0,78.2412518998608,105.36077680019662,None,"['2', '3']",1,"[-0.04640799993649125, 0.037792500108480453]",105.36077680019662,None,,,,001,2022_Dec_12_1615,TMT_fmri,2021.2.3,60.52213660714845,
A3,260:286,8,['1'],1,Images/TMTstop-A_1_3linestimulus5.png,Images/TMTstop-A_1_3greenlinestimulus5.png,Images/TMTstop-A_1_3redlinestimulus5.png,TMT_A,A3,58,None,2,,,,,,,,,0,2,2,2,0,7,7,7,,,,,,,,,,,,,,,,,,,,,,,,,1,1,78.40824319981039,105.46041199984029,None,['1'],1,[0.11221260018646717],105.46041199984029,None,,,,001,2022_Dec_12_1615,TMT_fmri,2021.2.3,60.52213660714845,
A3,260:286,9,['3'],3,Images/TMTstop-A_1_3linestimulus6.png,Images/TMTstop-A_1_3greenlinestimulus6.png,Images/TMTstop-A_1_3redlinestimulus6.png,TMT_A,A3,59,None,2,,,,,,,,,0,2,2,2,0,8,8,8,,,,,,,,,,,,,,,,,,,,,,,,,2,0,78.57025530003011,105.62796689989045,None,"['2', '3']",1,"[-0.0008677998557686806, 0.09325079992413521]",105.62796689989045,None,,,,001,2022_Dec_12_1615,TMT_fmri,2021.2.3,60.52213660714845,
A3,260:286,10,['2'],2,Images/TMTstop-A_1_3linestimulus7.png,Images/TMTstop-A_1_3greenlinestimulus7.png,Images/TMTstop-A_1_3redlinestimulus7.png,TMT_A,A3,60,None,2,,,,,,,,,0,2,2,2,0,9,9,9,,,,,,,,,,,,,,,,,,,,,,,,,2,0,78.81124569987878,105.78950389986858,None,"['1', '2']",1,"[0.12222279980778694, 0.18370770011097193]",105.78950389986858,None,,,,001,2022_Dec_12_1615,TMT_fmri,2021.2.3,60.52213660714845,
A3,260:286,11,['3'],3,Images/TMTstop-A_1_3linestimulus8.png,Images/TMTstop-A_1_3greenlinestimulus8.png,Images/TMTstop-A_1_3redlinestimulus8.png,TMT_A,A3,61,None,2,,,,,,,,,0,2,2,2,0,10,10,10,,,,,,,,,,,,,,,,,,,,,,,,,1,1,78.89527069963515,106.03047579992563,None,['3'],1,[0.01955190021544695],106.03047579992563,None,,,,001,2022_Dec_12_1615,TMT_fmri,2021.2.3,60.52213660714845,
A3,260:286,12,['2'],2,Images/TMTstop-A_1_3linestimulus9.png,Images/TMTstop-A_1_3greenlinestimulus9.png,Images/TMTstop-A_1_3redlinestimulus9.png,TMT_A,A3,62,None,2,,,,,,,,,0,2,2,2,0,11,11,11,,,,,,,,,,,,,,,,,,,,,,,,,2,0,79.15325379977003,106.11369509994984,None,"['1', '2']",1,"[0.13843580009415746, 0.16748449997976422]",106.11369509994984,None,,,,001,2022_Dec_12_1615,TMT_fmri,2021.2.3,60.52213660714845,
A3,260:286,13,['1'],1,Images/TMTstop-A_1_3linestimulus10.png,Images/TMTstop-A_1_3greenlinestimulus10.png,Images/TMTstop-A_1_3redlinestimulus10.png,TMT_A,A3,63,None,2,,,,,,,,,0,2,2,2,0,12,12,12,,,,,,,,,,,,,,,,,,,,,,,,,2,0,79.37724049994722,106.38894490012899,None,"['3', '1']",1,"[-0.031770000234246254, 0.15074849966913462]",106.38894490012899,None,,,,001,2022_Dec_12_1615,TMT_fmri,2021.2.3,60.52213660714845,
A3,260:286,14,['2'],2,Images/TMTstop-A_1_3linestimulus11.png,Images/TMTstop-A_1_3greenlinestimulus11.png,Images/TMTstop-A_1_3redlinestimulus11.png,TMT_A,A3,64,None,2,,,,,,,,,0,2,2,2,0,13,13,13,,,,,,,,,,,,,,,,,,,,,,,,,1,1,79.44321779999882,106.61284750001505,None,['2'],1,[-0.052047199569642544],106.61284750001505,None,,,,001,2022_Dec_12_1615,TMT_fmri,2021.2.3,60.52213660714845,
A3,260:286,15,['3'],3,Images/TMTstop-A_1_3linestimulus12.png,Images/TMTstop-A_1_3greenlinestimulus12.png,Images/TMTstop-A_1_3redlinestimulus12.png,TMT_A,A3,65,None,2,,,,,,,,,0,2,2,2,0,14,14,14,,,,,,,,,,,,,,,,,,,,,,,,,1,1,79.53126069996506,106.66687129996717,None,['3'],1,[0.00896980008110404],106.66687129996717,None,,,,001,2022_Dec_12_1615,TMT_fmri,2021.2.3,60.52213660714845,
A3,260:286,16,['2'],2,Images/TMTstop-A_1_3linestimulus13.png,Images/TMTstop-A_1_3greenlinestimulus13.png,Images/TMTstop-A_1_3redlinestimulus13.png,TMT_A,A3,66,None,2,,,,,,,,,0,2,2,2,0,15,15,15,,,,,,,,,,,,,,,,,,,,,,,,,2,0,79.77621849998832,106.76707819988951,None,"['1', '2']",1,"[0.066637699957937, 0.12998620001599193]",106.76707819988951,None,,,,001,2022_Dec_12_1615,TMT_fmri,2021.2.3,60.52213660714845,
A3,260:286,17,['3'],3,Images/TMTstop-A_1_3linestimulus14.png,Images/TMTstop-A_1_3greenlinestimulus14.png,Images/TMTstop-A_1_3redlinestimulus14.png,TMT_A,A3,67,None,2,,,,,,,,,0,2,2,2,0,16,16,16,,,,,,,,,,,,,,,,,,,,,,,,,1,1,79.84228159999475,107.01203999994323,None,['3'],1,[-0.02402730006724596],107.01203999994323,None,,,,001,2022_Dec_12_1615,TMT_fmri,2021.2.3,60.52213660714845,
A3,260:286,18,['2'],2,Images/TMTstop-A_1_3linestimulus15.png,Images/TMTstop-A_1_3greenlinestimulus15.png,Images/TMTstop-A_1_3redlinestimulus15.png,TMT_A,A3,68,None,2,,,,,,,,,0,2,2,2,0,17,17,17,,,,,,,,,,,,,,,,,,,,,,,,,2,0,80.0592192998156,107.06222230009735,None,"['1', '2']",1,"[0.11079810000956059, 0.15088220033794641]",107.06222230009735,None,,,,001,2022_Dec_12_1615,TMT_fmri,2021.2.3,60.52213660714845,
A3,260:286,19,['3'],3,Images/TMTstop-A_1_3linestimulus16.png,Images/TMTstop-A_1_3greenlinestimulus16.png,Images/TMTstop-A_1_3redlinestimulus16.png,TMT_A,A3,69,None,2,,,,,,,,,0,2,2,2,0,18,18,18,,,,,,,,,,,,,,,,,,,,,,,,,1,1,80.14726509992033,107.28364099981263,None,['3'],1,[0.02940629981458187],107.28364099981263,None,,,,001,2022_Dec_12_1615,TMT_fmri,2021.2.3,60.52213660714845,
A3,260:286,20,['1'],1,Images/TMTstop-A_1_3linestimulus17.png,Images/TMTstop-A_1_3greenlinestimulus17.png,Images/TMTstop-A_1_3redlinestimulus17.png,TMT_A,A3,70,None,2,,,,,,,,,0,2,2,2,0,19,19,19,,,,,,,,,,,,,,,,,,,,,,,,,1,1,80.33124749967828,107.36666340008378,None,['1'],1,[0.12006689980626106],107.36666340008378,None,,,,001,2022_Dec_12_1615,TMT_fmri,2021.2.3,60.52213660714845,
A3,260:286,21,['2'],2,Images/TMTstop-A_1_3linestimulus18.png,Images/TMTstop-A_1_3greenlinestimulus18.png,Images/TMTstop-A_1_3redlinestimulus18.png,TMT_A,A3,71,None,2,,,,,,,,,0,2,2,2,0,20,20,20,,,,,,,,,,,,,,,,,,,,,,,,,1,1,80.38922859961167,107.55857820017263,None,['2'],1,[-0.04695149976760149],107.55857820017263,None,,,,001,2022_Dec_12_1615,TMT_fmri,2021.2.3,60.52213660714845,
A3,260:286,22,['3'],3,Images/TMTstop-A_1_3linestimulus19.png,Images/TMTstop-A_1_3greenlinestimulus19.png,Images/TMTstop-A_1_3redlinestimulus19.png,TMT_A,A3,72,None,2,,,,,,,,,0,2,2,2,0,21,21,21,,,,,,,,,,,,,,,,,,,,,,,,,1,1,80.47224989999086,107.60857249982655,None,['3'],1,[0.03117450000718236],107.60857249982655,None,,,,001,2022_Dec_12_1615,TMT_fmri,2021.2.3,60.52213660714845,
A3,260:286,23,['2'],2,Images/TMTstop-A_1_3linestimulus20.png,Images/TMTstop-A_1_3greenlinestimulus20.png,Images/TMTstop-A_1_3redlinestimulus20.png,TMT_A,A3,73,None,2,,,,,,,,,0,2,2,2,0,22,22,22,,,,,,,,,,,,,,,,,,,,,,,,,2,0,80.71429869998246,107.69157479982823,None,"['1', '2']",1,"[0.13302520010620356, 0.1893601999618113]",107.69157479982823,None,,,,001,2022_Dec_12_1615,TMT_fmri,2021.2.3,60.52213660714845,
A3,260:286,24,['1'],1,Images/TMTstop-A_1_3linestimulus21.png,Images/TMTstop-A_1_3greenlinestimulus21.png,Images/TMTstop-A_1_3redlinestimulus21.png,TMT_A,A3,74,None,2,,,,,,,,,0,2,2,2,0,23,23,23,,,,,,,,,,,,,,,,,,,,,,,,,2,0,81.01974759995937,107.9499026001431,None,"['3', '1']",1,"[0.026384299620985985, 0.2099207998253405]",107.9499026001431,None,,,,001,2022_Dec_12_1615,TMT_fmri,2021.2.3,60.52213660714845,
A3,260:286,25,['2'],2,Images/TMTstop-A_1_3linestimulus22.png,Images/TMTstop-A_1_3greenlinestimulus22.png,Images/TMTstop-A_1_3redlinestimulus22.png,TMT_A,A3,75,None,2,,,,,,,,,0,2,2,2,0,24,24,24,,,,,,,,,,,,,,,,,,,,,,,,,1,1,81.07038719998673,108.23965900018811,None,['2'],1,[-0.020648600067943335],108.23965900018811,None,,,,001,2022_Dec_12_1615,TMT_fmri,2021.2.3,60.52213660714845,
A3,260:286,None,None,None,Images/TMTstop-A_1_3linestimulus23.png,Images/TMTstop-A_1_3greenlinestimulus23.png,Images/TMTstop-A_1_3redlinestimulus23.png,TMT_A,A3,Feedback_last,None,2,,,,,,,,,0,2,2,2,0,25,25,25,,,,,,,,,,,,,,,,,,,,,,,,,1,1,,108.29171760007739,None,['3'],0,[0.009517000056803226],108.29171760007739,None,,,,001,2022_Dec_12_1615,TMT_fmri,2021.2.3,60.52213660714845,
C3,52:78,1,['2'],2,Images/TMTstop-control_1_3.png,Images/TMTstop-control_1_3.png,Images/TMTstop-control_1_3.png,TMT_Control,C3,51,2,1,,,,,,,,,,,,,,,,,0,0,0,0,0,0,0,0,,,,,,,,,,,,,,,,,3,0,153.2868560999632,179.41487119998783,None,"['1', '3', '2']",1,"[0.8531002001836896, 1.0240321001037955, 1.0401294003240764]",179.41487119998783,None,,,,001,2022_Dec_12_1615,TMT_fmri,2021.2.3,60.52213660714845,
C3,52:78,2,['1'],1,Images/TMTstop-control_1_3.png,Images/TMTstop-control_1_3firstgreen.png,Images/TMTstop-control_1_3firstred.png,TMT_Control,C3,52,None,1,,,,,,,,,,,,,,,,,0,0,0,0,0,1,1,1,,,,,,,,,,,,,,,,,1,1,153.427857699804,180.513776099775,None,['1'],1,[0.06919930037111044],180.513776099775,None,,,,001,2022_Dec_12_1615,TMT_fmri,2021.2.3,60.52213660714845,
C3,52:78,3,['2'],2,Images/TMTstop-control_1_3linestimulus0.png,Images/TMTstop-control_1_3greenlinestimulus0.png,Images/TMTstop-control_1_3redlinestimulus0.png,TMT_Control,C3,53,None,1,,,,,,,,,,,,,,,,,0,0,0,0,0,2,2,2,,,,,,,,,,,,,,,,,2,0,153.61082889977843,180.6466565001756,None,"['3', '2']",1,"[0.07039729971438646, 0.1110573997721076]",180.6466565001756,None,,,,001,2022_Dec_12_1615,TMT_fmri,2021.2.3,60.52213660714845,
C3,52:78,4,['1'],1,Images/TMTstop-control_1_3linestimulus1.png,Images/TMTstop-control_1_3greenlinestimulus1.png,Images/TMTstop-control_1_3redlinestimulus1.png,TMT_Control,C3,54,None,1,,,,,,,,,,,,,,,,,0,0,0,0,0,3,3,3,,,,,,,,,,,,,,,,,1,1,153.7109115999192,180.82958579994738,None,['1'],1,[0.03587629972025752],180.82958579994738,None,,,,001,2022_Dec_12_1615,TMT_fmri,2021.2.3,60.52213660714845,
C3,52:78,5,['3'],3,Images/TMTstop-control_1_3linestimulus2.png,Images/TMTstop-control_1_3greenlinestimulus2.png,Images/TMTstop-control_1_3redlinestimulus2.png,TMT_Control,C3,55,None,1,,,,,,,,,,,,,,,,,0,0,0,0,0,4,4,4,,,,,,,,,,,,,,,,,1,1,153.84388979990035,180.9308278001845,None,['3'],1,[0.07971949968487024],180.9308278001845,None,,,,001,2022_Dec_12_1615,TMT_fmri,2021.2.3,60.52213660714845,
C3,52:78,6,['1'],1,Images/TMTstop-control_1_3linestimulus3.png,Images/TMTstop-control_1_3greenlinestimulus3.png,Images/TMTstop-control_1_3redlinestimulus3.png,TMT_Control,C3,56,None,1,,,,,,,,,,,,,,,,,0,0,0,0,0,5,5,5,,,,,,,,,,,,,,,,,2,0,154.00088849989697,181.06436569988728,None,"['2', '1']",1,"[-0.024478400126099586, 0.07967639993876219]",181.06436569988728,None,,,,001,2022_Dec_12_1615,TMT_fmri,2021.2.3,60.52213660714845,
C3,52:78,7,['2'],2,Images/TMTstop-control_1_3linestimulus4.png,Images/TMTstop-control_1_3greenlinestimulus4.png,Images/TMTstop-control_1_3redlinestimulus4.png,TMT_Control,C3,57,None,1,,,,,,,,,,,,,,,,,0,0,0,0,0,6,6,6,,,,,,,,,,,,,,,,,2,0,154.20086329989135,181.22014340013266,None,"['3', '2']",1,"[0.04658940015360713, 0.10449279984459281]",181.22014340013266,None,,,,001,2022_Dec_12_1615,TMT_fmri,2021.2.3,60.52213660714845,
C3,52:78,8,['3'],3,Images/TMTstop-control_1_3linestimulus4.png,Images/TMTstop-control_1_3greenlinestimulus5.png,Images/TMTstop-control_1_3redlinestimulus5.png,TMT_Control,C3,58,None,1,,,,,,,,,,,,,,,,,0,0,0,0,0,7,7,7,,,,,,,,,,,,,,,,,2,0,154.4238694999367,181.42037300020456,None,"['1', '3']",1,"[0.011670600157231092, 0.14445880008861423]",181.42037300020456,None,,,,001,2022_Dec_12_1615,TMT_fmri,2021.2.3,60.52213660714845,
C3,52:78,9,['1'],1,Images/TMTstop-control_1_3linestimulus6.png,Images/TMTstop-control_1_3greenlinestimulus6.png,Images/TMTstop-control_1_3redlinestimulus6.png,TMT_Control,C3,59,None,1,,,,,,,,,,,,,,,,,0,0,0,0,0,8,8,8,,,,,,,,,,,,,,,,,2,0,154.5738998996094,181.64331910014153,None,"['2', '1']",1,"[-0.047377100214362144, 0.07990980008617043]",181.64331910014153,None,,,,001,2022_Dec_12_1615,TMT_fmri,2021.2.3,60.52213660714845,
C3,52:78,10,['2'],2,Images/TMTstop-control_1_3linestimulus7.png,Images/TMTstop-control_1_3greenlinestimulus7.png,Images/TMTstop-control_1_3redlinestimulus7.png,TMT_Control,C3,60,None,1,,,,,,,,,,,,,,,,,0,0,0,0,0,9,9,9,,,,,,,,,,,,,,,,,2,0,154.8269491996616,181.80979500012472,None,"['3', '2']",1,"[0.17395339999347925, 0.18499930016696453]",181.80979500012472,None,,,,001,2022_Dec_12_1615,TMT_fmri,2021.2.3,60.52213660714845,
C3,52:78,11,['1'],1,Images/TMTstop-control_1_3linestimulus8.png,Images/TMTstop-control_1_3greenlinestimulus8.png,Images/TMTstop-control_1_3redlinestimulus8.png,TMT_Control,C3,61,None,1,,,,,,,,,,,,,,,,,0,0,0,0,0,10,10,10,,,,,,,,,,,,,,,,,1,1,154.99389439960942,182.0467170998454,None,['1'],1,[0.11141839995980263],182.0467170998454,None,,,,001,2022_Dec_12_1615,TMT_fmri,2021.2.3,60.52213660714845,
C3,52:78,12,['2'],2,Images/TMTstop-control_1_3linestimulus9.png,Images/TMTstop-control_1_3greenlinestimulus9.png,Images/TMTstop-control_1_3redlinestimulus9.png,TMT_Control,C3,62,None,1,,,,,,,,,,,,,,,,,0,0,0,0,0,11,11,11,,,,,,,,,,,,,,,,,2,0,155.24289629980922,182.221531199757,None,"['3', '2']",1,"[0.12286190036684275, 0.18859090004116297]",182.221531199757,None,,,,001,2022_Dec_12_1615,TMT_fmri,2021.2.3,60.52213660714845,
C3,52:78,13,['3'],3,Images/TMTstop-control_1_3linestimulus10.png,Images/TMTstop-control_1_3greenlinestimulus10.png,Images/TMTstop-control_1_3redlinestimulus10.png,TMT_Control,C3,63,None,1,,,,,,,,,,,,,,,,,0,0,0,0,0,12,12,12,,,,,,,,,,,,,,,,,2,0,155.52088759979233,182.46285759983584,None,"['1', '3']",1,"[0.062188899610191584, 0.2134459000080824]",182.46285759983584,None,,,,001,2022_Dec_12_1615,TMT_fmri,2021.2.3,60.52213660714845,
C3,52:78,14,['2'],2,Images/TMTstop-control_1_3linestimulus11.png,Images/TMTstop-control_1_3greenlinestimulus11.png,Images/TMTstop-control_1_3redlinestimulus11.png,TMT_Control,C3,64,None,1,,,,,,,,,,,,,,,,,0,0,0,0,0,13,13,13,,,,,,,,,,,,,,,,,1,1,155.57090819999576,182.73995300009847,None,['2'],1,[-0.028867200016975403],182.73995300009847,None,,,,001,2022_Dec_12_1615,TMT_fmri,2021.2.3,60.52213660714845,
C3,52:78,15,['1'],1,Images/TMTstop-control_1_3linestimulus12.png,Images/TMTstop-control_1_3greenlinestimulus12.png,Images/TMTstop-control_1_3redlinestimulus12.png,TMT_Control,C3,65,None,1,,,,,,,,,,,,,,,,,0,0,0,0,0,14,14,14,,,,,,,,,,,,,,,,,1,1,155.67090689996257,182.79047879995778,None,['1'],1,[0.03187950002029538],182.79047879995778,None,,,,001,2022_Dec_12_1615,TMT_fmri,2021.2.3,60.52213660714845,
C3,52:78,16,['3'],3,Images/TMTstop-control_1_3linestimulus13.png,Images/TMTstop-control_1_3greenlinestimulus13.png,Images/TMTstop-control_1_3redlinestimulus13.png,TMT_Control,C3,66,None,1,,,,,,,,,,,,,,,,,0,0,0,0,0,15,15,15,,,,,,,,,,,,,,,,,1,1,155.8048915998079,182.89052319992334,None,['3'],1,[0.07140060001984239],182.89052319992334,None,,,,001,2022_Dec_12_1615,TMT_fmri,2021.2.3,60.52213660714845,
C3,52:78,17,['1'],1,Images/TMTstop-control_1_3linestimulus14.png,Images/TMTstop-control_1_3greenlinestimulus14.png,Images/TMTstop-control_1_3redlinestimulus14.png,TMT_Control,C3,67,None,1,,,,,,,,,,,,,,,,,0,0,0,0,0,16,16,16,,,,,,,,,,,,,,,,,2,0,155.96491969982162,183.0235887998715,None,"['2', '1']",1,"[-0.028546299785375595, 0.08242540014907718]",183.0235887998715,None,,,,001,2022_Dec_12_1615,TMT_fmri,2021.2.3,60.52213660714845,
C3,52:78,18,['3'],3,Images/TMTstop-control_1_3linestimulus15.png,Images/TMTstop-control_1_3greenlinestimulus15.png,Images/TMTstop-control_1_3redlinestimulus15.png,TMT_Control,C3,68,None,1,,,,,,,,,,,,,,,,,0,0,0,0,0,17,17,17,,,,,,,,,,,,,,,,,1,1,156.09804349998012,183.1847211001441,None,['3'],1,[0.07945689978078008],183.1847211001441,None,,,,001,2022_Dec_12_1615,TMT_fmri,2021.2.3,60.52213660714845,
C3,52:78,19,['2'],2,Images/TMTstop-control_1_3linestimulus16.png,Images/TMTstop-control_1_3greenlinestimulus16.png,Images/TMTstop-control_1_3redlinestimulus16.png,TMT_Control,C3,69,None,1,,,,,,,,,,,,,,,,,0,0,0,0,0,18,18,18,,,,,,,,,,,,,,,,,1,1,156.14907169993967,183.3182564000599,None,['2'],1,[-0.031068299897015095],183.3182564000599,None,,,,001,2022_Dec_12_1615,TMT_fmri,2021.2.3,60.52213660714845,
C3,52:78,20,['1'],1,Images/TMTstop-control_1_3linestimulus17.png,Images/TMTstop-control_1_3greenlinestimulus17.png,Images/TMTstop-control_1_3redlinestimulus17.png,TMT_Control,C3,70,None,1,,,,,,,,,,,,,,,,,0,0,0,0,0,19,19,19,,,,,,,,,,,,,,,,,1,1,156.23622379964218,183.37238889979199,None,['1'],1,[0.015722500160336494],183.37238889979199,None,,,,001,2022_Dec_12_1615,TMT_fmri,2021.2.3,60.52213660714845,
C3,52:78,21,['3'],3,Images/TMTstop-control_1_3linestimulus18.png,Images/TMTstop-control_1_3greenlinestimulus18.png,Images/TMTstop-control_1_3redlinestimulus18.png,TMT_Control,C3,71,None,1,,,,,,,,,,,,,,,,,0,0,0,0,0,20,20,20,,,,,,,,,,,,,,,,,1,1,156.3696832996793,183.45583980018273,None,['3'],1,[0.0791962998919189],183.45583980018273,None,,,,001,2022_Dec_12_1615,TMT_fmri,2021.2.3,60.52213660714845,
C3,52:78,22,['2'],2,Images/TMTstop-control_1_3linestimulus19.png,Images/TMTstop-control_1_3greenlinestimulus19.png,Images/TMTstop-control_1_3redlinestimulus19.png,TMT_Control,C3,72,None,1,,,,,,,,,,,,,,,,,0,0,0,0,0,21,21,21,,,,,,,,,,,,,,,,,1,1,156.4196321000345,183.5890047000721,None,['2'],1,[-0.0247037997469306],183.5890047000721,None,,,,001,2022_Dec_12_1615,TMT_fmri,2021.2.3,60.52213660714845,
C3,52:78,23,['3'],3,Images/TMTstop-control_1_3linestimulus20.png,Images/TMTstop-control_1_3greenlinestimulus20.png,Images/TMTstop-control_1_3redlinestimulus20.png,TMT_Control,C3,73,None,1,,,,,,,,,,,,,,,,,0,0,0,0,0,22,22,22,,,,,,,,,,,,,,,,,2,0,156.658705199603,183.6443877001293,None,"['1', '3']",1,"[0.03504720004275441, 0.18158060032874346]",183.6443877001293,None,,,,001,2022_Dec_12_1615,TMT_fmri,2021.2.3,60.52213660714845,
C3,52:78,24,['1'],1,Images/TMTstop-control_1_3linestimulus21.png,Images/TMTstop-control_1_3greenlinestimulus21.png,Images/TMTstop-control_1_3redlinestimulus21.png,TMT_Control,C3,74,None,1,,,,,,,,,,,,,,,,,0,0,0,0,0,23,23,23,,,,,,,,,,,,,,,,,2,0,156.82860989961773,183.89468250004575,None,"['2', '1']",1,"[-0.047485100105404854, 0.07759719993919134]",183.89468250004575,None,,,,001,2022_Dec_12_1615,TMT_fmri,2021.2.3,60.52213660714845,
C3,52:78,25,['2'],2,Images/TMTstop-control_1_3linestimulus22.png,Images/TMTstop-control_1_3greenlinestimulus22.png,Images/TMTstop-control_1_3redlinestimulus22.png,TMT_Control,C3,75,None,1,,,,,,,,,,,,,,,,,0,0,0,0,0,24,24,24,,,,,,,,,,,,,,,,,2,0,157.0296380999498,184.04865230014548,None,"['3', '2']",1,"[0.09555830014869571, 0.11938469996675849]",184.04865230014548,None,,,,001,2022_Dec_12_1615,TMT_fmri,2021.2.3,60.52213660714845,
C3,52:78,None,None,None,Images/TMTstop-control_1_3linestimulus23.png,Images/TMTstop-control_1_3greenlinestimulus23.png,Images/TMTstop-control_1_3redlinestimulus23.png,TMT_Control,C3,Feedback_last,None,1,,,,,,,,,,,,,,,,,0,0,0,0,0,25,25,25,,,,,,,,,,,,,,,,,1,1,,184.25535159977153,None,['1'],0,[0.035895599983632565],184.25535159977153,None,,,,001,2022_Dec_12_1615,TMT_fmri,2021.2.3,60.52213660714845,
C4,78:104,1,['2'],2,Images/TMTstop-control_1_4.png,Images/TMTstop-control_1_4.png,Images/TMTstop-control_1_4.png,TMT_Control,C4,76,None,1,,,,,,,,,,,,,,,,,0,1,1,1,0,0,0,0,,,,,,,,,,,,,,,,,2,0,161.8094327999279,188.52469109976664,None,"['3', '2']",1,"[0.40856980020180345, 0.42958160024136305]",188.52469109976664,None,,,,001,2022_Dec_12_1615,TMT_fmri,2021.2.3,60.52213660714845,
C4,78:104,2,['1'],1,Images/TMTstop-control_1_4.png,Images/TMTstop-control_1_4firstgreen.png,Images/TMTstop-control_1_4firstred.png,TMT_Control,C4,77,None,1,,,,,,,,,,,,,,,,,0,1,1,1,0,1,1,1,,,,,,,,,,,,,,,,,1,1,161.90942679997534,189.0288292001933,None,['1'],1,[0.03595960000529885],189.0288292001933,None,,,,001,2022_Dec_12_1615,TMT_fmri,2021.2.3,60.52213660714845,
C4,78:104,3,['3'],3,Images/TMTstop-control_1_4linestimulus0.png,Images/TMTstop-control_1_4greenlinestimulus0.png,Images/TMTstop-control_1_4redlinestimulus0.png,TMT_Control,C4,78,None,1,,,,,,,,,,,,,,,,,0,1,1,1,0,2,2,2,,,,,,,,,,,,,,,,,1,1,162.07645509997383,189.12984040006995,None,['3'],1,[0.10841349977999926],189.12984040006995,None,,,,001,2022_Dec_12_1615,TMT_fmri,2021.2.3,60.52213660714845,
C4,78:104,4,['1'],1,Images/TMTstop-control_1_4linestimulus1.png,Images/TMTstop-control_1_4greenlinestimulus1.png,Images/TMTstop-control_1_4redlinestimulus1.png,TMT_Control,C4,79,None,1,,,,,,,,,,,,,,,,,0,1,1,1,0,3,3,3,,,,,,,,,,,,,,,,,2,0,162.24045050004497,189.30399610009044,None,"['2', '1']",1,"[-0.02262659976258874, 0.07229370018467307]",189.30399610009044,None,,,,001,2022_Dec_12_1615,TMT_fmri,2021.2.3,60.52213660714845,
C4,78:104,5,['3'],3,Images/TMTstop-control_1_4linestimulus2.png,Images/TMTstop-control_1_4greenlinestimulus2.png,Images/TMTstop-control_1_4redlinestimulus2.png,TMT_Control,C4,80,None,1,,,,,,,,,,,,,,,,,0,1,1,1,0,4,4,4,,,,,,,,,,,,,,,,,1,1,162.34747599996626,189.46666989987716,None,['3'],1,[0.04346289997920394],189.46666989987716,None,,,,001,2022_Dec_12_1615,TMT_fmri,2021.2.3,60.52213660714845,
C4,78:104,6,['1'],1,Images/TMTstop-control_1_4linestimulus3.png,Images/TMTstop-control_1_4greenlinestimulus3.png,Images/TMTstop-control_1_4redlinestimulus3.png,TMT_Control,C4,81,None,1,,,,,,,,,,,,,,,,,0,1,1,1,0,5,5,5,,,,,,,,,,,,,,,,,2,0,162.49742689961568,189.56684069987386,None,"['2', '1']",1,"[-0.02160949958488345, 0.09305830020457506]",189.56684069987386,None,,,,001,2022_Dec_12_1615,TMT_fmri,2021.2.3,60.52213660714845,
C4,78:104,7,['3'],3,Images/TMTstop-control_1_4linestimulus4.png,Images/TMTstop-control_1_4greenlinestimulus4.png,Images/TMTstop-control_1_4redlinestimulus4.png,TMT_Control,C4,82,None,1,,,,,,,,,,,,,,,,,0,1,1,1,0,6,6,6,,,,,,,,,,,,,,,,,1,1,162.64739790000021,189.71684260014445,None,['3'],1,[0.09006189974024892],189.71684260014445,None,,,,001,2022_Dec_12_1615,TMT_fmri,2021.2.3,60.52213660714845,
C4,78:104,8,['1'],1,Images/TMTstop-control_1_4linestimulus4.png,Images/TMTstop-control_1_4greenlinestimulus5.png,Images/TMTstop-control_1_4redlinestimulus5.png,TMT_Control,C4,83,None,1,,,,,,,,,,,,,,,,,0,1,1,1,0,7,7,7,,,,,,,,,,,,,,,,,2,0,162.80547909997404,189.86711210012436,None,"['2', '1']",1,"[-0.0017507998272776604, 0.08710050024092197]",189.86711210012436,None,,,,001,2022_Dec_12_1615,TMT_fmri,2021.2.3,60.52213660714845,
C4,78:104,9,['3'],3,Images/TMTstop-control_1_4linestimulus6.png,Images/TMTstop-control_1_4greenlinestimulus6.png,Images/TMTstop-control_1_4redlinestimulus6.png,TMT_Control,C4,84,None,1,,,,,,,,,,,,,,,,,0,1,1,1,0,8,8,8,,,,,,,,,,,,,,,,,1,1,162.92848849995062,190.03109969990328,None,['3'],1,[0.06687820004299283],190.03109969990328,None,,,,001,2022_Dec_12_1615,TMT_fmri,2021.2.3,60.52213660714845,
C4,78:104,10,['2'],2,Images/TMTstop-control_1_4linestimulus7.png,Images/TMTstop-control_1_4greenlinestimulus7.png,Images/TMTstop-control_1_4redlinestimulus7.png,TMT_Control,C4,85,None,1,,,,,,,,,,,,,,,,,0,1,1,1,0,9,9,9,,,,,,,,,,,,,,,,,1,1,162.99545239983127,190.16464010020718,None,['2'],1,[-0.022920299787074327],190.16464010020718,None,,,,001,2022_Dec_12_1615,TMT_fmri,2021.2.3,60.52213660714845,
C4,78:104,11,['1'],1,Images/TMTstop-control_1_4linestimulus8.png,Images/TMTstop-control_1_4greenlinestimulus8.png,Images/TMTstop-control_1_4redlinestimulus8.png,TMT_Control,C4,86,None,1,,,,,,,,,,,,,,,,,0,1,1,1,0,10,10,10,,,,,,,,,,,,,,,,,1,1,163.1024092999287,190.22185540013015,None,['1'],1,[0.023213499691337347],190.22185540013015,None,,,,001,2022_Dec_12_1615,TMT_fmri,2021.2.3,60.52213660714845,
C4,78:104,12,['3'],3,Images/TMTstop-control_1_4linestimulus9.png,Images/TMTstop-control_1_4greenlinestimulus9.png,Images/TMTstop-control_1_4redlinestimulus9.png,TMT_Control,C4,87,None,1,,,,,,,,,,,,,,,,,0,1,1,1,0,11,11,11,,,,,,,,,,,,,,,,,1,1,163.23643479961902,190.32158630015329,None,['3'],1,[0.08362709963694215],190.32158630015329,None,,,,001,2022_Dec_12_1615,TMT_fmri,2021.2.3,60.52213660714845,
C4,78:104,13,['2'],2,Images/TMTstop-control_1_4linestimulus10.png,Images/TMTstop-control_1_4greenlinestimulus10.png,Images/TMTstop-control_1_4redlinestimulus10.png,TMT_Control,C4,88,None,1,,,,,,,,,,,,,,,,,0,1,1,1,0,12,12,12,,,,,,,,,,,,,,,,,1,1,163.28743309993297,190.4567737998441,None,['2'],1,[-0.009756800252944231],190.4567737998441,None,,,,001,2022_Dec_12_1615,TMT_fmri,2021.2.3,60.52213660714845,
C4,78:104,14,['3'],3,Images/TMTstop-control_1_4linestimulus11.png,Images/TMTstop-control_1_4greenlinestimulus11.png,Images/TMTstop-control_1_4redlinestimulus11.png,TMT_Control,C4,89,None,1,,,,,,,,,,,,,,,,,0,1,1,1,0,13,13,13,,,,,,,,,,,,,,,,,5,0,163.82538439985365,190.51124060014263,None,"['1', '3', '2', '1', '3']",1,"[0.02933580009266734, 0.19370470009744167, 0.21065849997103214, 0.3216980001889169, 0.47951760003343225]",190.51124060014263,None,,,,001,2022_Dec_12_1615,TMT_fmri,2021.2.3,60.52213660714845,
C4,78:104,15,['2'],2,Images/TMTstop-control_1_4linestimulus12.png,Images/TMTstop-control_1_4greenlinestimulus12.png,Images/TMTstop-control_1_4redlinestimulus12.png,TMT_Control,C4,90,None,1,,,,,,,,,,,,,,,,,0,1,1,1,0,14,14,14,,,,,,,,,,,,,,,,,1,1,163.8753492999822,191.04509769985452,None,['2'],1,[-0.031214400194585323],191.04509769985452,None,,,,001,2022_Dec_12_1615,TMT_fmri,2021.2.3,60.52213660714845,
C4,78:104,16,['1'],1,Images/TMTstop-control_1_4linestimulus13.png,Images/TMTstop-control_1_4greenlinestimulus13.png,Images/TMTstop-control_1_4redlinestimulus13.png,TMT_Control,C4,91,None,1,,,,,,,,,,,,,,,,,0,1,1,1,0,15,15,15,,,,,,,,,,,,,,,,,1,1,163.96150969993323,191.09714219998568,None,['1'],1,[0.023742299992591143],191.09714219998568,None,,,,001,2022_Dec_12_1615,TMT_fmri,2021.2.3,60.52213660714845,
C4,78:104,17,['3'],3,Images/TMTstop-control_1_4linestimulus14.png,Images/TMTstop-control_1_4greenlinestimulus14.png,Images/TMTstop-control_1_4redlinestimulus14.png,TMT_Control,C4,92,None,1,,,,,,,,,,,,,,,,,0,1,1,1,0,16,16,16,,,,,,,,,,,,,,,,,1,1,164.14938709978014,191.18510610004887,None,['3'],1,[0.13129729963839054],191.18510610004887,None,,,,001,2022_Dec_12_1615,TMT_fmri,2021.2.3,60.52213660714845,
C4,78:104,18,['1'],1,Images/TMTstop-control_1_4linestimulus15.png,Images/TMTstop-control_1_4greenlinestimulus15.png,Images/TMTstop-control_1_4redlinestimulus15.png,TMT_Control,C4,93,None,1,,,,,,,,,,,,,,,,,0,1,1,1,0,17,17,17,,,,,,,,,,,,,,,,,2,0,164.30442849965766,191.36828809976578,None,"['2', '1']",1,"[-0.03966740006580949, 0.06783549999818206]",191.36828809976578,None,,,,001,2022_Dec_12_1615,TMT_fmri,2021.2.3,60.52213660714845,
C4,78:104,19,['2'],2,Images/TMTstop-control_1_4linestimulus16.png,Images/TMTstop-control_1_4greenlinestimulus16.png,Images/TMTstop-control_1_4redlinestimulus16.png,TMT_Control,C4,94,None,1,,,,,,,,,,,,,,,,,0,1,1,1,0,18,18,18,,,,,,,,,,,,,,,,,2,0,164.49440689990297,191.53111469978467,None,"['3', '2']",1,"[0.0759519999846816, 0.09288239991292357]",191.53111469978467,None,,,,001,2022_Dec_12_1615,TMT_fmri,2021.2.3,60.52213660714845,
C4,78:104,20,['1'],1,Images/TMTstop-control_1_4linestimulus17.png,Images/TMTstop-control_1_4greenlinestimulus17.png,Images/TMTstop-control_1_4redlinestimulus17.png,TMT_Control,C4,95,None,1,,,,,,,,,,,,,,,,,0,1,1,1,0,19,19,19,,,,,,,,,,,,,,,,,1,1,164.58243569964543,191.71797049976885,None,['1'],1,[0.011110200081020594],191.71797049976885,None,,,,001,2022_Dec_12_1615,TMT_fmri,2021.2.3,60.52213660714845,
C4,78:104,21,['2'],2,Images/TMTstop-control_1_4linestimulus18.png,Images/TMTstop-control_1_4greenlinestimulus18.png,Images/TMTstop-control_1_4redlinestimulus18.png,TMT_Control,C4,96,None,1,,,,,,,,,,,,,,,,,0,1,1,1,0,20,20,20,,,,,,,,,,,,,,,,,2,0,164.79835249995813,191.80177300004289,None,"['3', '2']",1,"[0.11013669986277819, 0.14183729980140924]",191.80177300004289,None,,,,001,2022_Dec_12_1615,TMT_fmri,2021.2.3,60.52213660714845,
C4,78:104,22,['1'],1,Images/TMTstop-control_1_4linestimulus19.png,Images/TMTstop-control_1_4greenlinestimulus19.png,Images/TMTstop-control_1_4redlinestimulus19.png,TMT_Control,C4,97,None,1,,,,,,,,,,,,,,,,,0,1,1,1,0,21,21,21,,,,,,,,,,,,,,,,,1,1,164.8994564996101,192.01872370019555,None,['1'],1,[0.03992070024833083],192.01872370019555,None,,,,001,2022_Dec_12_1615,TMT_fmri,2021.2.3,60.52213660714845,
C4,78:104,23,['2'],2,Images/TMTstop-control_1_4linestimulus20.png,Images/TMTstop-control_1_4greenlinestimulus20.png,Images/TMTstop-control_1_4redlinestimulus20.png,TMT_Control,C4,98,None,1,,,,,,,,,,,,,,,,,0,1,1,1,0,22,22,22,,,,,,,,,,,,,,,,,2,0,165.14238569978625,192.11946120020002,None,"['3', '2']",1,"[0.12062070006504655, 0.1536691002547741]",192.11946120020002,None,,,,001,2022_Dec_12_1615,TMT_fmri,2021.2.3,60.52213660714845,
C4,78:104,24,['1'],1,Images/TMTstop-control_1_4linestimulus21.png,Images/TMTstop-control_1_4greenlinestimulus21.png,Images/TMTstop-control_1_4redlinestimulus21.png,TMT_Control,C4,99,None,1,,,,,,,,,,,,,,,,,0,1,1,1,0,23,23,23,,,,,,,,,,,,,,,,,1,1,165.19243429973722,192.36137640010566,None,['1'],1,[-5.879998207092285e-05],192.36137640010566,None,,,,001,2022_Dec_12_1615,TMT_fmri,2021.2.3,60.52213660714845,
C4,78:104,25,['2'],2,Images/TMTstop-control_1_4linestimulus22.png,Images/TMTstop-control_1_4greenlinestimulus22.png,Images/TMTstop-control_1_4redlinestimulus22.png,TMT_Control,C4,100,None,1,,,,,,,,,,,,,,,,,0,1,1,1,0,24,24,24,,,,,,,,,,,,,,,,,2,0,165.4393678996712,192.41695600003004,None,"['3', '2']",1,"[0.1242087003774941, 0.15805580001324415]",192.41695600003004,None,,,,001,2022_Dec_12_1615,TMT_fmri,2021.2.3,60.52213660714845,
C4,78:104,None,None,None,Images/TMTstop-control_1_4linestimulus23.png,Images/TMTstop-control_1_4greenlinestimulus23.png,Images/TMTstop-control_1_4redlinestimulus23.png,TMT_Control,C4,Feedback_last,None,1,,,,,,,,,,,,,,,,,0,1,1,1,0,25,25,25,,,,,,,,,,,,,,,,,1,1,,192.6588325998746,None,['1'],0,[-0.005631399806588888],192.6588325998746,None,,,,001,2022_Dec_12_1615,TMT_fmri,2021.2.3,60.52213660714845,
B1,364:390,1,['3'],3,Images/TMTstop-B_1_1.png,Images/TMTstop-B_1_1.png,Images/TMTstop-B_1_1.png,TMT_B,B1,1,1,3,,,,,,,,,,,,,,,,,,,,,,,,,0,0,0,0,0,0,0,0,,,,,,,,,2,0,177.94186889985576,203.9605564000085,None,"['2', '3']",1,"[1.146827899850905, 1.1476904996670783]",203.9605564000085,None,196.74147620005533,None,,001,2022_Dec_12_1615,TMT_fmri,2021.2.3,60.52213660714845,
B1,364:390,A,['1'],1,Images/TMTstop-B_1_1.png,Images/TMTstop-B_1_1firstgreen.png,Images/TMTstop-B_1_1firstred.png,TMT_B,B1,2,None,3,,,,,,,,,,,,,,,,,,,,,,,,,0,0,0,0,0,1,1,1,,,,,,,,,1,1,178.10013559972867,205.16987349977717,None,['1'],1,[0.08847340010106564],205.16987349977717,None,,,,001,2022_Dec_12_1615,TMT_fmri,2021.2.3,60.52213660714845,
B1,364:390,2,['3'],3,Images/TMTstop-B_1_1linestimulus0.png,Images/TMTstop-B_1_1greenlinestimulus0.png,Images/TMTstop-B_1_1redlinestimulus0.png,TMT_B,B1,3,None,3,,,,,,,,,,,,,,,,,,,,,,,,,0,0,0,0,0,2,2,2,,,,,,,,,1,1,178.42488169996068,205.3278076997958,None,['3'],1,[0.26443890016525984],205.3278076997958,None,,,,001,2022_Dec_12_1615,TMT_fmri,2021.2.3,60.52213660714845,
B1,364:390,B,['2'],2,Images/TMTstop-B_1_1linestimulus1.png,Images/TMTstop-B_1_1greenlinestimulus1.png,Images/TMTstop-B_1_1redlinestimulus1.png,TMT_B,B1,4,None,3,,,,,,,,,,,,,,,,,,,,,,,,,0,0,0,0,0,3,3,3,,,,,,,,,1,1,178.48282379982993,205.65248819999397,None,['2'],1,[-0.05089149996638298],205.65248819999397,None,,,,001,2022_Dec_12_1615,TMT_fmri,2021.2.3,60.52213660714845,
B1,364:390,3,['1'],1,Images/TMTstop-B_1_1linestimulus2.png,Images/TMTstop-B_1_1greenlinestimulus2.png,Images/TMTstop-B_1_1redlinestimulus2.png,TMT_B,B1,5,None,3,,,,,,,,,,,,,,,,,,,,,,,,,0,0,0,0,0,4,4,4,,,,,,,,,1,1,178.5668583996594,205.7021448998712,None,['1'],1,[0.031033100094646215],205.7021448998712,None,,,,001,2022_Dec_12_1615,TMT_fmri,2021.2.3,60.52213660714845,
B1,364:390,C,['3'],3,Images/TMTstop-B_1_1linestimulus3.png,Images/TMTstop-B_1_1greenlinestimulus3.png,Images/TMTstop-B_1_1redlinestimulus3.png,TMT_B,B1,6,None,3,,,,,,,,,,,,,,,,,,,,,,,,,0,0,0,0,0,5,5,5,,,,,,,,,3,0,179.68186139967293,205.80227469978854,None,"['2', '1', '3']",1,"[0.7174665001221001, 0.8161855000071228, 1.0391866001300514]",205.80227469978854,None,,,,001,2022_Dec_12_1615,TMT_fmri,2021.2.3,60.52213660714845,
B1,364:390,4,['2'],2,Images/TMTstop-B_1_1linestimulus4.png,Images/TMTstop-B_1_1greenlinestimulus4.png,Images/TMTstop-B_1_1redlinestimulus4.png,TMT_B,B1,7,None,3,,,,,,,,,,,,,,,,,,,,,,,,,0,0,0,0,0,6,6,6,,,,,,,,,1,1,179.74885859992355,206.9180490002036,None,['2'],1,[-0.05745379999279976],206.9180490002036,None,,,,001,2022_Dec_12_1615,TMT_fmri,2021.2.3,60.52213660714845,
B1,364:390,D,['1'],1,Images/TMTstop-B_1_1linestimulus5.png,Images/TMTstop-B_1_1greenlinestimulus5.png,Images/TMTstop-B_1_1redlinestimulus5.png,TMT_B,B1,8,None,3,,,,,,,,,,,,,,,,,,,,,,,,,0,0,0,0,0,7,7,7,,,,,,,,,1,1,179.88387839961797,206.9695760998875,None,['1'],1,[0.06039759982377291],206.9695760998875,None,,,,001,2022_Dec_12_1615,TMT_fmri,2021.2.3,60.52213660714845,
B1,364:390,5,['3'],3,Images/TMTstop-B_1_1linestimulus6.png,Images/TMTstop-B_1_1greenlinestimulus6.png,Images/TMTstop-B_1_1redlinestimulus6.png,TMT_B,B1,9,None,3,,,,,,,,,,,,,,,,,,,,,,,,,0,0,0,0,0,8,8,8,,,,,,,,,1,1,180.13493439974263,207.12012779992074,None,['3'],1,[0.18485650001093745],207.12012779992074,None,,,,001,2022_Dec_12_1615,TMT_fmri,2021.2.3,60.52213660714845,
B1,364:390,E,['1'],1,Images/TMTstop-B_1_1linestimulus7.png,Images/TMTstop-B_1_1greenlinestimulus7.png,Images/TMTstop-B_1_1redlinestimulus7.png,TMT_B,B1,10,None,3,,,,,,,,,,,,,,,,,,,,,,,,,0,0,0,0,0,9,9,9,,,,,,,,,4,0,180.85789019986987,207.36181470006704,None,"['2', '3', '2', '1']",1,"[-0.04520789999514818, 0.5214894996024668, 0.5855494998395443, 0.6649157996289432]",207.36181470006704,None,,,,001,2022_Dec_12_1615,TMT_fmri,2021.2.3,60.52213660714845,
B1,364:390,6,['3'],3,Images/TMTstop-B_1_1linestimulus8.png,Images/TMTstop-B_1_1greenlinestimulus8.png,Images/TMTstop-B_1_1redlinestimulus8.png,TMT_B,B1,11,None,3,,,,,,,,,,,,,,,,,,,,,,,,,0,0,0,0,0,10,10,10,,,,,,,,,1,1,181.10947989998385,208.0778402001597,None,['3'],1,[0.1896120999008417],208.0778402001597,None,,,,001,2022_Dec_12_1615,TMT_fmri,2021.2.3,60.52213660714845,
B1,364:390,F,['1'],1,Images/TMTstop-B_1_1linestimulus9.png,Images/TMTstop-B_1_1greenlinestimulus9.png,Images/TMTstop-B_1_1redlinestimulus9.png,TMT_B,B1,12,None,3,,,,,,,,,,,,,,,,,,,,,,,,,0,0,0,0,0,11,11,11,,,,,,,,,2,0,181.27356049977243,208.33715969976038,None,"['2', '1']",1,"[-0.04886340023949742, 0.05196529999375343]",208.33715969976038,None,,,,001,2022_Dec_12_1615,TMT_fmri,2021.2.3,60.52213660714845,
B1,364:390,7,['3'],3,Images/TMTstop-B_1_1linestimulus10.png,Images/TMTstop-B_1_1greenlinestimulus10.png,Images/TMTstop-B_1_1redlinestimulus10.png,TMT_B,B1,13,None,3,,,,,,,,,,,,,,,,,,,,,,,,,0,0,0,0,0,12,12,12,,,,,,,,,1,1,181.4574743998237,208.51003269990906,None,['3'],1,[0.11319170007482171],208.51003269990906,None,,,,001,2022_Dec_12_1615,TMT_fmri,2021.2.3,60.52213660714845,
B1,364:390,G,['2'],2,Images/TMTstop-B_1_1linestimulus11.png,Images/TMTstop-B_1_1greenlinestimulus11.png,Images/TMTstop-B_1_1redlinestimulus11.png,TMT_B,B1,14,None,3,,,,,,,,,,,,,,,,,,,,,,,,,0,0,0,0,0,13,13,13,,,,,,,,,1,1,181.52449449989945,208.6935939998366,None,['2'],1,[-0.052019699942320585],208.6935939998366,None,,,,001,2022_Dec_12_1615,TMT_fmri,2021.2.3,60.52213660714845,
B1,364:390,8,['3'],3,Images/TMTstop-B_1_1linestimulus12.png,Images/TMTstop-B_1_1greenlinestimulus12.png,Images/TMTstop-B_1_1redlinestimulus12.png,TMT_B,B1,15,None,3,,,,,,,,,,,,,,,,,,,,,,,,,0,0,0,0,0,14,14,14,,,,,,,,,2,0,182.9845120999962,208.76575239980593,None,"['1', '3']",1,"[-0.010333300102502108, 1.3856119997799397]",208.76575239980593,None,,,,001,2022_Dec_12_1615,TMT_fmri,2021.2.3,60.52213660714845,
B1,364:390,H,['1'],1,Images/TMTstop-B_1_1linestimulus13.png,Images/TMTstop-B_1_1greenlinestimulus13.png,Images/TMTstop-B_1_1redlinestimulus13.png,TMT_B,B1,16,None,3,,,,,,,,,,,,,,,,,,,,,,,,,0,0,0,0,0,15,15,15,,,,,,,,,2,0,183.22045709984377,210.20615400001407,None,"['2', '1']",1,"[0.018202300183475018, 0.1431415998376906]",210.20615400001407,None,,,,001,2022_Dec_12_1615,TMT_fmri,2021.2.3,60.52213660714845,
B1,364:390,9,['3'],3,Images/TMTstop-B_1_1linestimulus14.png,Images/TMTstop-B_1_1greenlinestimulus14.png,Images/TMTstop-B_1_1redlinestimulus14.png,TMT_B,B1,17,None,3,,,,,,,,,,,,,,,,,,,,,,,,,0,0,0,0,0,16,16,16,,,,,,,,,12,0,185.8084711995907,210.43961729994044,None,"['3', '2', '1', '3', '2', '1', '3', '2', '1', '2', '1', '3']",1,"[0.1562512000091374, 0.1661332999356091, 0.2996910996735096, 0.5588468001224101, 0.5672519998624921, 0.7027054000645876, 0.961270899977535, 0.9790139999240637, 1.0981242000125349, 2.2375511000864208, 2.312789000105113, 2.5316745000891387]",210.43961729994044,None,,,,001,2022_Dec_12_1615,TMT_fmri,2021.2.3,60.52213660714845,
B1,364:390,I,['2'],2,Images/TMTstop-B_1_1linestimulus15.png,Images/TMTstop-B_1_1greenlinestimulus15.png,Images/TMTstop-B_1_1redlinestimulus15.png,TMT_B,B1,18,None,3,,,,,,,,,,,,,,,,,,,,,,,,,0,0,0,0,0,17,17,17,,,,,,,,,1,1,185.8584541999735,213.02829489996657,None,['2'],1,[-0.0010355999693274498],213.02829489996657,None,,,,001,2022_Dec_12_1615,TMT_fmri,2021.2.3,60.52213660714845,
B1,364:390,10,['3'],3,Images/TMTstop-B_1_1linestimulus16.png,Images/TMTstop-B_1_1greenlinestimulus16.png,Images/TMTstop-B_1_1redlinestimulus16.png,TMT_B,B1,19,None,3,,,,,,,,,,,,,,,,,,,,,,,,,0,0,0,0,0,18,18,18,,,,,,,,,8,0,186.98078399989754,213.08023629989475,None,"['1', '3', '2', '1', '3', '2', '1', '3']",1,"[0.06596520030871034, 0.30012800032272935, 0.32784439995884895, 0.44604350021108985, 0.6838213000446558, 0.7077949000522494, 0.8479758002795279, 1.0711644003167748]",213.08023629989475,None,,,,001,2022_Dec_12_1615,TMT_fmri,2021.2.3,60.52213660714845,
B1,364:390,J,['2'],2,Images/TMTstop-B_1_1linestimulus17.png,Images/TMTstop-B_1_1greenlinestimulus17.png,Images/TMTstop-B_1_1redlinestimulus17.png,TMT_B,B1,20,None,3,,,,,,,,,,,,,,,,,,,,,,,,,0,0,0,0,0,19,19,19,,,,,,,,,1,1,187.03176889987662,214.20161410002038,None,['2'],1,[-0.0124248000793159],214.20161410002038,None,,,,001,2022_Dec_12_1615,TMT_fmri,2021.2.3,60.52213660714845,
B1,364:390,11,['1'],1,Images/TMTstop-B_1_1linestimulus18.png,Images/TMTstop-B_1_1greenlinestimulus18.png,Images/TMTstop-B_1_1redlinestimulus18.png,TMT_B,B1,21,None,3,,,,,,,,,,,,,,,,,,,,,,,,,0,0,0,0,0,20,20,20,,,,,,,,,1,1,187.16783849988133,214.25336379976943,None,['1'],1,[0.07376280007883906],214.25336379976943,None,,,,001,2022_Dec_12_1615,TMT_fmri,2021.2.3,60.52213660714845,
B1,364:390,K,['2'],2,Images/TMTstop-B_1_1linestimulus19.png,Images/TMTstop-B_1_1greenlinestimulus19.png,Images/TMTstop-B_1_1redlinestimulus19.png,TMT_B,B1,22,None,3,,,,,,,,,,,,,,,,,,,,,,,,,0,0,0,0,0,21,21,21,,,,,,,,,2,0,187.4771928000264,214.40440509980544,None,"['3', '2']",1,"[0.17078939964994788, 0.19848100002855062]",214.40440509980544,None,,,,001,2022_Dec_12_1615,TMT_fmri,2021.2.3,60.52213660714845,
B1,364:390,12,['1'],1,Images/TMTstop-B_1_1linestimulus20.png,Images/TMTstop-B_1_1greenlinestimulus20.png,Images/TMTstop-B_1_1redlinestimulus20.png,TMT_B,B1,23,None,3,,,,,,,,,,,,,,,,,,,,,,,,,0,0,0,0,0,22,22,22,,,,,,,,,1,1,187.57879519974813,214.71244899975136,None,['1'],1,[0.01842830004170537],214.71244899975136,None,,,,001,2022_Dec_12_1615,TMT_fmri,2021.2.3,60.52213660714845,
B1,364:390,L,['2'],2,Images/TMTstop-B_1_1linestimulus21.png,Images/TMTstop-B_1_1greenlinestimulus21.png,Images/TMTstop-B_1_1redlinestimulus21.png,TMT_B,B1,24,None,3,,,,,,,,,,,,,,,,,,,,,,,,,0,0,0,0,0,23,23,23,,,,,,,,,2,0,187.8407560000196,214.80236339988187,None,"['3', '2']",1,"[0.1378982001915574, 0.16502120019868016]",214.80236339988187,None,,,,001,2022_Dec_12_1615,TMT_fmri,2021.2.3,60.52213660714845,
B1,364:390,13,['1'],1,Images/TMTstop-B_1_1linestimulus22.png,Images/TMTstop-B_1_1greenlinestimulus22.png,Images/TMTstop-B_1_1redlinestimulus22.png,TMT_B,B1,25,None,3,,,,,,,,,,,,,,,,,,,,,,,,,0,0,0,0,0,24,24,24,,,,,,,,,1,1,187.95778879988939,215.05974319996312,None,['1'],1,[0.05550310015678406],215.05974319996312,None,,,,001,2022_Dec_12_1615,TMT_fmri,2021.2.3,60.52213660714845,
B1,364:390,None,None,None,Images/TMTstop-B_1_1linestimulus23.png,Images/TMTstop-B_1_1greenlinestimulus23.png,Images/TMTstop-B_1_1redlinestimulus23.png,TMT_B,B1,Feedback_last,None,3,,,,,,,,,,,,,,,,,,,,,,,,,0,0,0,0,0,25,25,25,,,,,,,,,6,0,,215.19393109995872,None,"['3', '2', '1', '3', '2', '1']",0,"[0.11568000027909875, 0.1525389002636075, 0.28728350019082427, 0.5070813000202179, 0.5348876998759806, 0.6343694999814034]",215.19393109995872,None,,,,001,2022_Dec_12_1615,TMT_fmri,2021.2.3,60.52213660714845,
