NumberLetter,corrAns,Correct,StimFile,Correct_StimFile,False_StimFile,Version,Block,TrialNumber_session,n,Stim.started_mean,Stim.started_raw,Stim.started_std,Stim.stopped_raw,key_resp_2.corr_mean,key_resp_2.corr_raw,key_resp_2.corr_std,key_resp_2.keys_raw,key_resp_2.rt_raw,key_resp_2.started_mean,key_resp_2.started_raw,key_resp_2.started_std,key_resp_2.stopped_raw,order
1,['2'],2,TMTstop-control_1_1.png,TMTstop-control_1_1.png,TMTstop-control_1_1.png,TMT_Control,1,1,1.0,20.878097534179688,20.878097534179688,0.0,,1.0,1.0,0.0,1,2,2.0416011000052094,2.5516476999910083,20.878097534179688,20.878097534179688,0.0,,0.0
2,['1'],1,TMTstop-control_1_1.png,TMTstop-control_1_1firstgreen.png,TMTstop-control_1_1firstred.png,TMT_Control,1,2,1.0,23.544591903686523,23.544591903686523,0.0,,1.0,1.0,0.0,3,2,1,1.0634773000201676,1.400204700010363,1.4594116000225767,23.544591903686523,23.544591903686523,0.0,,1.0
3,['3'],3,TMTstop-control_1_1linestimulus0.png,TMTstop-control_1_1greenlinestimulus0.png,TMTstop-control_1_1redlinestimulus0.png,TMT_Control,1,3,1.0,25.10033416748047,25.10033416748047,0.0,,1.0,1.0,0.0,3,0.10028840001905337,25.10033416748047,25.10033416748047,0.0,,2.0
4,['1'],1,TMTstop-control_1_1linestimulus1.png,TMTstop-control_1_1greenlinestimulus1.png,TMTstop-control_1_1redlinestimulus1.png,TMT_Control,1,4,1.0,25.316524505615234,25.316524505615234,0.0,,1.0,1.0,0.0,2,1,-0.10245770000619814,0.03616749998764135,25.316524505615234,25.316524505615234,0.0,,3.0
5,['3'],3,TMTstop-control_1_1linestimulus2.png,TMTstop-control_1_1greenlinestimulus2.png,TMTstop-control_1_1redlinestimulus2.png,TMT_Control,1,5,1.0,25.455129623413086,25.455129623413086,0.0,,1.0,1.0,0.0,3,0.034570799994980916,25.455129623413086,25.455129623413086,0.0,,4.0
6,['1'],1,TMTstop-control_1_1linestimulus3.png,TMTstop-control_1_1greenlinestimulus3.png,TMTstop-control_1_1redlinestimulus3.png,TMT_Control,1,6,1.0,25.57936668395996,25.57936668395996,0.0,,1.0,1.0,0.0,2,1,-0.08189390000188723,0.07477479998487979,25.57936668395996,25.57936668395996,0.0,,5.0
7,['2'],2,TMTstop-control_1_1linestimulus4.png,TMTstop-control_1_1greenlinestimulus4.png,TMTstop-control_1_1redlinestimulus4.png,TMT_Control,1,7,1.0,25.762264251708984,25.762264251708984,0.0,,1.0,1.0,0.0,3,2,0.014461700018728152,0.029515400005038828,25.762264251708984,25.762264251708984,0.0,,6.0
8,['1'],1,TMTstop-control_1_1linestimulus4.png,TMTstop-control_1_1greenlinestimulus5.png,TMTstop-control_1_1redlinestimulus5.png,TMT_Control,1,8,1.0,25.914348602294922,25.914348602294922,0.0,,1.0,1.0,0.0,1,0.023415000003296882,25.914348602294922,25.914348602294922,0.0,,7.0
9,['3'],3,TMTstop-control_1_1linestimulus6.png,TMTstop-control_1_1greenlinestimulus6.png,TMTstop-control_1_1redlinestimulus6.png,TMT_Control,1,9,1.0,26.03897476196289,26.03897476196289,0.0,,1.0,1.0,0.0,2,3,2,1,3,0.04489160000230186,0.31686599997919984,0.32476399998995475,0.47554279997712,0.5991161999991164,26.03897476196289,26.03897476196289,0.0,,8.0
10,['2'],2,TMTstop-control_1_1linestimulus7.png,TMTstop-control_1_1greenlinestimulus7.png,TMTstop-control_1_1redlinestimulus7.png,TMT_Control,1,10,1.0,26.72690200805664,26.72690200805664,0.0,,1.0,1.0,0.0,2,-0.07016489998204634,26.72690200805664,26.72690200805664,0.0,,9.0
11,['1'],1,TMTstop-control_1_1linestimulus8.png,TMTstop-control_1_1greenlinestimulus8.png,TMTstop-control_1_1redlinestimulus8.png,TMT_Control,1,11,1.0,26.81551742553711,26.81551742553711,0.0,,1.0,1.0,0.0,1,-0.00986749998992309,26.81551742553711,26.81551742553711,0.0,,10.0
12,['2'],2,TMTstop-control_1_1linestimulus9.png,TMTstop-control_1_1greenlinestimulus9.png,TMTstop-control_1_1redlinestimulus9.png,TMT_Control,1,12,1.0,26.898977279663086,26.898977279663086,0.0,,1.0,1.0,0.0,3,2,0.09444970000186004,0.15262860001530498,26.898977279663086,26.898977279663086,0.0,,11.0
13,['3'],3,TMTstop-control_1_1linestimulus10.png,TMTstop-control_1_1greenlinestimulus10.png,TMTstop-control_1_1redlinestimulus10.png,TMT_Control,1,13,1.0,27.225248336791992,27.225248336791992,0.0,,1.0,1.0,0.0,1,3,-0.08565550000639632,0.04846429999452084,27.225248336791992,27.225248336791992,0.0,,12.0
14,['2'],2,TMTstop-control_1_1linestimulus11.png,TMTstop-control_1_1greenlinestimulus11.png,TMTstop-control_1_1redlinestimulus11.png,TMT_Control,1,14,1.0,27.36470603942871,27.36470603942871,0.0,,1.0,1.0,0.0,2,-0.0803246000141371,27.36470603942871,27.36470603942871,0.0,,13.0
15,['3'],3,TMTstop-control_1_1linestimulus12.png,TMTstop-control_1_1greenlinestimulus12.png,TMTstop-control_1_1redlinestimulus12.png,TMT_Control,1,15,1.0,27.447612762451172,27.447612762451172,0.0,,0.0,0.0,0.0,1,3,2,1,3,2,1,3,2,1,-0.01754050000454299,0.13415250001708046,0.14620069999364205,0.2997236000082921,0.41201830000500195,0.4329137000022456,0.6285360000038054,0.7526290999958292,0.7917255999927875,0.9210678999952506,27.447612762451172,27.447612762451172,0.0,,14.0
16,['2'],2,TMTstop-control_1_1linestimulus13.png,TMTstop-control_1_1greenlinestimulus13.png,TMTstop-control_1_1redlinestimulus13.png,TMT_Control,1,16,0.0,,,,'--',,,,'--','--',,,,'--',
17,['3'],3,TMTstop-control_1_1linestimulus14.png,TMTstop-control_1_1greenlinestimulus14.png,TMTstop-control_1_1redlinestimulus14.png,TMT_Control,1,17,0.0,,,,'--',,,,'--','--',,,,'--',
18,['2'],2,TMTstop-control_1_1linestimulus15.png,TMTstop-control_1_1greenlinestimulus15.png,TMTstop-control_1_1redlinestimulus15.png,TMT_Control,1,18,0.0,,,,'--',,,,'--','--',,,,'--',
19,['1'],1,TMTstop-control_1_1linestimulus16.png,TMTstop-control_1_1greenlinestimulus16.png,TMTstop-control_1_1redlinestimulus16.png,TMT_Control,1,19,0.0,,,,'--',,,,'--','--',,,,'--',
20,['3'],3,TMTstop-control_1_1linestimulus17.png,TMTstop-control_1_1greenlinestimulus17.png,TMTstop-control_1_1redlinestimulus17.png,TMT_Control,1,20,0.0,,,,'--',,,,'--','--',,,,'--',
21,['1'],1,TMTstop-control_1_1linestimulus18.png,TMTstop-control_1_1greenlinestimulus18.png,TMTstop-control_1_1redlinestimulus18.png,TMT_Control,1,21,0.0,,,,'--',,,,'--','--',,,,'--',
22,['2'],2,TMTstop-control_1_1linestimulus19.png,TMTstop-control_1_1greenlinestimulus19.png,TMTstop-control_1_1redlinestimulus19.png,TMT_Control,1,22,0.0,,,,'--',,,,'--','--',,,,'--',
23,['3'],3,TMTstop-control_1_1linestimulus20.png,TMTstop-control_1_1greenlinestimulus20.png,TMTstop-control_1_1redlinestimulus20.png,TMT_Control,1,23,0.0,,,,'--',,,,'--','--',,,,'--',
24,['2'],2,TMTstop-control_1_1linestimulus21.png,TMTstop-control_1_1greenlinestimulus21.png,TMTstop-control_1_1redlinestimulus21.png,TMT_Control,1,24,0.0,,,,'--',,,,'--','--',,,,'--',
25,['1'],1,TMTstop-control_1_1linestimulus22.png,TMTstop-control_1_1greenlinestimulus22.png,TMTstop-control_1_1redlinestimulus22.png,TMT_Control,1,25,0.0,,,,'--',,,,'--','--',,,,'--',
None,None,None,TMTstop-control_1_1linestimulus23.png,TMTstop-control_1_1greenlinestimulus23.png,TMTstop-control_1_1redlinestimulus23.png,TMT_Control,1,Feedback_last,0.0,,,,'--',,,,'--','--',,,,'--',

extraInfo
participant,
session,001
date,2022_Apr_29_1049
expName,TMT_fmri
psychopyVersion,2021.2.3
frameRate,142.94127397958752
