Block_paper,Condition_rows,NumberLetter,corrAns,Correct,StimFile,Correct_StimFile,False_StimFile,Version,Paper,TrialNumber_Version,Round,Block,Blocks_Control1.thisRepN,Blocks_Control1.thisTrialN,Blocks_Control1.thisN,Blocks_Control1.thisIndex,trials_Control1.thisRepN,trials_Control1.thisTrialN,trials_Control1.thisN,trials_Control1.thisIndex,Blocks_TMTA1.thisRepN,Blocks_TMTA1.thisTrialN,Blocks_TMTA1.thisN,Blocks_TMTA1.thisIndex,trials_TMTA1.thisRepN,trials_TMTA1.thisTrialN,trials_TMTA1.thisN,trials_TMTA1.thisIndex,Blocks_Control2.thisRepN,Blocks_Control2.thisTrialN,Blocks_Control2.thisN,Blocks_Control2.thisIndex,trials_Control2.thisRepN,trials_Control2.thisTrialN,trials_Control2.thisN,trials_Control2.thisIndex,Blocks_TMTB.thisRepN,Blocks_TMTB.thisTrialN,Blocks_TMTB.thisN,Blocks_TMTB.thisIndex,trials_TMTB.thisRepN,trials_TMTB.thisTrialN,trials_TMTB.thisN,trials_TMTB.thisIndex,Blocks_Control3.thisRepN,Blocks_Control3.thisTrialN,Blocks_Control3.thisN,Blocks_Control3.thisIndex,trials_Control3.thisRepN,trials_Control3.thisTrialN,trials_Control3.thisN,trials_Control3.thisIndex,Blocks_TMTA2.thisRepN,Blocks_TMTA2.thisTrialN,Blocks_TMTA2.thisN,Blocks_TMTA2.thisIndex,trials_TMTA2.thisRepN,trials_TMTA2.thisTrialN,trials_TMTA2.thisN,trials_TMTA2.thisIndex,Blocks_Control4.thisRepN,Blocks_Control4.thisTrialN,Blocks_Control4.thisN,Blocks_Control4.thisIndex,trials_Control4.thisRepN,trials_Control4.thisTrialN,trials_Control4.thisN,trials_Control4.thisIndex,Blocks_TMTB2.thisRepN,Blocks_TMTB2.thisTrialN,Blocks_TMTB2.thisN,Blocks_TMTB2.thisIndex,trials_TMTB2.thisRepN,trials_TMTB2.thisTrialN,trials_TMTB2.thisN,trials_TMTB2.thisIndex,key_resp_7.keys,key_resp_7.rt,key_resp_7.started,key_resp_7.stopped,polygon_2.started,polygon_2.stopped,Attempts,First_attempt,ResponseClock,Stim.started,Stim.stopped,key_resp_2.keys,key_resp_2.corr,key_resp_2.rt,key_resp_2.started,key_resp_2.stopped,Info2.started,Info2.stopped,text_2.started,text_2.stopped,participant,session,date,expName,psychopyVersion,frameRate,
,,,,,,,,,,,,,,,,,,,,,,,,,,,,,,,,,,,,,,,,,,,,,,,,,,,,,,,,,,,,,,,,,,,,,,,,,,,,,s,0.7266308999969624,10.276992700004485,None,,,,,,,,,,,,,,,,,,001,2022_Nov_17_2325,TMT_fmri,2021.2.3,59.96591537769307,
C1,0:26,1,['2'],2,TMTstop-control_1_1.png,TMTstop-control_1_1.png,TMTstop-control_1_1.png,TMT_Control,C1,1,1,1,0,0,0,0,0,0,0,0,,,,,,,,,,,,,,,,,,,,,,,,,,,,,,,,,,,,,,,,,,,,,,,,,,,,,,,,,,,,,10.276992700004485,None,2,0,5.005334000001312,27.84386860000086,None,"['3', '2']",1,"[1.5814709000114817, 1.6376281999982893]",27.84386860000086,None,,,,,,001,2022_Nov_17_2325,TMT_fmri,2021.2.3,59.96591537769307,
C1,0:26,2,['1'],1,TMTstop-control_1_1.png,TMTstop-control_1_1firstgreen.png,TMTstop-control_1_1firstred.png,TMT_Control,C1,2,None,1,0,0,0,0,0,1,1,1,,,,,,,,,,,,,,,,,,,,,,,,,,,,,,,,,,,,,,,,,,,,,,,,,,,,,,,,,,,,,,,1,1,5.121364699996775,29.56882420000329,None,['1'],1,[0.05813740000303369],29.56882420000329,None,,,,,,001,2022_Nov_17_2325,TMT_fmri,2021.2.3,59.96591537769307,
C1,0:26,3,['3'],3,TMTstop-control_1_1linestimulus0.png,TMTstop-control_1_1greenlinestimulus0.png,TMTstop-control_1_1redlinestimulus0.png,TMT_Control,C1,3,None,1,0,0,0,0,0,2,2,2,,,,,,,,,,,,,,,,,,,,,,,,,,,,,,,,,,,,,,,,,,,,,,,,,,,,,,,,,,,,,,,1,1,5.272436499988544,29.686169099994004,None,['3'],1,[0.08701849999488331],29.686169099994004,None,,,,,,001,2022_Nov_17_2325,TMT_fmri,2021.2.3,59.96591537769307,
C1,0:26,4,['1'],1,TMTstop-control_1_1linestimulus1.png,TMTstop-control_1_1greenlinestimulus1.png,TMTstop-control_1_1redlinestimulus1.png,TMT_Control,C1,4,None,1,0,0,0,0,0,3,3,3,,,,,,,,,,,,,,,,,,,,,,,,,,,,,,,,,,,,,,,,,,,,,,,,,,,,,,,,,,,,,,,2,0,5.435383499992895,29.843903100001626,None,"['2', '1']",1,"[-0.018538900010753423, 0.07133439999597613]",29.843903100001626,None,,,,,,001,2022_Nov_17_2325,TMT_fmri,2021.2.3,59.96591537769307,
C1,0:26,5,['3'],3,TMTstop-control_1_1linestimulus2.png,TMTstop-control_1_1greenlinestimulus2.png,TMTstop-control_1_1redlinestimulus2.png,TMT_Control,C1,5,None,1,0,0,0,0,0,4,4,4,,,,,,,,,,,,,,,,,,,,,,,,,,,,,,,,,,,,,,,,,,,,,,,,,,,,,,,,,,,,,,,1,1,5.5434204999910435,30.007582499994896,None,['3'],1,[0.03278080000018235],30.007582499994896,None,,,,,,001,2022_Nov_17_2325,TMT_fmri,2021.2.3,59.96591537769307,
C1,0:26,6,['1'],1,TMTstop-control_1_1linestimulus3.png,TMTstop-control_1_1greenlinestimulus3.png,TMTstop-control_1_1redlinestimulus3.png,TMT_Control,C1,6,None,1,0,0,0,0,0,5,5,5,,,,,,,,,,,,,,,,,,,,,,,,,,,,,,,,,,,,,,,,,,,,,,,,,,,,,,,,,,,,,,,0,0,,30.107669799996074,None,None,0,,30.107669799996074,None,,,,,,001,2022_Nov_17_2325,TMT_fmri,2021.2.3,59.96591537769307,
A1,208:234,1,['1'],1,TMTstop-A_1_1.png,TMTstop-A_1_1.png,TMTstop-A_1_1.png,TMT_A,A1,1,1,2,,,,,,,,,0,0,0,0,0,0,0,0,,,,,,,,,,,,,,,,,,,,,,,,,,,,,,,,,,,,,,,,,,,,,,,,,,,,,,,0,0,,78.24180117000797,None,None,0,,78.24180117000797,None,,,,,,001,2022_Nov_17_2325,TMT_fmri,2021.2.3,59.96591537769307,
A2,234:260,1,['1'],1,TMTstop-A_1_2.png,TMTstop-A_1_2.png,TMTstop-A_1_2.png,TMT_A,A2,26,None,2,,,,,,,,,0,1,1,1,0,0,0,0,,,,,,,,,,,,,,,,,,,,,,,,,,,,,,,,,,,,,,,,,,,,,,,,,,,,,,,0,0,,81.50903954000678,None,None,0,,81.50903954000678,None,,,,,,001,2022_Nov_17_2325,TMT_fmri,2021.2.3,59.96591537769307,
A3,260:286,1,['1'],1,TMTstop-A_1_3.png,TMTstop-A_1_3.png,TMTstop-A_1_3.png,TMT_A,A3,51,None,2,,,,,,,,,0,2,2,2,0,0,0,0,,,,,,,,,,,,,,,,,,,,,,,,,,,,,,,,,,,,,,,,,,,,,,,,,,,,,,,0,0,,84.72060217001273,None,None,0,,84.72060217001273,None,,,,,,001,2022_Nov_17_2325,TMT_fmri,2021.2.3,59.96591537769307,
C3,52:78,1,['2'],2,TMTstop-control_1_3.png,TMTstop-control_1_3.png,TMTstop-control_1_3.png,TMT_Control,C3,51,2,1,,,,,,,,,,,,,,,,,0,0,0,0,0,0,0,0,,,,,,,,,,,,,,,,,,,,,,,,,,,,,,,,,,,,,,,,,,,,,,,2,0,68.49285090000194,90.93309190000582,None,"['3', '2']",1,"[2.023336800004472, 2.046023699993384]",90.93309190000582,None,,,,,,001,2022_Nov_17_2325,TMT_fmri,2021.2.3,59.96591537769307,
C3,52:78,2,['1'],1,TMTstop-control_1_3.png,TMTstop-control_1_3firstgreen.png,TMTstop-control_1_3firstred.png,TMT_Control,C3,52,None,1,,,,,,,,,,,,,,,,,0,0,0,0,0,1,1,1,,,,,,,,,,,,,,,,,,,,,,,,,,,,,,,,,,,,,,,,,,,,,,,1,1,68.5930062999978,93.05664199999592,None,['1'],1,[0.046295899999677204],93.05664199999592,None,,,,,,001,2022_Nov_17_2325,TMT_fmri,2021.2.3,59.96591537769307,
C3,52:78,3,['2'],2,TMTstop-control_1_3linestimulus0.png,TMTstop-control_1_3greenlinestimulus0.png,TMTstop-control_1_3redlinestimulus0.png,TMT_Control,C3,53,None,1,,,,,,,,,,,,,,,,,0,0,0,0,0,2,2,2,,,,,,,,,,,,,,,,,,,,,,,,,,,,,,,,,,,,,,,,,,,,,,,2,0,68.78500489999715,93.1570664000028,None,"['3', '2']",1,"[0.08256830000027549, 0.12771539999812376]",93.1570664000028,None,,,,,,001,2022_Nov_17_2325,TMT_fmri,2021.2.3,59.96591537769307,
C3,52:78,4,['1'],1,TMTstop-control_1_3linestimulus1.png,TMTstop-control_1_3greenlinestimulus1.png,TMTstop-control_1_3redlinestimulus1.png,TMT_Control,C3,54,None,1,,,,,,,,,,,,,,,,,0,0,0,0,0,3,3,3,,,,,,,,,,,,,,,,,,,,,,,,,,,,,,,,,,,,,,,,,,,,,,,1,1,68.86789369999315,93.34845930000301,None,['1'],1,[0.027436799995484762],93.34845930000301,None,,,,,,001,2022_Nov_17_2325,TMT_fmri,2021.2.3,59.96591537769307,
C3,52:78,5,['3'],3,TMTstop-control_1_3linestimulus2.png,TMTstop-control_1_3greenlinestimulus2.png,TMTstop-control_1_3redlinestimulus2.png,TMT_Control,C3,55,None,1,,,,,,,,,,,,,,,,,0,0,0,0,0,4,4,4,,,,,,,,,,,,,,,,,,,,,,,,,,,,,,,,,,,,,,,,,,,,,,,1,1,68.98503060000075,93.43180520000169,None,['3'],1,[0.05570889999216888],93.43180520000169,None,,,,,,001,2022_Nov_17_2325,TMT_fmri,2021.2.3,59.96591537769307,
C3,52:78,6,['1'],1,TMTstop-control_1_3linestimulus3.png,TMTstop-control_1_3greenlinestimulus3.png,TMTstop-control_1_3redlinestimulus3.png,TMT_Control,C3,56,None,1,,,,,,,,,,,,,,,,,0,0,0,0,0,5,5,5,,,,,,,,,,,,,,,,,,,,,,,,,,,,,,,,,,,,,,,,,,,,,,,2,0,69.14771199999086,93.54893750000338,None,"['2', '1']",1,"[-0.016368099997635, 0.07292829999641981]",93.54893750000338,None,,,,,,001,2022_Nov_17_2325,TMT_fmri,2021.2.3,59.96591537769307,
C3,52:78,7,['2'],2,TMTstop-control_1_3linestimulus4.png,TMTstop-control_1_3greenlinestimulus4.png,TMTstop-control_1_3redlinestimulus4.png,TMT_Control,C3,57,None,1,,,,,,,,,,,,,,,,,0,0,0,0,0,6,6,6,,,,,,,,,,,,,,,,,,,,,,,,,,,,,,,,,,,,,,,,,,,,,,,2,0,69.29766569999629,93.71153919999779,None,"['3', '2']",1,"[0.021173700006329454, 0.06794399999489542]",93.71153919999779,None,,,,,,001,2022_Nov_17_2325,TMT_fmri,2021.2.3,59.96591537769307,
C3,52:78,8,['3'],3,TMTstop-control_1_3linestimulus4.png,TMTstop-control_1_3greenlinestimulus5.png,TMTstop-control_1_3redlinestimulus5.png,TMT_Control,C3,58,None,1,,,,,,,,,,,,,,,,,0,0,0,0,0,7,7,7,,,,,,,,,,,,,,,,,,,,,,,,,,,,,,,,,,,,,,,,,,,,,,,2,0,69.4975257999904,93.8615448000055,None,"['1', '3']",1,"[-0.0019283000001451, 0.12426450000202749]",93.8615448000055,None,,,,,,001,2022_Nov_17_2325,TMT_fmri,2021.2.3,59.96591537769307,
C3,52:78,9,['1'],1,TMTstop-control_1_3linestimulus6.png,TMTstop-control_1_3greenlinestimulus6.png,TMTstop-control_1_3redlinestimulus6.png,TMT_Control,C3,59,None,1,,,,,,,,,,,,,,,,,0,0,0,0,0,8,8,8,,,,,,,,,,,,,,,,,,,,,,,,,,,,,,,,,,,,,,,,,,,,,,,2,0,69.64766649999365,94.06205779999436,None,"['2', '1']",1,"[-0.011344300000928342, 0.05165510000369977]",94.06205779999436,None,,,,,,001,2022_Nov_17_2325,TMT_fmri,2021.2.3,59.96591537769307,
C3,52:78,10,['2'],2,TMTstop-control_1_3linestimulus7.png,TMTstop-control_1_3greenlinestimulus7.png,TMTstop-control_1_3redlinestimulus7.png,TMT_Control,C3,60,None,1,,,,,,,,,,,,,,,,,0,0,0,0,0,9,9,9,,,,,,,,,,,,,,,,,,,,,,,,,,,,,,,,,,,,,,,,,,,,,,,0,0,,94.21193459999631,None,None,0,,94.21193459999631,None,,,,,,001,2022_Nov_17_2325,TMT_fmri,2021.2.3,59.96591537769307,
C3,52:78,11,['1'],1,TMTstop-control_1_3linestimulus8.png,TMTstop-control_1_3greenlinestimulus8.png,TMTstop-control_1_3redlinestimulus8.png,TMT_Control,C3,61,None,1,,,,,,,,,,,,,,,,,0,0,0,0,0,10,10,10,,,,,,,,,,,,,,,,,,,,,,,,,,,,,,,,,,,,,,,,,,,,,,,0,0,,135.79328767000843,None,None,0,,135.79328767000843,None,,,,,,001,2022_Nov_17_2325,TMT_fmri,2021.2.3,59.96591537769307,
C3,52:78,12,['2'],2,TMTstop-control_1_3linestimulus9.png,TMTstop-control_1_3greenlinestimulus9.png,TMTstop-control_1_3redlinestimulus9.png,TMT_Control,C3,62,None,1,,,,,,,,,,,,,,,,,0,0,0,0,0,11,11,11,,,,,,,,,,,,,,,,,,,,,,,,,,,,,,,,,,,,,,,,,,,,,,,0,0,,135.80996596000912,None,None,0,,135.80996596000912,None,,,,,,001,2022_Nov_17_2325,TMT_fmri,2021.2.3,59.96591537769307,
C3,52:78,13,['3'],3,TMTstop-control_1_3linestimulus10.png,TMTstop-control_1_3greenlinestimulus10.png,TMTstop-control_1_3redlinestimulus10.png,TMT_Control,C3,63,None,1,,,,,,,,,,,,,,,,,0,0,0,0,0,12,12,12,,,,,,,,,,,,,,,,,,,,,,,,,,,,,,,,,,,,,,,,,,,,,,,0,0,,135.84332254001055,None,None,0,,135.84332254001055,None,,,,,,001,2022_Nov_17_2325,TMT_fmri,2021.2.3,59.96591537769307,
C3,52:78,14,['2'],2,TMTstop-control_1_3linestimulus11.png,TMTstop-control_1_3greenlinestimulus11.png,TMTstop-control_1_3redlinestimulus11.png,TMT_Control,C3,64,None,1,,,,,,,,,,,,,,,,,0,0,0,0,0,13,13,13,,,,,,,,,,,,,,,,,,,,,,,,,,,,,,,,,,,,,,,,,,,,,,,0,0,,135.87667912001197,None,None,0,,135.87667912001197,None,,,,,,001,2022_Nov_17_2325,TMT_fmri,2021.2.3,59.96591537769307,
C3,52:78,15,['1'],1,TMTstop-control_1_3linestimulus12.png,TMTstop-control_1_3greenlinestimulus12.png,TMTstop-control_1_3redlinestimulus12.png,TMT_Control,C3,65,None,1,,,,,,,,,,,,,,,,,0,0,0,0,0,14,14,14,,,,,,,,,,,,,,,,,,,,,,,,,,,,,,,,,,,,,,,,,,,,,,,0,0,,135.9100357000134,None,None,0,,135.9100357000134,None,,,,,,001,2022_Nov_17_2325,TMT_fmri,2021.2.3,59.96591537769307,
C3,52:78,16,['3'],3,TMTstop-control_1_3linestimulus13.png,TMTstop-control_1_3greenlinestimulus13.png,TMTstop-control_1_3redlinestimulus13.png,TMT_Control,C3,66,None,1,,,,,,,,,,,,,,,,,0,0,0,0,0,15,15,15,,,,,,,,,,,,,,,,,,,,,,,,,,,,,,,,,,,,,,,,,,,,,,,0,0,,135.9433922800148,None,None,0,,135.9433922800148,None,,,,,,001,2022_Nov_17_2325,TMT_fmri,2021.2.3,59.96591537769307,
C3,52:78,17,['1'],1,TMTstop-control_1_3linestimulus14.png,TMTstop-control_1_3greenlinestimulus14.png,TMTstop-control_1_3redlinestimulus14.png,TMT_Control,C3,67,None,1,,,,,,,,,,,,,,,,,0,0,0,0,0,16,16,16,,,,,,,,,,,,,,,,,,,,,,,,,,,,,,,,,,,,,,,,,,,,,,,0,0,,135.97674886001622,None,None,0,,135.97674886001622,None,,,,,,001,2022_Nov_17_2325,TMT_fmri,2021.2.3,59.96591537769307,
C3,52:78,18,['3'],3,TMTstop-control_1_3linestimulus15.png,TMTstop-control_1_3greenlinestimulus15.png,TMTstop-control_1_3redlinestimulus15.png,TMT_Control,C3,68,None,1,,,,,,,,,,,,,,,,,0,0,0,0,0,17,17,17,,,,,,,,,,,,,,,,,,,,,,,,,,,,,,,,,,,,,,,,,,,,,,,0,0,,136.01010544001764,None,None,0,,136.01010544001764,None,,,,,,001,2022_Nov_17_2325,TMT_fmri,2021.2.3,59.96591537769307,
C3,52:78,19,['2'],2,TMTstop-control_1_3linestimulus16.png,TMTstop-control_1_3greenlinestimulus16.png,TMTstop-control_1_3redlinestimulus16.png,TMT_Control,C3,69,None,1,,,,,,,,,,,,,,,,,0,0,0,0,0,18,18,18,,,,,,,,,,,,,,,,,,,,,,,,,,,,,,,,,,,,,,,,,,,,,,,0,0,,136.04346202001906,None,None,0,,136.04346202001906,None,,,,,,001,2022_Nov_17_2325,TMT_fmri,2021.2.3,59.96591537769307,
C3,52:78,20,['1'],1,TMTstop-control_1_3linestimulus17.png,TMTstop-control_1_3greenlinestimulus17.png,TMTstop-control_1_3redlinestimulus17.png,TMT_Control,C3,70,None,1,,,,,,,,,,,,,,,,,0,0,0,0,0,19,19,19,,,,,,,,,,,,,,,,,,,,,,,,,,,,,,,,,,,,,,,,,,,,,,,0,0,,136.0768186000205,None,None,0,,136.0768186000205,None,,,,,,001,2022_Nov_17_2325,TMT_fmri,2021.2.3,59.96591537769307,
C3,52:78,21,['3'],3,TMTstop-control_1_3linestimulus18.png,TMTstop-control_1_3greenlinestimulus18.png,TMTstop-control_1_3redlinestimulus18.png,TMT_Control,C3,71,None,1,,,,,,,,,,,,,,,,,0,0,0,0,0,20,20,20,,,,,,,,,,,,,,,,,,,,,,,,,,,,,,,,,,,,,,,,,,,,,,,0,0,,136.11017518002188,None,None,0,,136.11017518002188,None,,,,,,001,2022_Nov_17_2325,TMT_fmri,2021.2.3,59.96591537769307,
C3,52:78,22,['2'],2,TMTstop-control_1_3linestimulus19.png,TMTstop-control_1_3greenlinestimulus19.png,TMTstop-control_1_3redlinestimulus19.png,TMT_Control,C3,72,None,1,,,,,,,,,,,,,,,,,0,0,0,0,0,21,21,21,,,,,,,,,,,,,,,,,,,,,,,,,,,,,,,,,,,,,,,,,,,,,,,0,0,,136.1268534700226,None,None,0,,136.1268534700226,None,,,,,,001,2022_Nov_17_2325,TMT_fmri,2021.2.3,59.96591537769307,
C3,52:78,23,['3'],3,TMTstop-control_1_3linestimulus20.png,TMTstop-control_1_3greenlinestimulus20.png,TMTstop-control_1_3redlinestimulus20.png,TMT_Control,C3,73,None,1,,,,,,,,,,,,,,,,,0,0,0,0,0,22,22,22,,,,,,,,,,,,,,,,,,,,,,,,,,,,,,,,,,,,,,,,,,,,,,,0,0,,136.16021005002403,None,None,0,,136.16021005002403,None,,,,,,001,2022_Nov_17_2325,TMT_fmri,2021.2.3,59.96591537769307,
C3,52:78,24,['1'],1,TMTstop-control_1_3linestimulus21.png,TMTstop-control_1_3greenlinestimulus21.png,TMTstop-control_1_3redlinestimulus21.png,TMT_Control,C3,74,None,1,,,,,,,,,,,,,,,,,0,0,0,0,0,23,23,23,,,,,,,,,,,,,,,,,,,,,,,,,,,,,,,,,,,,,,,,,,,,,,,0,0,,136.19356663002543,None,None,0,,136.19356663002543,None,,,,,,001,2022_Nov_17_2325,TMT_fmri,2021.2.3,59.96591537769307,
C3,52:78,25,['2'],2,TMTstop-control_1_3linestimulus22.png,TMTstop-control_1_3greenlinestimulus22.png,TMTstop-control_1_3redlinestimulus22.png,TMT_Control,C3,75,None,1,,,,,,,,,,,,,,,,,0,0,0,0,0,24,24,24,,,,,,,,,,,,,,,,,,,,,,,,,,,,,,,,,,,,,,,,,,,,,,,0,0,,136.22692321002685,None,None,0,,136.22692321002685,None,,,,,,001,2022_Nov_17_2325,TMT_fmri,2021.2.3,59.96591537769307,
C3,52:78,None,None,None,TMTstop-control_1_3linestimulus23.png,TMTstop-control_1_3greenlinestimulus23.png,TMTstop-control_1_3redlinestimulus23.png,TMT_Control,C3,Feedback_last,None,1,,,,,,,,,,,,,,,,,0,0,0,0,0,25,25,25,,,,,,,,,,,,,,,,,,,,,,,,,,,,,,,,,,,,,,,,,,,,,,,0,0,,136.26027979002828,None,None,1,,136.26027979002828,None,,,,,,001,2022_Nov_17_2325,TMT_fmri,2021.2.3,59.96591537769307,
C4,78:104,1,['2'],2,TMTstop-control_1_4.png,TMTstop-control_1_4.png,TMTstop-control_1_4.png,TMT_Control,C4,76,None,1,,,,,,,,,,,,,,,,,0,1,1,1,0,0,0,0,,,,,,,,,,,,,,,,,,,,,,,,,,,,,,,,,,,,,,,,,,,,,,,0,0,,138.4883932500161,None,None,0,,138.4883932500161,None,,,,,,001,2022_Nov_17_2325,TMT_fmri,2021.2.3,59.96591537769307,
C4,78:104,2,['1'],1,TMTstop-control_1_4.png,TMTstop-control_1_4firstgreen.png,TMTstop-control_1_4firstred.png,TMT_Control,C4,77,None,1,,,,,,,,,,,,,,,,,0,1,1,1,0,1,1,1,,,,,,,,,,,,,,,,,,,,,,,,,,,,,,,,,,,,,,,,,,,,,,,0,0,,138.52174983001748,None,None,0,,138.52174983001748,None,,,,,,001,2022_Nov_17_2325,TMT_fmri,2021.2.3,59.96591537769307,
C4,78:104,3,['3'],3,TMTstop-control_1_4linestimulus0.png,TMTstop-control_1_4greenlinestimulus0.png,TMTstop-control_1_4redlinestimulus0.png,TMT_Control,C4,78,None,1,,,,,,,,,,,,,,,,,0,1,1,1,0,2,2,2,,,,,,,,,,,,,,,,,,,,,,,,,,,,,,,,,,,,,,,,,,,,,,,0,0,,138.57178470001963,None,None,0,,138.57178470001963,None,,,,,,001,2022_Nov_17_2325,TMT_fmri,2021.2.3,59.96591537769307,
C4,78:104,4,['1'],1,TMTstop-control_1_4linestimulus1.png,TMTstop-control_1_4greenlinestimulus1.png,TMTstop-control_1_4redlinestimulus1.png,TMT_Control,C4,79,None,1,,,,,,,,,,,,,,,,,0,1,1,1,0,3,3,3,,,,,,,,,,,,,,,,,,,,,,,,,,,,,,,,,,,,,,,,,,,,,,,0,0,,138.60514128002103,None,None,0,,138.60514128002103,None,,,,,,001,2022_Nov_17_2325,TMT_fmri,2021.2.3,59.96591537769307,
C4,78:104,5,['3'],3,TMTstop-control_1_4linestimulus2.png,TMTstop-control_1_4greenlinestimulus2.png,TMTstop-control_1_4redlinestimulus2.png,TMT_Control,C4,80,None,1,,,,,,,,,,,,,,,,,0,1,1,1,0,4,4,4,,,,,,,,,,,,,,,,,,,,,,,,,,,,,,,,,,,,,,,,,,,,,,,0,0,,138.63849786002245,None,None,0,,138.63849786002245,None,,,,,,001,2022_Nov_17_2325,TMT_fmri,2021.2.3,59.96591537769307,
C4,78:104,6,['1'],1,TMTstop-control_1_4linestimulus3.png,TMTstop-control_1_4greenlinestimulus3.png,TMTstop-control_1_4redlinestimulus3.png,TMT_Control,C4,81,None,1,,,,,,,,,,,,,,,,,0,1,1,1,0,5,5,5,,,,,,,,,,,,,,,,,,,,,,,,,,,,,,,,,,,,,,,,,,,,,,,0,0,,138.68853273002458,None,None,0,,138.68853273002458,None,,,,,,001,2022_Nov_17_2325,TMT_fmri,2021.2.3,59.96591537769307,
C4,78:104,7,['3'],3,TMTstop-control_1_4linestimulus4.png,TMTstop-control_1_4greenlinestimulus4.png,TMTstop-control_1_4redlinestimulus4.png,TMT_Control,C4,82,None,1,,,,,,,,,,,,,,,,,0,1,1,1,0,6,6,6,,,,,,,,,,,,,,,,,,,,,,,,,,,,,,,,,,,,,,,,,,,,,,,0,0,,138.721889310026,None,None,0,,138.721889310026,None,,,,,,001,2022_Nov_17_2325,TMT_fmri,2021.2.3,59.96591537769307,
C4,78:104,8,['1'],1,TMTstop-control_1_4linestimulus4.png,TMTstop-control_1_4greenlinestimulus5.png,TMTstop-control_1_4redlinestimulus5.png,TMT_Control,C4,83,None,1,,,,,,,,,,,,,,,,,0,1,1,1,0,7,7,7,,,,,,,,,,,,,,,,,,,,,,,,,,,,,,,,,,,,,,,,,,,,,,,0,0,,138.75524589002742,None,None,0,,138.75524589002742,None,,,,,,001,2022_Nov_17_2325,TMT_fmri,2021.2.3,59.96591537769307,
C4,78:104,9,['3'],3,TMTstop-control_1_4linestimulus6.png,TMTstop-control_1_4greenlinestimulus6.png,TMTstop-control_1_4redlinestimulus6.png,TMT_Control,C4,84,None,1,,,,,,,,,,,,,,,,,0,1,1,1,0,8,8,8,,,,,,,,,,,,,,,,,,,,,,,,,,,,,,,,,,,,,,,,,,,,,,,0,0,,138.80528076002955,None,None,0,,138.80528076002955,None,,,,,,001,2022_Nov_17_2325,TMT_fmri,2021.2.3,59.96591537769307,
C4,78:104,10,['2'],2,TMTstop-control_1_4linestimulus7.png,TMTstop-control_1_4greenlinestimulus7.png,TMTstop-control_1_4redlinestimulus7.png,TMT_Control,C4,85,None,1,,,,,,,,,,,,,,,,,0,1,1,1,0,9,9,9,,,,,,,,,,,,,,,,,,,,,,,,,,,,,,,,,,,,,,,,,,,,,,,0,0,,138.83863734003097,None,None,0,,138.83863734003097,None,,,,,,001,2022_Nov_17_2325,TMT_fmri,2021.2.3,59.96591537769307,
C4,78:104,11,['1'],1,TMTstop-control_1_4linestimulus8.png,TMTstop-control_1_4greenlinestimulus8.png,TMTstop-control_1_4redlinestimulus8.png,TMT_Control,C4,86,None,1,,,,,,,,,,,,,,,,,0,1,1,1,0,10,10,10,,,,,,,,,,,,,,,,,,,,,,,,,,,,,,,,,,,,,,,,,,,,,,,0,0,,138.8886722100331,None,None,0,,138.8886722100331,None,,,,,,001,2022_Nov_17_2325,TMT_fmri,2021.2.3,59.96591537769307,
C4,78:104,12,['3'],3,TMTstop-control_1_4linestimulus9.png,TMTstop-control_1_4greenlinestimulus9.png,TMTstop-control_1_4redlinestimulus9.png,TMT_Control,C4,87,None,1,,,,,,,,,,,,,,,,,0,1,1,1,0,11,11,11,,,,,,,,,,,,,,,,,,,,,,,,,,,,,,,,,,,,,,,,,,,,,,,0,0,,138.92202879003452,None,None,0,,138.92202879003452,None,,,,,,001,2022_Nov_17_2325,TMT_fmri,2021.2.3,59.96591537769307,
C4,78:104,13,['2'],2,TMTstop-control_1_4linestimulus10.png,TMTstop-control_1_4greenlinestimulus10.png,TMTstop-control_1_4redlinestimulus10.png,TMT_Control,C4,88,None,1,,,,,,,,,,,,,,,,,0,1,1,1,0,12,12,12,,,,,,,,,,,,,,,,,,,,,,,,,,,,,,,,,,,,,,,,,,,,,,,0,0,,138.95538537003594,None,None,0,,138.95538537003594,None,,,,,,001,2022_Nov_17_2325,TMT_fmri,2021.2.3,59.96591537769307,
C4,78:104,14,['3'],3,TMTstop-control_1_4linestimulus11.png,TMTstop-control_1_4greenlinestimulus11.png,TMTstop-control_1_4redlinestimulus11.png,TMT_Control,C4,89,None,1,,,,,,,,,,,,,,,,,0,1,1,1,0,13,13,13,,,,,,,,,,,,,,,,,,,,,,,,,,,,,,,,,,,,,,,,,,,,,,,0,0,,138.98874195003737,None,None,0,,138.98874195003737,None,,,,,,001,2022_Nov_17_2325,TMT_fmri,2021.2.3,59.96591537769307,
C4,78:104,15,['2'],2,TMTstop-control_1_4linestimulus12.png,TMTstop-control_1_4greenlinestimulus12.png,TMTstop-control_1_4redlinestimulus12.png,TMT_Control,C4,90,None,1,,,,,,,,,,,,,,,,,0,1,1,1,0,14,14,14,,,,,,,,,,,,,,,,,,,,,,,,,,,,,,,,,,,,,,,,,,,,,,,0,0,,139.02209853003876,None,None,0,,139.02209853003876,None,,,,,,001,2022_Nov_17_2325,TMT_fmri,2021.2.3,59.96591537769307,
C4,78:104,16,['1'],1,TMTstop-control_1_4linestimulus13.png,TMTstop-control_1_4greenlinestimulus13.png,TMTstop-control_1_4redlinestimulus13.png,TMT_Control,C4,91,None,1,,,,,,,,,,,,,,,,,0,1,1,1,0,15,15,15,,,,,,,,,,,,,,,,,,,,,,,,,,,,,,,,,,,,,,,,,,,,,,,0,0,,139.05545511004019,None,None,0,,139.05545511004019,None,,,,,,001,2022_Nov_17_2325,TMT_fmri,2021.2.3,59.96591537769307,
C4,78:104,17,['3'],3,TMTstop-control_1_4linestimulus14.png,TMTstop-control_1_4greenlinestimulus14.png,TMTstop-control_1_4redlinestimulus14.png,TMT_Control,C4,92,None,1,,,,,,,,,,,,,,,,,0,1,1,1,0,16,16,16,,,,,,,,,,,,,,,,,,,,,,,,,,,,,,,,,,,,,,,,,,,,,,,0,0,,139.0888116900416,None,None,0,,139.0888116900416,None,,,,,,001,2022_Nov_17_2325,TMT_fmri,2021.2.3,59.96591537769307,
C4,78:104,18,['1'],1,TMTstop-control_1_4linestimulus15.png,TMTstop-control_1_4greenlinestimulus15.png,TMTstop-control_1_4redlinestimulus15.png,TMT_Control,C4,93,None,1,,,,,,,,,,,,,,,,,0,1,1,1,0,17,17,17,,,,,,,,,,,,,,,,,,,,,,,,,,,,,,,,,,,,,,,,,,,,,,,0,0,,139.12216827004303,None,None,0,,139.12216827004303,None,,,,,,001,2022_Nov_17_2325,TMT_fmri,2021.2.3,59.96591537769307,
C4,78:104,19,['2'],2,TMTstop-control_1_4linestimulus16.png,TMTstop-control_1_4greenlinestimulus16.png,TMTstop-control_1_4redlinestimulus16.png,TMT_Control,C4,94,None,1,,,,,,,,,,,,,,,,,0,1,1,1,0,18,18,18,,,,,,,,,,,,,,,,,,,,,,,,,,,,,,,,,,,,,,,,,,,,,,,0,0,,139.15552485004446,None,None,0,,139.15552485004446,None,,,,,,001,2022_Nov_17_2325,TMT_fmri,2021.2.3,59.96591537769307,
C4,78:104,20,['1'],1,TMTstop-control_1_4linestimulus17.png,TMTstop-control_1_4greenlinestimulus17.png,TMTstop-control_1_4redlinestimulus17.png,TMT_Control,C4,95,None,1,,,,,,,,,,,,,,,,,0,1,1,1,0,19,19,19,,,,,,,,,,,,,,,,,,,,,,,,,,,,,,,,,,,,,,,,,,,,,,,0,0,,139.18888143004585,None,None,0,,139.18888143004585,None,,,,,,001,2022_Nov_17_2325,TMT_fmri,2021.2.3,59.96591537769307,
C4,78:104,21,['2'],2,TMTstop-control_1_4linestimulus18.png,TMTstop-control_1_4greenlinestimulus18.png,TMTstop-control_1_4redlinestimulus18.png,TMT_Control,C4,96,None,1,,,,,,,,,,,,,,,,,0,1,1,1,0,20,20,20,,,,,,,,,,,,,,,,,,,,,,,,,,,,,,,,,,,,,,,,,,,,,,,0,0,,139.22223801004728,None,None,0,,139.22223801004728,None,,,,,,001,2022_Nov_17_2325,TMT_fmri,2021.2.3,59.96591537769307,
C4,78:104,22,['1'],1,TMTstop-control_1_4linestimulus19.png,TMTstop-control_1_4greenlinestimulus19.png,TMTstop-control_1_4redlinestimulus19.png,TMT_Control,C4,97,None,1,,,,,,,,,,,,,,,,,0,1,1,1,0,21,21,21,,,,,,,,,,,,,,,,,,,,,,,,,,,,,,,,,,,,,,,,,,,,,,,0,0,,139.2555945900487,None,None,0,,139.2555945900487,None,,,,,,001,2022_Nov_17_2325,TMT_fmri,2021.2.3,59.96591537769307,
C4,78:104,23,['2'],2,TMTstop-control_1_4linestimulus20.png,TMTstop-control_1_4greenlinestimulus20.png,TMTstop-control_1_4redlinestimulus20.png,TMT_Control,C4,98,None,1,,,,,,,,,,,,,,,,,0,1,1,1,0,22,22,22,,,,,,,,,,,,,,,,,,,,,,,,,,,,,,,,,,,,,,,,,,,,,,,0,0,,139.28895117005013,None,None,0,,139.28895117005013,None,,,,,,001,2022_Nov_17_2325,TMT_fmri,2021.2.3,59.96591537769307,
C4,78:104,24,['1'],1,TMTstop-control_1_4linestimulus21.png,TMTstop-control_1_4greenlinestimulus21.png,TMTstop-control_1_4redlinestimulus21.png,TMT_Control,C4,99,None,1,,,,,,,,,,,,,,,,,0,1,1,1,0,23,23,23,,,,,,,,,,,,,,,,,,,,,,,,,,,,,,,,,,,,,,,,,,,,,,,0,0,,139.32230775005155,None,None,0,,139.32230775005155,None,,,,,,001,2022_Nov_17_2325,TMT_fmri,2021.2.3,59.96591537769307,
C4,78:104,25,['2'],2,TMTstop-control_1_4linestimulus22.png,TMTstop-control_1_4greenlinestimulus22.png,TMTstop-control_1_4redlinestimulus22.png,TMT_Control,C4,100,None,1,,,,,,,,,,,,,,,,,0,1,1,1,0,24,24,24,,,,,,,,,,,,,,,,,,,,,,,,,,,,,,,,,,,,,,,,,,,,,,,0,0,,139.35566433005295,None,None,0,,139.35566433005295,None,,,,,,001,2022_Nov_17_2325,TMT_fmri,2021.2.3,59.96591537769307,
C4,78:104,None,None,None,TMTstop-control_1_4linestimulus23.png,TMTstop-control_1_4greenlinestimulus23.png,TMTstop-control_1_4redlinestimulus23.png,TMT_Control,C4,Feedback_last,None,1,,,,,,,,,,,,,,,,,0,1,1,1,0,25,25,25,,,,,,,,,,,,,,,,,,,,,,,,,,,,,,,,,,,,,,,,,,,,,,,0,0,,139.4056992000551,None,None,1,,139.4056992000551,None,,,,,,001,2022_Nov_17_2325,TMT_fmri,2021.2.3,59.96591537769307,
B1,364:390,1,['3'],3,TMTstop-B_1_1.png,TMTstop-B_1_1.png,TMTstop-B_1_1.png,TMT_B,B1,1,1,3,,,,,,,,,,,,,,,,,,,,,,,,,0,0,0,0,0,0,0,0,,,,,,,,,,,,,,,,,,,,,,,,,,,,,,,,,,,,,,,5,0,126.29311210000014,146.72449069999857,None,"['2', '2', '1', '1', '3']",1,"[2.4875002000044333, 2.8399361000047065, 2.898913700002595, 4.009742800000822, 4.0640455999964615]",146.72449069999857,None,139.5107052999956,None,,,,001,2022_Nov_17_2325,TMT_fmri,2021.2.3,59.96591537769307,
B1,364:390,A,['1'],1,TMTstop-B_1_1.png,TMTstop-B_1_1firstgreen.png,TMTstop-B_1_1firstred.png,TMT_B,B1,2,None,3,,,,,,,,,,,,,,,,,,,,,,,,,0,0,0,0,0,1,1,1,,,,,,,,,,,,,,,,,,,,,,,,,,,,,,,,,,,,,,,1,1,126.47814069999731,150.85748669999884,None,['1'],1,[0.12252439999429043],150.85748669999884,None,,,,,,001,2022_Nov_17_2325,TMT_fmri,2021.2.3,59.96591537769307,
B1,364:390,2,['3'],3,TMTstop-B_1_1linestimulus0.png,TMTstop-B_1_1greenlinestimulus0.png,TMTstop-B_1_1redlinestimulus0.png,TMT_B,B1,3,None,3,,,,,,,,,,,,,,,,,,,,,,,,,0,0,0,0,0,2,2,2,,,,,,,,,,,,,,,,,,,,,,,,,,,,,,,,,,,,,,,1,1,126.61113869999826,151.04202989999612,None,['3'],1,[0.07517140000709333],151.04202989999612,None,,,,,,001,2022_Nov_17_2325,TMT_fmri,2021.2.3,59.96591537769307,
B1,364:390,B,['2'],2,TMTstop-B_1_1linestimulus1.png,TMTstop-B_1_1greenlinestimulus1.png,TMTstop-B_1_1redlinestimulus1.png,TMT_B,B1,4,None,3,,,,,,,,,,,,,,,,,,,,,,,,,0,0,0,0,0,3,3,3,,,,,,,,,,,,,,,,,,,,,,,,,,,,,,,,,,,,,,,3,0,127.00711219999357,151.18298009999853,None,"['1', '3', '2']",1,"[0.10623280001163948, 0.24046980000275653, 0.30246590000751894]",151.18298009999853,None,,,,,,001,2022_Nov_17_2325,TMT_fmri,2021.2.3,59.96591537769307,
B1,364:390,3,['1'],1,TMTstop-B_1_1linestimulus2.png,TMTstop-B_1_1greenlinestimulus2.png,TMTstop-B_1_1redlinestimulus2.png,TMT_B,B1,5,None,3,,,,,,,,,,,,,,,,,,,,,,,,,0,0,0,0,0,4,4,4,,,,,,,,,,,,,,,,,,,,,,,,,,,,,,,,,,,,,,,0,0,,151.57132829999318,None,None,0,,151.57132829999318,None,,,,,,001,2022_Nov_17_2325,TMT_fmri,2021.2.3,59.96591537769307,
B1,364:390,C,['3'],3,TMTstop-B_1_1linestimulus3.png,TMTstop-B_1_1greenlinestimulus3.png,TMTstop-B_1_1redlinestimulus3.png,TMT_B,B1,6,None,3,,,,,,,,,,,,,,,,,,,,,,,,,0,0,0,0,0,5,5,5,,,,,,,,,,,,,,,,,,,,,,,,,,,,,,,,,,,,,,,0,0,,236.53635437999617,None,None,0,,236.53635437999617,None,,,,,,001,2022_Nov_17_2325,TMT_fmri,2021.2.3,59.96591537769307,
B1,364:390,4,['2'],2,TMTstop-B_1_1linestimulus4.png,TMTstop-B_1_1greenlinestimulus4.png,TMTstop-B_1_1redlinestimulus4.png,TMT_B,B1,7,None,3,,,,,,,,,,,,,,,,,,,,,,,,,0,0,0,0,0,6,6,6,,,,,,,,,,,,,,,,,,,,,,,,,,,,,,,,,,,,,,,0,0,,236.5697109599976,None,None,0,,236.5697109599976,None,,,,,,001,2022_Nov_17_2325,TMT_fmri,2021.2.3,59.96591537769307,
B1,364:390,D,['1'],1,TMTstop-B_1_1linestimulus5.png,TMTstop-B_1_1greenlinestimulus5.png,TMTstop-B_1_1redlinestimulus5.png,TMT_B,B1,8,None,3,,,,,,,,,,,,,,,,,,,,,,,,,0,0,0,0,0,7,7,7,,,,,,,,,,,,,,,,,,,,,,,,,,,,,,,,,,,,,,,0,0,,236.60306753999902,None,None,0,,236.60306753999902,None,,,,,,001,2022_Nov_17_2325,TMT_fmri,2021.2.3,59.96591537769307,
B1,364:390,5,['3'],3,TMTstop-B_1_1linestimulus6.png,TMTstop-B_1_1greenlinestimulus6.png,TMTstop-B_1_1redlinestimulus6.png,TMT_B,B1,9,None,3,,,,,,,,,,,,,,,,,,,,,,,,,0,0,0,0,0,8,8,8,,,,,,,,,,,,,,,,,,,,,,,,,,,,,,,,,,,,,,,0,0,,236.65310241000114,None,None,0,,236.65310241000114,None,,,,,,001,2022_Nov_17_2325,TMT_fmri,2021.2.3,59.96591537769307,
B1,364:390,E,['1'],1,TMTstop-B_1_1linestimulus7.png,TMTstop-B_1_1greenlinestimulus7.png,TMTstop-B_1_1redlinestimulus7.png,TMT_B,B1,10,None,3,,,,,,,,,,,,,,,,,,,,,,,,,0,0,0,0,0,9,9,9,,,,,,,,,,,,,,,,,,,,,,,,,,,,,,,,,,,,,,,0,0,,236.68645899000256,None,None,0,,236.68645899000256,None,,,,,,001,2022_Nov_17_2325,TMT_fmri,2021.2.3,59.96591537769307,
B1,364:390,6,['3'],3,TMTstop-B_1_1linestimulus8.png,TMTstop-B_1_1greenlinestimulus8.png,TMTstop-B_1_1redlinestimulus8.png,TMT_B,B1,11,None,3,,,,,,,,,,,,,,,,,,,,,,,,,0,0,0,0,0,10,10,10,,,,,,,,,,,,,,,,,,,,,,,,,,,,,,,,,,,,,,,0,0,,236.719815570004,None,None,0,,236.719815570004,None,,,,,,001,2022_Nov_17_2325,TMT_fmri,2021.2.3,59.96591537769307,
B1,364:390,F,['1'],1,TMTstop-B_1_1linestimulus9.png,TMTstop-B_1_1greenlinestimulus9.png,TMTstop-B_1_1redlinestimulus9.png,TMT_B,B1,12,None,3,,,,,,,,,,,,,,,,,,,,,,,,,0,0,0,0,0,11,11,11,,,,,,,,,,,,,,,,,,,,,,,,,,,,,,,,,,,,,,,0,0,,236.7531721500054,None,None,0,,236.7531721500054,None,,,,,,001,2022_Nov_17_2325,TMT_fmri,2021.2.3,59.96591537769307,
B1,364:390,7,['3'],3,TMTstop-B_1_1linestimulus10.png,TMTstop-B_1_1greenlinestimulus10.png,TMTstop-B_1_1redlinestimulus10.png,TMT_B,B1,13,None,3,,,,,,,,,,,,,,,,,,,,,,,,,0,0,0,0,0,12,12,12,,,,,,,,,,,,,,,,,,,,,,,,,,,,,,,,,,,,,,,0,0,,236.7865287300068,None,None,0,,236.7865287300068,None,,,,,,001,2022_Nov_17_2325,TMT_fmri,2021.2.3,59.96591537769307,
B1,364:390,G,['2'],2,TMTstop-B_1_1linestimulus11.png,TMTstop-B_1_1greenlinestimulus11.png,TMTstop-B_1_1redlinestimulus11.png,TMT_B,B1,14,None,3,,,,,,,,,,,,,,,,,,,,,,,,,0,0,0,0,0,13,13,13,,,,,,,,,,,,,,,,,,,,,,,,,,,,,,,,,,,,,,,0,0,,236.80320702000753,None,None,0,,236.80320702000753,None,,,,,,001,2022_Nov_17_2325,TMT_fmri,2021.2.3,59.96591537769307,
B1,364:390,8,['3'],3,TMTstop-B_1_1linestimulus12.png,TMTstop-B_1_1greenlinestimulus12.png,TMTstop-B_1_1redlinestimulus12.png,TMT_B,B1,15,None,3,,,,,,,,,,,,,,,,,,,,,,,,,0,0,0,0,0,14,14,14,,,,,,,,,,,,,,,,,,,,,,,,,,,,,,,,,,,,,,,0,0,,236.83656360000896,None,None,0,,236.83656360000896,None,,,,,,001,2022_Nov_17_2325,TMT_fmri,2021.2.3,59.96591537769307,
B1,364:390,H,['1'],1,TMTstop-B_1_1linestimulus13.png,TMTstop-B_1_1greenlinestimulus13.png,TMTstop-B_1_1redlinestimulus13.png,TMT_B,B1,16,None,3,,,,,,,,,,,,,,,,,,,,,,,,,0,0,0,0,0,15,15,15,,,,,,,,,,,,,,,,,,,,,,,,,,,,,,,,,,,,,,,0,0,,236.86992018001035,None,None,0,,236.86992018001035,None,,,,,,001,2022_Nov_17_2325,TMT_fmri,2021.2.3,59.96591537769307,
B1,364:390,9,['3'],3,TMTstop-B_1_1linestimulus14.png,TMTstop-B_1_1greenlinestimulus14.png,TMTstop-B_1_1redlinestimulus14.png,TMT_B,B1,17,None,3,,,,,,,,,,,,,,,,,,,,,,,,,0,0,0,0,0,16,16,16,,,,,,,,,,,,,,,,,,,,,,,,,,,,,,,,,,,,,,,0,0,,236.9199550500125,None,None,0,,236.9199550500125,None,,,,,,001,2022_Nov_17_2325,TMT_fmri,2021.2.3,59.96591537769307,
B1,364:390,I,['2'],2,TMTstop-B_1_1linestimulus15.png,TMTstop-B_1_1greenlinestimulus15.png,TMTstop-B_1_1redlinestimulus15.png,TMT_B,B1,18,None,3,,,,,,,,,,,,,,,,,,,,,,,,,0,0,0,0,0,17,17,17,,,,,,,,,,,,,,,,,,,,,,,,,,,,,,,,,,,,,,,0,0,,236.9533116300139,None,None,0,,236.9533116300139,None,,,,,,001,2022_Nov_17_2325,TMT_fmri,2021.2.3,59.96591537769307,
B1,364:390,10,['3'],3,TMTstop-B_1_1linestimulus16.png,TMTstop-B_1_1greenlinestimulus16.png,TMTstop-B_1_1redlinestimulus16.png,TMT_B,B1,19,None,3,,,,,,,,,,,,,,,,,,,,,,,,,0,0,0,0,0,18,18,18,,,,,,,,,,,,,,,,,,,,,,,,,,,,,,,,,,,,,,,0,0,,236.98666821001532,None,None,0,,236.98666821001532,None,,,,,,001,2022_Nov_17_2325,TMT_fmri,2021.2.3,59.96591537769307,
B1,364:390,J,['2'],2,TMTstop-B_1_1linestimulus17.png,TMTstop-B_1_1greenlinestimulus17.png,TMTstop-B_1_1redlinestimulus17.png,TMT_B,B1,20,None,3,,,,,,,,,,,,,,,,,,,,,,,,,0,0,0,0,0,19,19,19,,,,,,,,,,,,,,,,,,,,,,,,,,,,,,,,,,,,,,,0,0,,237.02002479001675,None,None,0,,237.02002479001675,None,,,,,,001,2022_Nov_17_2325,TMT_fmri,2021.2.3,59.96591537769307,
B1,364:390,11,['1'],1,TMTstop-B_1_1linestimulus18.png,TMTstop-B_1_1greenlinestimulus18.png,TMTstop-B_1_1redlinestimulus18.png,TMT_B,B1,21,None,3,,,,,,,,,,,,,,,,,,,,,,,,,0,0,0,0,0,20,20,20,,,,,,,,,,,,,,,,,,,,,,,,,,,,,,,,,,,,,,,0,0,,237.05338137001817,None,None,0,,237.05338137001817,None,,,,,,001,2022_Nov_17_2325,TMT_fmri,2021.2.3,59.96591537769307,
B1,364:390,K,['2'],2,TMTstop-B_1_1linestimulus19.png,TMTstop-B_1_1greenlinestimulus19.png,TMTstop-B_1_1redlinestimulus19.png,TMT_B,B1,22,None,3,,,,,,,,,,,,,,,,,,,,,,,,,0,0,0,0,0,21,21,21,,,,,,,,,,,,,,,,,,,,,,,,,,,,,,,,,,,,,,,0,0,,237.0867379500196,None,None,0,,237.0867379500196,None,,,,,,001,2022_Nov_17_2325,TMT_fmri,2021.2.3,59.96591537769307,
B1,364:390,12,['1'],1,TMTstop-B_1_1linestimulus20.png,TMTstop-B_1_1greenlinestimulus20.png,TMTstop-B_1_1redlinestimulus20.png,TMT_B,B1,23,None,3,,,,,,,,,,,,,,,,,,,,,,,,,0,0,0,0,0,22,22,22,,,,,,,,,,,,,,,,,,,,,,,,,,,,,,,,,,,,,,,0,0,,237.120094530021,None,None,0,,237.120094530021,None,,,,,,001,2022_Nov_17_2325,TMT_fmri,2021.2.3,59.96591537769307,
B1,364:390,L,['2'],2,TMTstop-B_1_1linestimulus21.png,TMTstop-B_1_1greenlinestimulus21.png,TMTstop-B_1_1redlinestimulus21.png,TMT_B,B1,24,None,3,,,,,,,,,,,,,,,,,,,,,,,,,0,0,0,0,0,23,23,23,,,,,,,,,,,,,,,,,,,,,,,,,,,,,,,,,,,,,,,0,0,,237.15345111002242,None,None,0,,237.15345111002242,None,,,,,,001,2022_Nov_17_2325,TMT_fmri,2021.2.3,59.96591537769307,
B1,364:390,13,['1'],1,TMTstop-B_1_1linestimulus22.png,TMTstop-B_1_1greenlinestimulus22.png,TMTstop-B_1_1redlinestimulus22.png,TMT_B,B1,25,None,3,,,,,,,,,,,,,,,,,,,,,,,,,0,0,0,0,0,24,24,24,,,,,,,,,,,,,,,,,,,,,,,,,,,,,,,,,,,,,,,0,0,,237.18680769002384,None,None,0,,237.18680769002384,None,,,,,,001,2022_Nov_17_2325,TMT_fmri,2021.2.3,59.96591537769307,
B1,364:390,None,None,None,TMTstop-B_1_1linestimulus23.png,TMTstop-B_1_1greenlinestimulus23.png,TMTstop-B_1_1redlinestimulus23.png,TMT_B,B1,Feedback_last,None,3,,,,,,,,,,,,,,,,,,,,,,,,,0,0,0,0,0,25,25,25,,,,,,,,,,,,,,,,,,,,,,,,,,,,,,,,,,,,,,,0,0,,237.22016427002526,None,None,1,,237.22016427002526,None,,,,,,001,2022_Nov_17_2325,TMT_fmri,2021.2.3,59.96591537769307,
B2,390:416,1,['1'],1,TMTstop-B_1_2.png,TMTstop-B_1_2.png,TMTstop-B_1_2.png,TMT_B,B2,26,None,3,,,,,,,,,,,,,,,,,,,,,,,,,0,1,1,1,0,0,0,0,,,,,,,,,,,,,,,,,,,,,,,,,,,,,,,,,,,,,,,0,0,,239.25777135001408,None,None,0,,239.25777135001408,None,,,,,,001,2022_Nov_17_2325,TMT_fmri,2021.2.3,59.96591537769307,
B2,390:416,A,['2'],2,TMTstop-B_1_2.png,TMTstop-B_1_2firstgreen.png,TMTstop-B_1_2firstred.png,TMT_B,B2,27,None,3,,,,,,,,,,,,,,,,,,,,,,,,,0,1,1,1,0,1,1,1,,,,,,,,,,,,,,,,,,,,,,,,,,,,,,,,,,,,,,,0,0,,239.3078062200162,None,None,0,,239.3078062200162,None,,,,,,001,2022_Nov_17_2325,TMT_fmri,2021.2.3,59.96591537769307,
B2,390:416,2,['1'],1,TMTstop-B_1_2linestimulus0.png,TMTstop-B_1_2greenlinestimulus0.png,TMTstop-B_1_2redlinestimulus0.png,TMT_B,B2,28,None,3,,,,,,,,,,,,,,,,,,,,,,,,,0,1,1,1,0,2,2,2,,,,,,,,,,,,,,,,,,,,,,,,,,,,,,,,,,,,,,,0,0,,239.34116280001763,None,None,0,,239.34116280001763,None,,,,,,001,2022_Nov_17_2325,TMT_fmri,2021.2.3,59.96591537769307,
B2,390:416,B,['2'],2,TMTstop-B_1_2linestimulus1.png,TMTstop-B_1_2greenlinestimulus1.png,TMTstop-B_1_2redlinestimulus1.png,TMT_B,B2,29,None,3,,,,,,,,,,,,,,,,,,,,,,,,,0,1,1,1,0,3,3,3,,,,,,,,,,,,,,,,,,,,,,,,,,,,,,,,,,,,,,,0,0,,239.37451938001902,None,None,0,,239.37451938001902,None,,,,,,001,2022_Nov_17_2325,TMT_fmri,2021.2.3,59.96591537769307,
B2,390:416,3,['1'],1,TMTstop-B_1_2linestimulus2.png,TMTstop-B_1_2greenlinestimulus2.png,TMTstop-B_1_2redlinestimulus2.png,TMT_B,B2,30,None,3,,,,,,,,,,,,,,,,,,,,,,,,,0,1,1,1,0,4,4,4,,,,,,,,,,,,,,,,,,,,,,,,,,,,,,,,,,,,,,,0,0,,239.40787596002045,None,None,0,,239.40787596002045,None,,,,,,001,2022_Nov_17_2325,TMT_fmri,2021.2.3,59.96591537769307,
B2,390:416,C,['3'],3,TMTstop-B_1_2linestimulus3.png,TMTstop-B_1_2greenlinestimulus3.png,TMTstop-B_1_2redlinestimulus3.png,TMT_B,B2,31,None,3,,,,,,,,,,,,,,,,,,,,,,,,,0,1,1,1,0,5,5,5,,,,,,,,,,,,,,,,,,,,,,,,,,,,,,,,,,,,,,,0,0,,239.44123254002187,None,None,0,,239.44123254002187,None,,,,,,001,2022_Nov_17_2325,TMT_fmri,2021.2.3,59.96591537769307,
B2,390:416,4,['2'],2,TMTstop-B_1_2linestimulus4.png,TMTstop-B_1_2greenlinestimulus4.png,TMTstop-B_1_2redlinestimulus4.png,TMT_B,B2,32,None,3,,,,,,,,,,,,,,,,,,,,,,,,,0,1,1,1,0,6,6,6,,,,,,,,,,,,,,,,,,,,,,,,,,,,,,,,,,,,,,,0,0,,239.491267410024,None,None,0,,239.491267410024,None,,,,,,001,2022_Nov_17_2325,TMT_fmri,2021.2.3,59.96591537769307,
B2,390:416,D,['1'],1,TMTstop-B_1_2linestimulus5.png,TMTstop-B_1_2greenlinestimulus5.png,TMTstop-B_1_2redlinestimulus5.png,TMT_B,B2,33,None,3,,,,,,,,,,,,,,,,,,,,,,,,,0,1,1,1,0,7,7,7,,,,,,,,,,,,,,,,,,,,,,,,,,,,,,,,,,,,,,,0,0,,239.52462399002542,None,None,0,,239.52462399002542,None,,,,,,001,2022_Nov_17_2325,TMT_fmri,2021.2.3,59.96591537769307,
B2,390:416,5,['2'],2,TMTstop-B_1_2linestimulus6.png,TMTstop-B_1_2greenlinestimulus6.png,TMTstop-B_1_2redlinestimulus6.png,TMT_B,B2,34,None,3,,,,,,,,,,,,,,,,,,,,,,,,,0,1,1,1,0,8,8,8,,,,,,,,,,,,,,,,,,,,,,,,,,,,,,,,,,,,,,,0,0,,239.55798057002684,None,None,0,,239.55798057002684,None,,,,,,001,2022_Nov_17_2325,TMT_fmri,2021.2.3,59.96591537769307,
B2,390:416,E,['3'],3,TMTstop-B_1_2linestimulus7.png,TMTstop-B_1_2greenlinestimulus7.png,TMTstop-B_1_2redlinestimulus7.png,TMT_B,B2,35,None,3,,,,,,,,,,,,,,,,,,,,,,,,,0,1,1,1,0,9,9,9,,,,,,,,,,,,,,,,,,,,,,,,,,,,,,,,,,,,,,,0,0,,239.60801544002896,None,None,0,,239.60801544002896,None,,,,,,001,2022_Nov_17_2325,TMT_fmri,2021.2.3,59.96591537769307,
B2,390:416,6,['1'],1,TMTstop-B_1_2linestimulus8.png,TMTstop-B_1_2greenlinestimulus8.png,TMTstop-B_1_2redlinestimulus8.png,TMT_B,B2,36,None,3,,,,,,,,,,,,,,,,,,,,,,,,,0,1,1,1,0,10,10,10,,,,,,,,,,,,,,,,,,,,,,,,,,,,,,,,,,,,,,,0,0,,239.6413720200304,None,None,0,,239.6413720200304,None,,,,,,001,2022_Nov_17_2325,TMT_fmri,2021.2.3,59.96591537769307,
B2,390:416,F,['3'],3,TMTstop-B_1_2linestimulus9.png,TMTstop-B_1_2greenlinestimulus9.png,TMTstop-B_1_2redlinestimulus9.png,TMT_B,B2,37,None,3,,,,,,,,,,,,,,,,,,,,,,,,,0,1,1,1,0,11,11,11,,,,,,,,,,,,,,,,,,,,,,,,,,,,,,,,,,,,,,,0,0,,239.6914068900325,None,None,0,,239.6914068900325,None,,,,,,001,2022_Nov_17_2325,TMT_fmri,2021.2.3,59.96591537769307,
B2,390:416,7,['1'],1,TMTstop-B_1_2linestimulus10.png,TMTstop-B_1_2greenlinestimulus10.png,TMTstop-B_1_2redlinestimulus10.png,TMT_B,B2,38,None,3,,,,,,,,,,,,,,,,,,,,,,,,,0,1,1,1,0,12,12,12,,,,,,,,,,,,,,,,,,,,,,,,,,,,,,,,,,,,,,,0,0,,239.72476347003393,None,None,0,,239.72476347003393,None,,,,,,001,2022_Nov_17_2325,TMT_fmri,2021.2.3,59.96591537769307,
B2,390:416,G,['2'],2,TMTstop-B_1_2linestimulus11.png,TMTstop-B_1_2greenlinestimulus11.png,TMTstop-B_1_2redlinestimulus11.png,TMT_B,B2,39,None,3,,,,,,,,,,,,,,,,,,,,,,,,,0,1,1,1,0,13,13,13,,,,,,,,,,,,,,,,,,,,,,,,,,,,,,,,,,,,,,,0,0,,239.75812005003536,None,None,0,,239.75812005003536,None,,,,,,001,2022_Nov_17_2325,TMT_fmri,2021.2.3,59.96591537769307,
B2,390:416,8,['1'],1,TMTstop-B_1_2linestimulus12.png,TMTstop-B_1_2greenlinestimulus12.png,TMTstop-B_1_2redlinestimulus12.png,TMT_B,B2,40,None,3,,,,,,,,,,,,,,,,,,,,,,,,,0,1,1,1,0,14,14,14,,,,,,,,,,,,,,,,,,,,,,,,,,,,,,,,,,,,,,,0,0,,239.79147663003675,None,None,0,,239.79147663003675,None,,,,,,001,2022_Nov_17_2325,TMT_fmri,2021.2.3,59.96591537769307,
B2,390:416,H,['2'],2,TMTstop-B_1_2linestimulus13.png,TMTstop-B_1_2greenlinestimulus13.png,TMTstop-B_1_2redlinestimulus13.png,TMT_B,B2,41,None,3,,,,,,,,,,,,,,,,,,,,,,,,,0,1,1,1,0,15,15,15,,,,,,,,,,,,,,,,,,,,,,,,,,,,,,,,,,,,,,,0,0,,239.82483321003818,None,None,0,,239.82483321003818,None,,,,,,001,2022_Nov_17_2325,TMT_fmri,2021.2.3,59.96591537769307,
B2,390:416,9,['3'],3,TMTstop-B_1_2linestimulus14.png,TMTstop-B_1_2greenlinestimulus14.png,TMTstop-B_1_2redlinestimulus14.png,TMT_B,B2,42,None,3,,,,,,,,,,,,,,,,,,,,,,,,,0,1,1,1,0,16,16,16,,,,,,,,,,,,,,,,,,,,,,,,,,,,,,,,,,,,,,,0,0,,239.8581897900396,None,None,0,,239.8581897900396,None,,,,,,001,2022_Nov_17_2325,TMT_fmri,2021.2.3,59.96591537769307,
B2,390:416,I,['1'],1,TMTstop-B_1_2linestimulus15.png,TMTstop-B_1_2greenlinestimulus15.png,TMTstop-B_1_2redlinestimulus15.png,TMT_B,B2,43,None,3,,,,,,,,,,,,,,,,,,,,,,,,,0,1,1,1,0,17,17,17,,,,,,,,,,,,,,,,,,,,,,,,,,,,,,,,,,,,,,,0,0,,239.89154637004103,None,None,0,,239.89154637004103,None,,,,,,001,2022_Nov_17_2325,TMT_fmri,2021.2.3,59.96591537769307,
B2,390:416,10,['2'],2,TMTstop-B_1_2linestimulus16.png,TMTstop-B_1_2greenlinestimulus16.png,TMTstop-B_1_2redlinestimulus16.png,TMT_B,B2,44,None,3,,,,,,,,,,,,,,,,,,,,,,,,,0,1,1,1,0,18,18,18,,,,,,,,,,,,,,,,,,,,,,,,,,,,,,,,,,,,,,,0,0,,239.92490295004245,None,None,0,,239.92490295004245,None,,,,,,001,2022_Nov_17_2325,TMT_fmri,2021.2.3,59.96591537769307,
B2,390:416,J,['1'],1,TMTstop-B_1_2linestimulus17.png,TMTstop-B_1_2greenlinestimulus17.png,TMTstop-B_1_2redlinestimulus17.png,TMT_B,B2,45,None,3,,,,,,,,,,,,,,,,,,,,,,,,,0,1,1,1,0,19,19,19,,,,,,,,,,,,,,,,,,,,,,,,,,,,,,,,,,,,,,,0,0,,239.95825953004385,None,None,0,,239.95825953004385,None,,,,,,001,2022_Nov_17_2325,TMT_fmri,2021.2.3,59.96591537769307,
B2,390:416,11,['3'],3,TMTstop-B_1_2linestimulus18.png,TMTstop-B_1_2greenlinestimulus18.png,TMTstop-B_1_2redlinestimulus18.png,TMT_B,B2,46,None,3,,,,,,,,,,,,,,,,,,,,,,,,,0,1,1,1,0,20,20,20,,,,,,,,,,,,,,,,,,,,,,,,,,,,,,,,,,,,,,,0,0,,239.99161611004527,None,None,0,,239.99161611004527,None,,,,,,001,2022_Nov_17_2325,TMT_fmri,2021.2.3,59.96591537769307,
B2,390:416,K,['2'],2,TMTstop-B_1_2linestimulus19.png,TMTstop-B_1_2greenlinestimulus19.png,TMTstop-B_1_2redlinestimulus19.png,TMT_B,B2,47,None,3,,,,,,,,,,,,,,,,,,,,,,,,,0,1,1,1,0,21,21,21,,,,,,,,,,,,,,,,,,,,,,,,,,,,,,,,,,,,,,,0,0,,240.0249726900467,None,None,0,,240.0249726900467,None,,,,,,001,2022_Nov_17_2325,TMT_fmri,2021.2.3,59.96591537769307,
B2,390:416,12,['1'],1,TMTstop-B_1_2linestimulus20.png,TMTstop-B_1_2greenlinestimulus20.png,TMTstop-B_1_2redlinestimulus20.png,TMT_B,B2,48,None,3,,,,,,,,,,,,,,,,,,,,,,,,,0,1,1,1,0,22,22,22,,,,,,,,,,,,,,,,,,,,,,,,,,,,,,,,,,,,,,,0,0,,240.05832927004812,None,None,0,,240.05832927004812,None,,,,,,001,2022_Nov_17_2325,TMT_fmri,2021.2.3,59.96591537769307,
B2,390:416,L,['2'],2,TMTstop-B_1_2linestimulus21.png,TMTstop-B_1_2greenlinestimulus21.png,TMTstop-B_1_2redlinestimulus21.png,TMT_B,B2,49,None,3,,,,,,,,,,,,,,,,,,,,,,,,,0,1,1,1,0,23,23,23,,,,,,,,,,,,,,,,,,,,,,,,,,,,,,,,,,,,,,,0,0,,240.09168585004954,None,None,0,,240.09168585004954,None,,,,,,001,2022_Nov_17_2325,TMT_fmri,2021.2.3,59.96591537769307,
B2,390:416,13,['1'],1,TMTstop-B_1_2linestimulus22.png,TMTstop-B_1_2greenlinestimulus22.png,TMTstop-B_1_2redlinestimulus22.png,TMT_B,B2,50,None,3,,,,,,,,,,,,,,,,,,,,,,,,,0,1,1,1,0,24,24,24,,,,,,,,,,,,,,,,,,,,,,,,,,,,,,,,,,,,,,,0,0,,240.14172072005167,None,None,0,,240.14172072005167,None,,,,,,001,2022_Nov_17_2325,TMT_fmri,2021.2.3,59.96591537769307,
B2,390:416,None,None,None,TMTstop-B_1_2linestimulus23.png,TMTstop-B_1_2greenlinestimulus23.png,TMTstop-B_1_2redlinestimulus23.png,TMT_B,B2,Feedback_last,None,3,,,,,,,,,,,,,,,,,,,,,,,,,0,1,1,1,0,25,25,25,,,,,,,,,,,,,,,,,,,,,,,,,,,,,,,,,,,,,,,0,0,,240.1750773000531,None,None,1,,240.1750773000531,None,,,,,,001,2022_Nov_17_2325,TMT_fmri,2021.2.3,59.96591537769307,
C5,104:130,1,['3'],3,TMTstop-control_1_5.png,TMTstop-control_1_5.png,TMTstop-control_1_5.png,TMT_Control,C5,101,3,4,,,,,,,,,,,,,,,,,,,,,,,,,,,,,,,,,0,0,0,0,0,0,0,0,,,,,,,,,,,,,,,,,,,,,,,,,,,,,,,1,1,225.30855259999225,247.53493599999638,None,['3'],1,[2.2861778999940725],247.53493599999638,None,,,240.27988479999476,None,,001,2022_Nov_17_2325,TMT_fmri,2021.2.3,59.96591537769307,
C5,104:130,2,['2'],2,TMTstop-control_1_5.png,TMTstop-control_1_5firstgreen.png,TMTstop-control_1_5firstred.png,TMT_Control,C5,102,None,4,,,,,,,,,,,,,,,,,,,,,,,,,,,,,,,,,0,0,0,0,0,1,1,1,,,,,,,,,,,,,,,,,,,,,,,,,,,,,,,1,1,225.36393589999352,249.87826860000496,None,['2'],1,[-0.04137589999299962],249.87826860000496,None,,,,,,001,2022_Nov_17_2325,TMT_fmri,2021.2.3,59.96591537769307,
C5,104:130,3,['1'],1,TMTstop-control_1_5linestimulus0.png,TMTstop-control_1_5greenlinestimulus0.png,TMTstop-control_1_5redlinestimulus0.png,TMT_Control,C5,103,None,4,,,,,,,,,,,,,,,,,,,,,,,,,,,,,,,,,0,0,0,0,0,2,2,2,,,,,,,,,,,,,,,,,,,,,,,,,,,,,,,1,1,225.48107579999487,249.92874859999574,None,['1'],1,[0.05928609998954926],249.92874859999574,None,,,,,,001,2022_Nov_17_2325,TMT_fmri,2021.2.3,59.96591537769307,
C5,104:130,4,['3'],3,TMTstop-control_1_5linestimulus1.png,TMTstop-control_1_5greenlinestimulus1.png,TMTstop-control_1_5redlinestimulus1.png,TMT_Control,C5,104,None,4,,,,,,,,,,,,,,,,,,,,,,,,,,,,,,,,,0,0,0,0,0,3,3,3,,,,,,,,,,,,,,,,,,,,,,,,,,,,,,,1,1,225.64806659999886,250.04558330000145,None,['3'],1,[0.1034427999984473],250.04558330000145,None,,,,,,001,2022_Nov_17_2325,TMT_fmri,2021.2.3,59.96591537769307,
C5,104:130,5,['1'],1,TMTstop-control_1_5linestimulus2.png,TMTstop-control_1_5greenlinestimulus2.png,TMTstop-control_1_5redlinestimulus2.png,TMT_Control,C5,105,None,4,,,,,,,,,,,,,,,,,,,,,,,,,,,,,,,,,0,0,0,0,0,4,4,4,,,,,,,,,,,,,,,,,,,,,,,,,,,,,,,2,0,225.81295409999439,250.22021600000153,None,"['2', '1']",1,"[-0.020004999998491257, 0.06059789999562781]",250.22021600000153,None,,,,,,001,2022_Nov_17_2325,TMT_fmri,2021.2.3,59.96591537769307,
C5,104:130,6,['2'],2,TMTstop-control_1_5linestimulus3.png,TMTstop-control_1_5greenlinestimulus3.png,TMTstop-control_1_5redlinestimulus3.png,TMT_Control,C5,106,None,4,,,,,,,,,,,,,,,,,,,,,,,,,,,,,,,,,0,0,0,0,0,5,5,5,,,,,,,,,,,,,,,,,,,,,,,,,,,,,,,2,0,225.96897279999394,250.38274790000287,None,"['3', '2']",1,"[0.035838299998431467, 0.06803100000252016]",250.38274790000287,None,,,,,,001,2022_Nov_17_2325,TMT_fmri,2021.2.3,59.96591537769307,
C5,104:130,7,['3'],3,TMTstop-control_1_5linestimulus4.png,TMTstop-control_1_5greenlinestimulus4.png,TMTstop-control_1_5redlinestimulus4.png,TMT_Control,C5,107,None,4,,,,,,,,,,,,,,,,,,,,,,,,,,,,,,,,,0,0,0,0,0,6,6,6,,,,,,,,,,,,,,,,,,,,,,,,,,,,,,,2,0,226.21892359999765,250.53332509999746,None,"['1', '3']",1,"[0.04530490000615828, 0.1671078000072157]",250.53332509999746,None,,,,,,001,2022_Nov_17_2325,TMT_fmri,2021.2.3,59.96591537769307,
C5,104:130,8,['2'],2,TMTstop-control_1_5linestimulus4.png,TMTstop-control_1_5greenlinestimulus5.png,TMTstop-control_1_5redlinestimulus5.png,TMT_Control,C5,108,None,4,,,,,,,,,,,,,,,,,,,,,,,,,,,,,,,,,0,0,0,0,0,7,7,7,,,,,,,,,,,,,,,,,,,,,,,,,,,,,,,1,1,226.26898409999558,250.78289990000485,None,['2'],1,[-0.025309299991931766],250.78289990000485,None,,,,,,001,2022_Nov_17_2325,TMT_fmri,2021.2.3,59.96591537769307,
C5,104:130,9,['1'],1,TMTstop-control_1_5linestimulus6.png,TMTstop-control_1_5greenlinestimulus6.png,TMTstop-control_1_5redlinestimulus6.png,TMT_Control,C5,109,None,4,,,,,,,,,,,,,,,,,,,,,,,,,,,,,,,,,0,0,0,0,0,8,8,8,,,,,,,,,,,,,,,,,,,,,,,,,,,,,,,1,1,226.35296730000118,250.85035269999935,None,['1'],1,[0.013784399998257868],250.85035269999935,None,,,,,,001,2022_Nov_17_2325,TMT_fmri,2021.2.3,59.96591537769307,
C5,104:130,10,['2'],2,TMTstop-control_1_5linestimulus7.png,TMTstop-control_1_5greenlinestimulus7.png,TMTstop-control_1_5redlinestimulus7.png,TMT_Control,C5,110,None,4,,,,,,,,,,,,,,,,,,,,,,,,,,,,,,,,,0,0,0,0,0,9,9,9,,,,,,,,,,,,,,,,,,,,,,,,,,,,,,,2,0,226.56064369999513,250.9169602000038,None,"['3', '2']",1,"[0.08548990001145285, 0.1432253000093624]",250.9169602000038,None,,,,,,001,2022_Nov_17_2325,TMT_fmri,2021.2.3,59.96591537769307,
C5,104:130,11,['1'],1,TMTstop-control_1_5linestimulus8.png,TMTstop-control_1_5greenlinestimulus8.png,TMTstop-control_1_5redlinestimulus8.png,TMT_Control,C5,111,None,4,,,,,,,,,,,,,,,,,,,,,,,,,,,,,,,,,0,0,0,0,0,10,10,10,,,,,,,,,,,,,,,,,,,,,,,,,,,,,,,1,1,226.66061209999316,251.12500010000076,None,['1'],1,[0.045242799998959526],251.12500010000076,None,,,,,,001,2022_Nov_17_2325,TMT_fmri,2021.2.3,59.96591537769307,
C5,104:130,12,['3'],3,TMTstop-control_1_5linestimulus9.png,TMTstop-control_1_5greenlinestimulus9.png,TMTstop-control_1_5redlinestimulus9.png,TMT_Control,C5,112,None,4,,,,,,,,,,,,,,,,,,,,,,,,,,,,,,,,,0,0,0,0,0,11,11,11,,,,,,,,,,,,,,,,,,,,,,,,,,,,,,,1,1,226.7806125999923,251.24146599999222,None,['3'],1,[0.04959239999880083],251.24146599999222,None,,,,,,001,2022_Nov_17_2325,TMT_fmri,2021.2.3,59.96591537769307,
C5,104:130,13,['2'],2,TMTstop-control_1_5linestimulus10.png,TMTstop-control_1_5greenlinestimulus10.png,TMTstop-control_1_5redlinestimulus10.png,TMT_Control,C5,113,None,4,,,,,,,,,,,,,,,,,,,,,,,,,,,,,,,,,0,0,0,0,0,12,12,12,,,,,,,,,,,,,,,,,,,,,,,,,,,,,,,1,1,226.83762330000172,251.35175180000078,None,['2'],1,[-0.005449900010717101],251.35175180000078,None,,,,,,001,2022_Nov_17_2325,TMT_fmri,2021.2.3,59.96591537769307,
C5,104:130,14,['3'],3,TMTstop-control_1_5linestimulus11.png,TMTstop-control_1_5greenlinestimulus11.png,TMTstop-control_1_5redlinestimulus11.png,TMT_Control,C5,114,None,4,,,,,,,,,,,,,,,,,,,,,,,,,,,,,,,,,0,0,0,0,0,13,13,13,,,,,,,,,,,,,,,,,,,,,,,,,,,,,,,1,1,,251.41820390000066,None,['1'],0,[0.02620049999677576],251.41820390000066,None,,,,,,001,2022_Nov_17_2325,TMT_fmri,2021.2.3,59.96591537769307,
C5,104:130,15,['1'],1,TMTstop-control_1_5linestimulus12.png,TMTstop-control_1_5greenlinestimulus12.png,TMTstop-control_1_5redlinestimulus12.png,TMT_Control,C5,115,None,4,,,,,,,,,,,,,,,,,,,,,,,,,,,,,,,,,0,0,0,0,0,14,14,14,,,,,,,,,,,,,,,,,,,,,,,,,,,,,,,0,0,,292.36186476000586,None,None,0,,292.36186476000586,None,,,,,,001,2022_Nov_17_2325,TMT_fmri,2021.2.3,59.96591537769307,
C5,104:130,16,['2'],2,TMTstop-control_1_5linestimulus13.png,TMTstop-control_1_5greenlinestimulus13.png,TMTstop-control_1_5redlinestimulus13.png,TMT_Control,C5,116,None,4,,,,,,,,,,,,,,,,,,,,,,,,,,,,,,,,,0,0,0,0,0,15,15,15,,,,,,,,,,,,,,,,,,,,,,,,,,,,,,,0,0,,292.39522134000725,None,None,0,,292.39522134000725,None,,,,,,001,2022_Nov_17_2325,TMT_fmri,2021.2.3,59.96591537769307,
C5,104:130,17,['3'],3,TMTstop-control_1_5linestimulus14.png,TMTstop-control_1_5greenlinestimulus14.png,TMTstop-control_1_5redlinestimulus14.png,TMT_Control,C5,117,None,4,,,,,,,,,,,,,,,,,,,,,,,,,,,,,,,,,0,0,0,0,0,16,16,16,,,,,,,,,,,,,,,,,,,,,,,,,,,,,,,0,0,,292.42857792000865,None,None,0,,292.42857792000865,None,,,,,,001,2022_Nov_17_2325,TMT_fmri,2021.2.3,59.96591537769307,
C5,104:130,18,['1'],1,TMTstop-control_1_5linestimulus15.png,TMTstop-control_1_5greenlinestimulus15.png,TMTstop-control_1_5redlinestimulus15.png,TMT_Control,C5,118,None,4,,,,,,,,,,,,,,,,,,,,,,,,,,,,,,,,,0,0,0,0,0,17,17,17,,,,,,,,,,,,,,,,,,,,,,,,,,,,,,,0,0,,292.4619345000101,None,None,0,,292.4619345000101,None,,,,,,001,2022_Nov_17_2325,TMT_fmri,2021.2.3,59.96591537769307,
C5,104:130,19,['2'],2,TMTstop-control_1_5linestimulus16.png,TMTstop-control_1_5greenlinestimulus16.png,TMTstop-control_1_5redlinestimulus16.png,TMT_Control,C5,119,None,4,,,,,,,,,,,,,,,,,,,,,,,,,,,,,,,,,0,0,0,0,0,18,18,18,,,,,,,,,,,,,,,,,,,,,,,,,,,,,,,0,0,,292.4952910800115,None,None,0,,292.4952910800115,None,,,,,,001,2022_Nov_17_2325,TMT_fmri,2021.2.3,59.96591537769307,
C5,104:130,20,['1'],1,TMTstop-control_1_5linestimulus17.png,TMTstop-control_1_5greenlinestimulus17.png,TMTstop-control_1_5redlinestimulus17.png,TMT_Control,C5,120,None,4,,,,,,,,,,,,,,,,,,,,,,,,,,,,,,,,,0,0,0,0,0,19,19,19,,,,,,,,,,,,,,,,,,,,,,,,,,,,,,,0,0,,292.52864766001295,None,None,0,,292.52864766001295,None,,,,,,001,2022_Nov_17_2325,TMT_fmri,2021.2.3,59.96591537769307,
C5,104:130,21,['2'],2,TMTstop-control_1_5linestimulus18.png,TMTstop-control_1_5greenlinestimulus18.png,TMTstop-control_1_5redlinestimulus18.png,TMT_Control,C5,121,None,4,,,,,,,,,,,,,,,,,,,,,,,,,,,,,,,,,0,0,0,0,0,20,20,20,,,,,,,,,,,,,,,,,,,,,,,,,,,,,,,0,0,,292.56200424001435,None,None,0,,292.56200424001435,None,,,,,,001,2022_Nov_17_2325,TMT_fmri,2021.2.3,59.96591537769307,
C5,104:130,22,['1'],1,TMTstop-control_1_5linestimulus19.png,TMTstop-control_1_5greenlinestimulus19.png,TMTstop-control_1_5redlinestimulus19.png,TMT_Control,C5,122,None,4,,,,,,,,,,,,,,,,,,,,,,,,,,,,,,,,,0,0,0,0,0,21,21,21,,,,,,,,,,,,,,,,,,,,,,,,,,,,,,,0,0,,292.59536082001574,None,None,0,,292.59536082001574,None,,,,,,001,2022_Nov_17_2325,TMT_fmri,2021.2.3,59.96591537769307,
C5,104:130,23,['3'],3,TMTstop-control_1_5linestimulus20.png,TMTstop-control_1_5greenlinestimulus20.png,TMTstop-control_1_5redlinestimulus20.png,TMT_Control,C5,123,None,4,,,,,,,,,,,,,,,,,,,,,,,,,,,,,,,,,0,0,0,0,0,22,22,22,,,,,,,,,,,,,,,,,,,,,,,,,,,,,,,0,0,,292.6287174000172,None,None,0,,292.6287174000172,None,,,,,,001,2022_Nov_17_2325,TMT_fmri,2021.2.3,59.96591537769307,
C5,104:130,24,['1'],1,TMTstop-control_1_5linestimulus21.png,TMTstop-control_1_5greenlinestimulus21.png,TMTstop-control_1_5redlinestimulus21.png,TMT_Control,C5,124,None,4,,,,,,,,,,,,,,,,,,,,,,,,,,,,,,,,,0,0,0,0,0,23,23,23,,,,,,,,,,,,,,,,,,,,,,,,,,,,,,,0,0,,292.6620739800186,None,None,0,,292.6620739800186,None,,,,,,001,2022_Nov_17_2325,TMT_fmri,2021.2.3,59.96591537769307,
C5,104:130,25,['3'],3,TMTstop-control_1_5linestimulus22.png,TMTstop-control_1_5greenlinestimulus22.png,TMTstop-control_1_5redlinestimulus22.png,TMT_Control,C5,125,None,4,,,,,,,,,,,,,,,,,,,,,,,,,,,,,,,,,0,0,0,0,0,24,24,24,,,,,,,,,,,,,,,,,,,,,,,,,,,,,,,0,0,,292.6787522700193,None,None,0,,292.6787522700193,None,,,,,,001,2022_Nov_17_2325,TMT_fmri,2021.2.3,59.96591537769307,
C5,104:130,None,None,None,TMTstop-control_1_5linestimulus23.png,TMTstop-control_1_5greenlinestimulus23.png,TMTstop-control_1_5redlinestimulus23.png,TMT_Control,C5,Feedback_last,None,4,,,,,,,,,,,,,,,,,,,,,,,,,,,,,,,,,0,0,0,0,0,25,25,25,,,,,,,,,,,,,,,,,,,,,,,,,,,,,,,0,0,,292.71210885002074,None,None,1,,292.71210885002074,None,,,,,,001,2022_Nov_17_2325,TMT_fmri,2021.2.3,59.96591537769307,
C6,130:156,1,['3'],3,TMTstop-control_1_6.png,TMTstop-control_1_6.png,TMTstop-control_1_6.png,TMT_Control,C6,126,None,4,,,,,,,,,,,,,,,,,,,,,,,,,,,,,,,,,0,1,1,1,0,0,0,0,,,,,,,,,,,,,,,,,,,,,,,,,,,,,,,0,0,,294.97653338000816,None,None,0,,294.97653338000816,None,,,,,,001,2022_Nov_17_2325,TMT_fmri,2021.2.3,59.96591537769307,
C6,130:156,2,['2'],2,TMTstop-control_1_6.png,TMTstop-control_1_6firstgreen.png,TMTstop-control_1_6firstred.png,TMT_Control,C6,127,None,4,,,,,,,,,,,,,,,,,,,,,,,,,,,,,,,,,0,1,1,1,0,1,1,1,,,,,,,,,,,,,,,,,,,,,,,,,,,,,,,0,0,,295.0265682500103,None,None,0,,295.0265682500103,None,,,,,,001,2022_Nov_17_2325,TMT_fmri,2021.2.3,59.96591537769307,
C6,130:156,3,['1'],1,TMTstop-control_1_6linestimulus0.png,TMTstop-control_1_6greenlinestimulus0.png,TMTstop-control_1_6redlinestimulus0.png,TMT_Control,C6,128,None,4,,,,,,,,,,,,,,,,,,,,,,,,,,,,,,,,,0,1,1,1,0,2,2,2,,,,,,,,,,,,,,,,,,,,,,,,,,,,,,,0,0,,295.0599248300117,None,None,0,,295.0599248300117,None,,,,,,001,2022_Nov_17_2325,TMT_fmri,2021.2.3,59.96591537769307,
C6,130:156,4,['2'],2,TMTstop-control_1_6linestimulus1.png,TMTstop-control_1_6greenlinestimulus1.png,TMTstop-control_1_6redlinestimulus1.png,TMT_Control,C6,129,None,4,,,,,,,,,,,,,,,,,,,,,,,,,,,,,,,,,0,1,1,1,0,3,3,3,,,,,,,,,,,,,,,,,,,,,,,,,,,,,,,0,0,,295.09328141001316,None,None,0,,295.09328141001316,None,,,,,,001,2022_Nov_17_2325,TMT_fmri,2021.2.3,59.96591537769307,
C6,130:156,5,['3'],3,TMTstop-control_1_6linestimulus2.png,TMTstop-control_1_6greenlinestimulus2.png,TMTstop-control_1_6redlinestimulus2.png,TMT_Control,C6,130,None,4,,,,,,,,,,,,,,,,,,,,,,,,,,,,,,,,,0,1,1,1,0,4,4,4,,,,,,,,,,,,,,,,,,,,,,,,,,,,,,,0,0,,295.14331628001526,None,None,0,,295.14331628001526,None,,,,,,001,2022_Nov_17_2325,TMT_fmri,2021.2.3,59.96591537769307,
C6,130:156,6,['2'],2,TMTstop-control_1_6linestimulus3.png,TMTstop-control_1_6greenlinestimulus3.png,TMTstop-control_1_6redlinestimulus3.png,TMT_Control,C6,131,None,4,,,,,,,,,,,,,,,,,,,,,,,,,,,,,,,,,0,1,1,1,0,5,5,5,,,,,,,,,,,,,,,,,,,,,,,,,,,,,,,0,0,,295.1766728600167,None,None,0,,295.1766728600167,None,,,,,,001,2022_Nov_17_2325,TMT_fmri,2021.2.3,59.96591537769307,
C6,130:156,7,['1'],1,TMTstop-control_1_6linestimulus4.png,TMTstop-control_1_6greenlinestimulus4.png,TMTstop-control_1_6redlinestimulus4.png,TMT_Control,C6,132,None,4,,,,,,,,,,,,,,,,,,,,,,,,,,,,,,,,,0,1,1,1,0,6,6,6,,,,,,,,,,,,,,,,,,,,,,,,,,,,,,,0,0,,295.2100294400181,None,None,0,,295.2100294400181,None,,,,,,001,2022_Nov_17_2325,TMT_fmri,2021.2.3,59.96591537769307,
C6,130:156,8,['3'],3,TMTstop-control_1_6linestimulus4.png,TMTstop-control_1_6greenlinestimulus5.png,TMTstop-control_1_6redlinestimulus5.png,TMT_Control,C6,133,None,4,,,,,,,,,,,,,,,,,,,,,,,,,,,,,,,,,0,1,1,1,0,7,7,7,,,,,,,,,,,,,,,,,,,,,,,,,,,,,,,0,0,,295.2433860200195,None,None,0,,295.2433860200195,None,,,,,,001,2022_Nov_17_2325,TMT_fmri,2021.2.3,59.96591537769307,
C6,130:156,9,['2'],2,TMTstop-control_1_6linestimulus6.png,TMTstop-control_1_6greenlinestimulus6.png,TMTstop-control_1_6redlinestimulus6.png,TMT_Control,C6,134,None,4,,,,,,,,,,,,,,,,,,,,,,,,,,,,,,,,,0,1,1,1,0,8,8,8,,,,,,,,,,,,,,,,,,,,,,,,,,,,,,,0,0,,295.29342089002165,None,None,0,,295.29342089002165,None,,,,,,001,2022_Nov_17_2325,TMT_fmri,2021.2.3,59.96591537769307,
C6,130:156,10,['1'],1,TMTstop-control_1_6linestimulus7.png,TMTstop-control_1_6greenlinestimulus7.png,TMTstop-control_1_6redlinestimulus7.png,TMT_Control,C6,135,None,4,,,,,,,,,,,,,,,,,,,,,,,,,,,,,,,,,0,1,1,1,0,9,9,9,,,,,,,,,,,,,,,,,,,,,,,,,,,,,,,0,0,,295.32677747002305,None,None,0,,295.32677747002305,None,,,,,,001,2022_Nov_17_2325,TMT_fmri,2021.2.3,59.96591537769307,
C6,130:156,11,['2'],2,TMTstop-control_1_6linestimulus8.png,TMTstop-control_1_6greenlinestimulus8.png,TMTstop-control_1_6redlinestimulus8.png,TMT_Control,C6,136,None,4,,,,,,,,,,,,,,,,,,,,,,,,,,,,,,,,,0,1,1,1,0,10,10,10,,,,,,,,,,,,,,,,,,,,,,,,,,,,,,,0,0,,295.3768123400252,None,None,0,,295.3768123400252,None,,,,,,001,2022_Nov_17_2325,TMT_fmri,2021.2.3,59.96591537769307,
C6,130:156,12,['3'],3,TMTstop-control_1_6linestimulus9.png,TMTstop-control_1_6greenlinestimulus9.png,TMTstop-control_1_6redlinestimulus9.png,TMT_Control,C6,137,None,4,,,,,,,,,,,,,,,,,,,,,,,,,,,,,,,,,0,1,1,1,0,11,11,11,,,,,,,,,,,,,,,,,,,,,,,,,,,,,,,0,0,,295.4101689200266,None,None,0,,295.4101689200266,None,,,,,,001,2022_Nov_17_2325,TMT_fmri,2021.2.3,59.96591537769307,
C6,130:156,13,['1'],1,TMTstop-control_1_6linestimulus10.png,TMTstop-control_1_6greenlinestimulus10.png,TMTstop-control_1_6redlinestimulus10.png,TMT_Control,C6,138,None,4,,,,,,,,,,,,,,,,,,,,,,,,,,,,,,,,,0,1,1,1,0,12,12,12,,,,,,,,,,,,,,,,,,,,,,,,,,,,,,,0,0,,295.44352550002804,None,None,0,,295.44352550002804,None,,,,,,001,2022_Nov_17_2325,TMT_fmri,2021.2.3,59.96591537769307,
C6,130:156,14,['3'],3,TMTstop-control_1_6linestimulus11.png,TMTstop-control_1_6greenlinestimulus11.png,TMTstop-control_1_6redlinestimulus11.png,TMT_Control,C6,139,None,4,,,,,,,,,,,,,,,,,,,,,,,,,,,,,,,,,0,1,1,1,0,13,13,13,,,,,,,,,,,,,,,,,,,,,,,,,,,,,,,0,0,,295.47688208002944,None,None,0,,295.47688208002944,None,,,,,,001,2022_Nov_17_2325,TMT_fmri,2021.2.3,59.96591537769307,
C6,130:156,15,['2'],2,TMTstop-control_1_6linestimulus12.png,TMTstop-control_1_6greenlinestimulus12.png,TMTstop-control_1_6redlinestimulus12.png,TMT_Control,C6,140,None,4,,,,,,,,,,,,,,,,,,,,,,,,,,,,,,,,,0,1,1,1,0,14,14,14,,,,,,,,,,,,,,,,,,,,,,,,,,,,,,,0,0,,295.5102386600309,None,None,0,,295.5102386600309,None,,,,,,001,2022_Nov_17_2325,TMT_fmri,2021.2.3,59.96591537769307,
C6,130:156,16,['3'],3,TMTstop-control_1_6linestimulus13.png,TMTstop-control_1_6greenlinestimulus13.png,TMTstop-control_1_6redlinestimulus13.png,TMT_Control,C6,141,None,4,,,,,,,,,,,,,,,,,,,,,,,,,,,,,,,,,0,1,1,1,0,15,15,15,,,,,,,,,,,,,,,,,,,,,,,,,,,,,,,0,0,,295.5435952400323,None,None,0,,295.5435952400323,None,,,,,,001,2022_Nov_17_2325,TMT_fmri,2021.2.3,59.96591537769307,
C6,130:156,17,['1'],1,TMTstop-control_1_6linestimulus14.png,TMTstop-control_1_6greenlinestimulus14.png,TMTstop-control_1_6redlinestimulus14.png,TMT_Control,C6,142,None,4,,,,,,,,,,,,,,,,,,,,,,,,,,,,,,,,,0,1,1,1,0,16,16,16,,,,,,,,,,,,,,,,,,,,,,,,,,,,,,,0,0,,295.5769518200337,None,None,0,,295.5769518200337,None,,,,,,001,2022_Nov_17_2325,TMT_fmri,2021.2.3,59.96591537769307,
C6,130:156,18,['2'],2,TMTstop-control_1_6linestimulus15.png,TMTstop-control_1_6greenlinestimulus15.png,TMTstop-control_1_6redlinestimulus15.png,TMT_Control,C6,143,None,4,,,,,,,,,,,,,,,,,,,,,,,,,,,,,,,,,0,1,1,1,0,17,17,17,,,,,,,,,,,,,,,,,,,,,,,,,,,,,,,0,0,,295.61030840003514,None,None,0,,295.61030840003514,None,,,,,,001,2022_Nov_17_2325,TMT_fmri,2021.2.3,59.96591537769307,
C6,130:156,19,['3'],3,TMTstop-control_1_6linestimulus16.png,TMTstop-control_1_6greenlinestimulus16.png,TMTstop-control_1_6redlinestimulus16.png,TMT_Control,C6,144,None,4,,,,,,,,,,,,,,,,,,,,,,,,,,,,,,,,,0,1,1,1,0,18,18,18,,,,,,,,,,,,,,,,,,,,,,,,,,,,,,,0,0,,295.64366498003653,None,None,0,,295.64366498003653,None,,,,,,001,2022_Nov_17_2325,TMT_fmri,2021.2.3,59.96591537769307,
C6,130:156,20,['2'],2,TMTstop-control_1_6linestimulus17.png,TMTstop-control_1_6greenlinestimulus17.png,TMTstop-control_1_6redlinestimulus17.png,TMT_Control,C6,145,None,4,,,,,,,,,,,,,,,,,,,,,,,,,,,,,,,,,0,1,1,1,0,19,19,19,,,,,,,,,,,,,,,,,,,,,,,,,,,,,,,0,0,,295.677021560038,None,None,0,,295.677021560038,None,,,,,,001,2022_Nov_17_2325,TMT_fmri,2021.2.3,59.96591537769307,
C6,130:156,21,['1'],1,TMTstop-control_1_6linestimulus18.png,TMTstop-control_1_6greenlinestimulus18.png,TMTstop-control_1_6redlinestimulus18.png,TMT_Control,C6,146,None,4,,,,,,,,,,,,,,,,,,,,,,,,,,,,,,,,,0,1,1,1,0,20,20,20,,,,,,,,,,,,,,,,,,,,,,,,,,,,,,,0,0,,295.7103781400394,None,None,0,,295.7103781400394,None,,,,,,001,2022_Nov_17_2325,TMT_fmri,2021.2.3,59.96591537769307,
C6,130:156,22,['2'],2,TMTstop-control_1_6linestimulus19.png,TMTstop-control_1_6greenlinestimulus19.png,TMTstop-control_1_6redlinestimulus19.png,TMT_Control,C6,147,None,4,,,,,,,,,,,,,,,,,,,,,,,,,,,,,,,,,0,1,1,1,0,21,21,21,,,,,,,,,,,,,,,,,,,,,,,,,,,,,,,0,0,,295.7437347200408,None,None,0,,295.7437347200408,None,,,,,,001,2022_Nov_17_2325,TMT_fmri,2021.2.3,59.96591537769307,
C6,130:156,23,['1'],1,TMTstop-control_1_6linestimulus20.png,TMTstop-control_1_6greenlinestimulus20.png,TMTstop-control_1_6redlinestimulus20.png,TMT_Control,C6,148,None,4,,,,,,,,,,,,,,,,,,,,,,,,,,,,,,,,,0,1,1,1,0,22,22,22,,,,,,,,,,,,,,,,,,,,,,,,,,,,,,,0,0,,295.77709130004223,None,None,0,,295.77709130004223,None,,,,,,001,2022_Nov_17_2325,TMT_fmri,2021.2.3,59.96591537769307,
C6,130:156,24,['2'],2,TMTstop-control_1_6linestimulus21.png,TMTstop-control_1_6greenlinestimulus21.png,TMTstop-control_1_6redlinestimulus21.png,TMT_Control,C6,149,None,4,,,,,,,,,,,,,,,,,,,,,,,,,,,,,,,,,0,1,1,1,0,23,23,23,,,,,,,,,,,,,,,,,,,,,,,,,,,,,,,0,0,,295.8104478800436,None,None,0,,295.8104478800436,None,,,,,,001,2022_Nov_17_2325,TMT_fmri,2021.2.3,59.96591537769307,
C6,130:156,25,['3'],3,TMTstop-control_1_6linestimulus22.png,TMTstop-control_1_6greenlinestimulus22.png,TMTstop-control_1_6redlinestimulus22.png,TMT_Control,C6,150,None,4,,,,,,,,,,,,,,,,,,,,,,,,,,,,,,,,,0,1,1,1,0,24,24,24,,,,,,,,,,,,,,,,,,,,,,,,,,,,,,,0,0,,295.8438044600451,None,None,0,,295.8438044600451,None,,,,,,001,2022_Nov_17_2325,TMT_fmri,2021.2.3,59.96591537769307,
C6,130:156,None,None,None,TMTstop-control_1_6linestimulus23.png,TMTstop-control_1_6greenlinestimulus23.png,TMTstop-control_1_6redlinestimulus23.png,TMT_Control,C6,Feedback_last,None,4,,,,,,,,,,,,,,,,,,,,,,,,,,,,,,,,,0,1,1,1,0,25,25,25,,,,,,,,,,,,,,,,,,,,,,,,,,,,,,,0,0,,295.8938393300472,None,None,1,,295.8938393300472,None,,,,,,001,2022_Nov_17_2325,TMT_fmri,2021.2.3,59.96591537769307,
A4,286:312,1,['2'],2,TMTstop-A_1_4.png,TMTstop-A_1_4.png,TMTstop-A_1_4.png,TMT_A,A4,76,2,5,,,,,,,,,,,,,,,,,,,,,,,,,,,,,,,,,,,,,,,,,0,0,0,0,0,0,0,0,,,,,,,,,,,,,,,,,,,,,,,0,0,,299.2649905500075,None,None,0,,299.2649905500075,None,,,,,,001,2022_Nov_17_2325,TMT_fmri,2021.2.3,59.96591537769307,
A4,286:312,2,['3'],3,TMTstop-A_1_4.png,TMTstop-A_1_4firstgreen.png,TMTstop-A_1_4firstred.png,TMT_A,A4,77,None,5,,,,,,,,,,,,,,,,,,,,,,,,,,,,,,,,,,,,,,,,,0,0,0,0,0,1,1,1,,,,,,,,,,,,,,,,,,,,,,,0,0,,299.2983471300089,None,None,0,,299.2983471300089,None,,,,,,001,2022_Nov_17_2325,TMT_fmri,2021.2.3,59.96591537769307,
A4,286:312,3,['1'],1,TMTstop-A_1_4linestimulus0.png,TMTstop-A_1_4greenlinestimulus0.png,TMTstop-A_1_4redlinestimulus0.png,TMT_A,A4,78,None,5,,,,,,,,,,,,,,,,,,,,,,,,,,,,,,,,,,,,,,,,,0,0,0,0,0,2,2,2,,,,,,,,,,,,,,,,,,,,,,,0,0,,299.33170371001034,None,None,0,,299.33170371001034,None,,,,,,001,2022_Nov_17_2325,TMT_fmri,2021.2.3,59.96591537769307,
A4,286:312,4,['3'],3,TMTstop-A_1_4linestimulus1.png,TMTstop-A_1_4greenlinestimulus1.png,TMTstop-A_1_4redlinestimulus1.png,TMT_A,A4,79,None,5,,,,,,,,,,,,,,,,,,,,,,,,,,,,,,,,,,,,,,,,,0,0,0,0,0,3,3,3,,,,,,,,,,,,,,,,,,,,,,,0,0,,299.36506029001174,None,None,0,,299.36506029001174,None,,,,,,001,2022_Nov_17_2325,TMT_fmri,2021.2.3,59.96591537769307,
A4,286:312,5,['2'],2,TMTstop-A_1_4linestimulus2.png,TMTstop-A_1_4greenlinestimulus2.png,TMTstop-A_1_4redlinestimulus2.png,TMT_A,A4,80,None,5,,,,,,,,,,,,,,,,,,,,,,,,,,,,,,,,,,,,,,,,,0,0,0,0,0,4,4,4,,,,,,,,,,,,,,,,,,,,,,,0,0,,299.39841687001314,None,None,0,,299.39841687001314,None,,,,,,001,2022_Nov_17_2325,TMT_fmri,2021.2.3,59.96591537769307,
A4,286:312,6,['1'],1,TMTstop-A_1_4linestimulus3.png,TMTstop-A_1_4greenlinestimulus3.png,TMTstop-A_1_4redlinestimulus3.png,TMT_A,A4,81,None,5,,,,,,,,,,,,,,,,,,,,,,,,,,,,,,,,,,,,,,,,,0,0,0,0,0,5,5,5,,,,,,,,,,,,,,,,,,,,,,,0,0,,299.4317734500146,None,None,0,,299.4317734500146,None,,,,,,001,2022_Nov_17_2325,TMT_fmri,2021.2.3,59.96591537769307,
A4,286:312,7,['2'],2,TMTstop-A_1_4linestimulus4.png,TMTstop-A_1_4greenlinestimulus4.png,TMTstop-A_1_4redlinestimulus4.png,TMT_A,A4,82,None,5,,,,,,,,,,,,,,,,,,,,,,,,,,,,,,,,,,,,,,,,,0,0,0,0,0,6,6,6,,,,,,,,,,,,,,,,,,,,,,,0,0,,299.4818083200167,None,None,0,,299.4818083200167,None,,,,,,001,2022_Nov_17_2325,TMT_fmri,2021.2.3,59.96591537769307,
A4,286:312,8,['1'],1,TMTstop-A_1_4linestimulus5.png,TMTstop-A_1_4greenlinestimulus5.png,TMTstop-A_1_4redlinestimulus5.png,TMT_A,A4,83,None,5,,,,,,,,,,,,,,,,,,,,,,,,,,,,,,,,,,,,,,,,,0,0,0,0,0,7,7,7,,,,,,,,,,,,,,,,,,,,,,,0,0,,299.51516490001814,None,None,0,,299.51516490001814,None,,,,,,001,2022_Nov_17_2325,TMT_fmri,2021.2.3,59.96591537769307,
A4,286:312,9,['3'],3,TMTstop-A_1_4linestimulus6.png,TMTstop-A_1_4greenlinestimulus6.png,TMTstop-A_1_4redlinestimulus6.png,TMT_A,A4,84,None,5,,,,,,,,,,,,,,,,,,,,,,,,,,,,,,,,,,,,,,,,,0,0,0,0,0,8,8,8,,,,,,,,,,,,,,,,,,,,,,,0,0,,299.56519977002023,None,None,0,,299.56519977002023,None,,,,,,001,2022_Nov_17_2325,TMT_fmri,2021.2.3,59.96591537769307,
A4,286:312,10,['2'],2,TMTstop-A_1_4linestimulus7.png,TMTstop-A_1_4greenlinestimulus7.png,TMTstop-A_1_4redlinestimulus7.png,TMT_A,A4,85,None,5,,,,,,,,,,,,,,,,,,,,,,,,,,,,,,,,,,,,,,,,,0,0,0,0,0,9,9,9,,,,,,,,,,,,,,,,,,,,,,,0,0,,299.6152346400224,None,None,0,,299.6152346400224,None,,,,,,001,2022_Nov_17_2325,TMT_fmri,2021.2.3,59.96591537769307,
A4,286:312,11,['3'],3,TMTstop-A_1_4linestimulus8.png,TMTstop-A_1_4greenlinestimulus8.png,TMTstop-A_1_4redlinestimulus8.png,TMT_A,A4,86,None,5,,,,,,,,,,,,,,,,,,,,,,,,,,,,,,,,,,,,,,,,,0,0,0,0,0,10,10,10,,,,,,,,,,,,,,,,,,,,,,,0,0,,299.6485912200238,None,None,0,,299.6485912200238,None,,,,,,001,2022_Nov_17_2325,TMT_fmri,2021.2.3,59.96591537769307,
A4,286:312,12,['1'],1,TMTstop-A_1_4linestimulus9.png,TMTstop-A_1_4greenlinestimulus9.png,TMTstop-A_1_4redlinestimulus9.png,TMT_A,A4,87,None,5,,,,,,,,,,,,,,,,,,,,,,,,,,,,,,,,,,,,,,,,,0,0,0,0,0,11,11,11,,,,,,,,,,,,,,,,,,,,,,,0,0,,299.6819478000252,None,None,0,,299.6819478000252,None,,,,,,001,2022_Nov_17_2325,TMT_fmri,2021.2.3,59.96591537769307,
A4,286:312,13,['3'],3,TMTstop-A_1_4linestimulus10.png,TMTstop-A_1_4greenlinestimulus10.png,TMTstop-A_1_4redlinestimulus10.png,TMT_A,A4,88,None,5,,,,,,,,,,,,,,,,,,,,,,,,,,,,,,,,,,,,,,,,,0,0,0,0,0,12,12,12,,,,,,,,,,,,,,,,,,,,,,,0,0,,299.7153043800266,None,None,0,,299.7153043800266,None,,,,,,001,2022_Nov_17_2325,TMT_fmri,2021.2.3,59.96591537769307,
A4,286:312,14,['1'],1,TMTstop-A_1_4linestimulus11.png,TMTstop-A_1_4greenlinestimulus11.png,TMTstop-A_1_4redlinestimulus11.png,TMT_A,A4,89,None,5,,,,,,,,,,,,,,,,,,,,,,,,,,,,,,,,,,,,,,,,,0,0,0,0,0,13,13,13,,,,,,,,,,,,,,,,,,,,,,,0,0,,299.7486609600281,None,None,0,,299.7486609600281,None,,,,,,001,2022_Nov_17_2325,TMT_fmri,2021.2.3,59.96591537769307,
A4,286:312,15,['2'],2,TMTstop-A_1_4linestimulus12.png,TMTstop-A_1_4greenlinestimulus12.png,TMTstop-A_1_4redlinestimulus12.png,TMT_A,A4,90,None,5,,,,,,,,,,,,,,,,,,,,,,,,,,,,,,,,,,,,,,,,,0,0,0,0,0,14,14,14,,,,,,,,,,,,,,,,,,,,,,,0,0,,299.78201754002947,None,None,0,,299.78201754002947,None,,,,,,001,2022_Nov_17_2325,TMT_fmri,2021.2.3,59.96591537769307,
A4,286:312,16,['1'],1,TMTstop-A_1_4linestimulus13.png,TMTstop-A_1_4greenlinestimulus13.png,TMTstop-A_1_4redlinestimulus13.png,TMT_A,A4,91,None,5,,,,,,,,,,,,,,,,,,,,,,,,,,,,,,,,,,,,,,,,,0,0,0,0,0,15,15,15,,,,,,,,,,,,,,,,,,,,,,,0,0,,299.81537412003087,None,None,0,,299.81537412003087,None,,,,,,001,2022_Nov_17_2325,TMT_fmri,2021.2.3,59.96591537769307,
A4,286:312,17,['3'],3,TMTstop-A_1_4linestimulus14.png,TMTstop-A_1_4greenlinestimulus14.png,TMTstop-A_1_4redlinestimulus14.png,TMT_A,A4,92,None,5,,,,,,,,,,,,,,,,,,,,,,,,,,,,,,,,,,,,,,,,,0,0,0,0,0,16,16,16,,,,,,,,,,,,,,,,,,,,,,,0,0,,299.8487307000323,None,None,0,,299.8487307000323,None,,,,,,001,2022_Nov_17_2325,TMT_fmri,2021.2.3,59.96591537769307,
A4,286:312,18,['2'],2,TMTstop-A_1_4linestimulus15.png,TMTstop-A_1_4greenlinestimulus15.png,TMTstop-A_1_4redlinestimulus15.png,TMT_A,A4,93,None,5,,,,,,,,,,,,,,,,,,,,,,,,,,,,,,,,,,,,,,,,,0,0,0,0,0,17,17,17,,,,,,,,,,,,,,,,,,,,,,,0,0,,299.8820872800337,None,None,0,,299.8820872800337,None,,,,,,001,2022_Nov_17_2325,TMT_fmri,2021.2.3,59.96591537769307,
A4,286:312,19,['3'],3,TMTstop-A_1_4linestimulus16.png,TMTstop-A_1_4greenlinestimulus16.png,TMTstop-A_1_4redlinestimulus16.png,TMT_A,A4,94,None,5,,,,,,,,,,,,,,,,,,,,,,,,,,,,,,,,,,,,,,,,,0,0,0,0,0,18,18,18,,,,,,,,,,,,,,,,,,,,,,,0,0,,299.91544386003517,None,None,0,,299.91544386003517,None,,,,,,001,2022_Nov_17_2325,TMT_fmri,2021.2.3,59.96591537769307,
A4,286:312,20,['2'],2,TMTstop-A_1_4linestimulus17.png,TMTstop-A_1_4greenlinestimulus17.png,TMTstop-A_1_4redlinestimulus17.png,TMT_A,A4,95,None,5,,,,,,,,,,,,,,,,,,,,,,,,,,,,,,,,,,,,,,,,,0,0,0,0,0,19,19,19,,,,,,,,,,,,,,,,,,,,,,,0,0,,299.94880044003656,None,None,0,,299.94880044003656,None,,,,,,001,2022_Nov_17_2325,TMT_fmri,2021.2.3,59.96591537769307,
A4,286:312,21,['1'],1,TMTstop-A_1_4linestimulus18.png,TMTstop-A_1_4greenlinestimulus18.png,TMTstop-A_1_4redlinestimulus18.png,TMT_A,A4,96,None,5,,,,,,,,,,,,,,,,,,,,,,,,,,,,,,,,,,,,,,,,,0,0,0,0,0,20,20,20,,,,,,,,,,,,,,,,,,,,,,,0,0,,299.98215702003796,None,None,0,,299.98215702003796,None,,,,,,001,2022_Nov_17_2325,TMT_fmri,2021.2.3,59.96591537769307,
A4,286:312,22,['3'],3,TMTstop-A_1_4linestimulus19.png,TMTstop-A_1_4greenlinestimulus19.png,TMTstop-A_1_4redlinestimulus19.png,TMT_A,A4,97,None,5,,,,,,,,,,,,,,,,,,,,,,,,,,,,,,,,,,,,,,,,,0,0,0,0,0,21,21,21,,,,,,,,,,,,,,,,,,,,,,,0,0,,300.0155136000394,None,None,0,,300.0155136000394,None,,,,,,001,2022_Nov_17_2325,TMT_fmri,2021.2.3,59.96591537769307,
A4,286:312,23,['1'],1,TMTstop-A_1_4linestimulus20.png,TMTstop-A_1_4greenlinestimulus20.png,TMTstop-A_1_4redlinestimulus20.png,TMT_A,A4,98,None,5,,,,,,,,,,,,,,,,,,,,,,,,,,,,,,,,,,,,,,,,,0,0,0,0,0,22,22,22,,,,,,,,,,,,,,,,,,,,,,,0,0,,300.0488701800408,None,None,0,,300.0488701800408,None,,,,,,001,2022_Nov_17_2325,TMT_fmri,2021.2.3,59.96591537769307,
A4,286:312,24,['2'],2,TMTstop-A_1_4linestimulus21.png,TMTstop-A_1_4greenlinestimulus21.png,TMTstop-A_1_4redlinestimulus21.png,TMT_A,A4,99,None,5,,,,,,,,,,,,,,,,,,,,,,,,,,,,,,,,,,,,,,,,,0,0,0,0,0,23,23,23,,,,,,,,,,,,,,,,,,,,,,,0,0,,300.08222676004226,None,None,0,,300.08222676004226,None,,,,,,001,2022_Nov_17_2325,TMT_fmri,2021.2.3,59.96591537769307,
A4,286:312,25,['3'],3,TMTstop-A_1_4linestimulus22.png,TMTstop-A_1_4greenlinestimulus22.png,TMTstop-A_1_4redlinestimulus22.png,TMT_A,A4,100,None,5,,,,,,,,,,,,,,,,,,,,,,,,,,,,,,,,,,,,,,,,,0,0,0,0,0,24,24,24,,,,,,,,,,,,,,,,,,,,,,,0,0,,300.11558334004366,None,None,0,,300.11558334004366,None,,,,,,001,2022_Nov_17_2325,TMT_fmri,2021.2.3,59.96591537769307,
A4,286:312,None,None,None,TMTstop-A_1_4linestimulus23.png,TMTstop-A_1_4greenlinestimulus23.png,TMTstop-A_1_4redlinestimulus23.png,TMT_A,A4,Feedback_last,None,5,,,,,,,,,,,,,,,,,,,,,,,,,,,,,,,,,,,,,,,,,0,0,0,0,0,25,25,25,,,,,,,,,,,,,,,,,,,,,,,0,0,,300.14893992004505,None,None,1,,300.14893992004505,None,,,,,,001,2022_Nov_17_2325,TMT_fmri,2021.2.3,59.96591537769307,
A5,312:338,1,['2'],2,TMTstop-A_1_5.png,TMTstop-A_1_5.png,TMTstop-A_1_5.png,TMT_A,A5,101,None,5,,,,,,,,,,,,,,,,,,,,,,,,,,,,,,,,,,,,,,,,,0,1,1,1,0,0,0,0,,,,,,,,,,,,,,,,,,,,,,,0,0,,303.4237482400087,None,None,0,,303.4237482400087,None,,,,,,001,2022_Nov_17_2325,TMT_fmri,2021.2.3,59.96591537769307,
A5,312:338,2,['1'],1,TMTstop-A_1_5.png,TMTstop-A_1_5firstgreen.png,TMTstop-A_1_5firstred.png,TMT_A,A5,102,None,5,,,,,,,,,,,,,,,,,,,,,,,,,,,,,,,,,,,,,,,,,0,1,1,1,0,1,1,1,,,,,,,,,,,,,,,,,,,,,,,0,0,,303.47378311001086,None,None,0,,303.47378311001086,None,,,,,,001,2022_Nov_17_2325,TMT_fmri,2021.2.3,59.96591537769307,
A5,312:338,3,['3'],3,TMTstop-A_1_5linestimulus0.png,TMTstop-A_1_5greenlinestimulus0.png,TMTstop-A_1_5redlinestimulus0.png,TMT_A,A5,103,None,5,,,,,,,,,,,,,,,,,,,,,,,,,,,,,,,,,,,,,,,,,0,1,1,1,0,2,2,2,,,,,,,,,,,,,,,,,,,,,,,0,0,,303.50713969001225,None,None,0,,303.50713969001225,None,,,,,,001,2022_Nov_17_2325,TMT_fmri,2021.2.3,59.96591537769307,
A5,312:338,4,['1'],1,TMTstop-A_1_5linestimulus1.png,TMTstop-A_1_5greenlinestimulus1.png,TMTstop-A_1_5redlinestimulus1.png,TMT_A,A5,104,None,5,,,,,,,,,,,,,,,,,,,,,,,,,,,,,,,,,,,,,,,,,0,1,1,1,0,3,3,3,,,,,,,,,,,,,,,,,,,,,,,0,0,,303.54049627001365,None,None,0,,303.54049627001365,None,,,,,,001,2022_Nov_17_2325,TMT_fmri,2021.2.3,59.96591537769307,
A5,312:338,5,['2'],2,TMTstop-A_1_5linestimulus2.png,TMTstop-A_1_5greenlinestimulus2.png,TMTstop-A_1_5redlinestimulus2.png,TMT_A,A5,105,None,5,,,,,,,,,,,,,,,,,,,,,,,,,,,,,,,,,,,,,,,,,0,1,1,1,0,4,4,4,,,,,,,,,,,,,,,,,,,,,,,0,0,,303.5738528500151,None,None,0,,303.5738528500151,None,,,,,,001,2022_Nov_17_2325,TMT_fmri,2021.2.3,59.96591537769307,
A5,312:338,6,['1'],1,TMTstop-A_1_5linestimulus3.png,TMTstop-A_1_5greenlinestimulus3.png,TMTstop-A_1_5redlinestimulus3.png,TMT_A,A5,106,None,5,,,,,,,,,,,,,,,,,,,,,,,,,,,,,,,,,,,,,,,,,0,1,1,1,0,5,5,5,,,,,,,,,,,,,,,,,,,,,,,0,0,,303.6072094300165,None,None,0,,303.6072094300165,None,,,,,,001,2022_Nov_17_2325,TMT_fmri,2021.2.3,59.96591537769307,
A5,312:338,7,['3'],3,TMTstop-A_1_5linestimulus4.png,TMTstop-A_1_5greenlinestimulus4.png,TMTstop-A_1_5redlinestimulus4.png,TMT_A,A5,107,None,5,,,,,,,,,,,,,,,,,,,,,,,,,,,,,,,,,,,,,,,,,0,1,1,1,0,6,6,6,,,,,,,,,,,,,,,,,,,,,,,0,0,,303.64056601001795,None,None,0,,303.64056601001795,None,,,,,,001,2022_Nov_17_2325,TMT_fmri,2021.2.3,59.96591537769307,
A5,312:338,8,['2'],2,TMTstop-A_1_5linestimulus5.png,TMTstop-A_1_5greenlinestimulus5.png,TMTstop-A_1_5redlinestimulus5.png,TMT_A,A5,108,None,5,,,,,,,,,,,,,,,,,,,,,,,,,,,,,,,,,,,,,,,,,0,1,1,1,0,7,7,7,,,,,,,,,,,,,,,,,,,,,,,0,0,,303.67392259001934,None,None,0,,303.67392259001934,None,,,,,,001,2022_Nov_17_2325,TMT_fmri,2021.2.3,59.96591537769307,
A5,312:338,9,['3'],3,TMTstop-A_1_5linestimulus6.png,TMTstop-A_1_5greenlinestimulus6.png,TMTstop-A_1_5redlinestimulus6.png,TMT_A,A5,109,None,5,,,,,,,,,,,,,,,,,,,,,,,,,,,,,,,,,,,,,,,,,0,1,1,1,0,8,8,8,,,,,,,,,,,,,,,,,,,,,,,0,0,,303.7239574600215,None,None,0,,303.7239574600215,None,,,,,,001,2022_Nov_17_2325,TMT_fmri,2021.2.3,59.96591537769307,
A5,312:338,10,['1'],1,TMTstop-A_1_5linestimulus7.png,TMTstop-A_1_5greenlinestimulus7.png,TMTstop-A_1_5redlinestimulus7.png,TMT_A,A5,110,None,5,,,,,,,,,,,,,,,,,,,,,,,,,,,,,,,,,,,,,,,,,0,1,1,1,0,9,9,9,,,,,,,,,,,,,,,,,,,,,,,0,0,,303.7573140400229,None,None,0,,303.7573140400229,None,,,,,,001,2022_Nov_17_2325,TMT_fmri,2021.2.3,59.96591537769307,
A5,312:338,11,['3'],3,TMTstop-A_1_5linestimulus8.png,TMTstop-A_1_5greenlinestimulus8.png,TMTstop-A_1_5redlinestimulus8.png,TMT_A,A5,111,None,5,,,,,,,,,,,,,,,,,,,,,,,,,,,,,,,,,,,,,,,,,0,1,1,1,0,10,10,10,,,,,,,,,,,,,,,,,,,,,,,0,0,,303.7906706200243,None,None,0,,303.7906706200243,None,,,,,,001,2022_Nov_17_2325,TMT_fmri,2021.2.3,59.96591537769307,
A5,312:338,12,['2'],2,TMTstop-A_1_5linestimulus9.png,TMTstop-A_1_5greenlinestimulus9.png,TMTstop-A_1_5redlinestimulus9.png,TMT_A,A5,112,None,5,,,,,,,,,,,,,,,,,,,,,,,,,,,,,,,,,,,,,,,,,0,1,1,1,0,11,11,11,,,,,,,,,,,,,,,,,,,,,,,0,0,,303.82402720002574,None,None,0,,303.82402720002574,None,,,,,,001,2022_Nov_17_2325,TMT_fmri,2021.2.3,59.96591537769307,
A5,312:338,13,['3'],3,TMTstop-A_1_5linestimulus10.png,TMTstop-A_1_5greenlinestimulus10.png,TMTstop-A_1_5redlinestimulus10.png,TMT_A,A5,113,None,5,,,,,,,,,,,,,,,,,,,,,,,,,,,,,,,,,,,,,,,,,0,1,1,1,0,12,12,12,,,,,,,,,,,,,,,,,,,,,,,0,0,,303.85738378002713,None,None,0,,303.85738378002713,None,,,,,,001,2022_Nov_17_2325,TMT_fmri,2021.2.3,59.96591537769307,
A5,312:338,14,['2'],2,TMTstop-A_1_5linestimulus11.png,TMTstop-A_1_5greenlinestimulus11.png,TMTstop-A_1_5redlinestimulus11.png,TMT_A,A5,114,None,5,,,,,,,,,,,,,,,,,,,,,,,,,,,,,,,,,,,,,,,,,0,1,1,1,0,13,13,13,,,,,,,,,,,,,,,,,,,,,,,0,0,,303.8907403600286,None,None,0,,303.8907403600286,None,,,,,,001,2022_Nov_17_2325,TMT_fmri,2021.2.3,59.96591537769307,
A5,312:338,15,['3'],3,TMTstop-A_1_5linestimulus12.png,TMTstop-A_1_5greenlinestimulus12.png,TMTstop-A_1_5redlinestimulus12.png,TMT_A,A5,115,None,5,,,,,,,,,,,,,,,,,,,,,,,,,,,,,,,,,,,,,,,,,0,1,1,1,0,14,14,14,,,,,,,,,,,,,,,,,,,,,,,0,0,,303.92409694003,None,None,0,,303.92409694003,None,,,,,,001,2022_Nov_17_2325,TMT_fmri,2021.2.3,59.96591537769307,
A5,312:338,16,['2'],2,TMTstop-A_1_5linestimulus13.png,TMTstop-A_1_5greenlinestimulus13.png,TMTstop-A_1_5redlinestimulus13.png,TMT_A,A5,116,None,5,,,,,,,,,,,,,,,,,,,,,,,,,,,,,,,,,,,,,,,,,0,1,1,1,0,15,15,15,,,,,,,,,,,,,,,,,,,,,,,0,0,,303.9574535200314,None,None,0,,303.9574535200314,None,,,,,,001,2022_Nov_17_2325,TMT_fmri,2021.2.3,59.96591537769307,
A5,312:338,17,['1'],1,TMTstop-A_1_5linestimulus14.png,TMTstop-A_1_5greenlinestimulus14.png,TMTstop-A_1_5redlinestimulus14.png,TMT_A,A5,117,None,5,,,,,,,,,,,,,,,,,,,,,,,,,,,,,,,,,,,,,,,,,0,1,1,1,0,16,16,16,,,,,,,,,,,,,,,,,,,,,,,0,0,,304.00748839003353,None,None,0,,304.00748839003353,None,,,,,,001,2022_Nov_17_2325,TMT_fmri,2021.2.3,59.96591537769307,
A5,312:338,18,['3'],3,TMTstop-A_1_5linestimulus15.png,TMTstop-A_1_5greenlinestimulus15.png,TMTstop-A_1_5redlinestimulus15.png,TMT_A,A5,118,None,5,,,,,,,,,,,,,,,,,,,,,,,,,,,,,,,,,,,,,,,,,0,1,1,1,0,17,17,17,,,,,,,,,,,,,,,,,,,,,,,0,0,,304.0408449700349,None,None,0,,304.0408449700349,None,,,,,,001,2022_Nov_17_2325,TMT_fmri,2021.2.3,59.96591537769307,
A5,312:338,19,['2'],2,TMTstop-A_1_5linestimulus16.png,TMTstop-A_1_5greenlinestimulus16.png,TMTstop-A_1_5redlinestimulus16.png,TMT_A,A5,119,None,5,,,,,,,,,,,,,,,,,,,,,,,,,,,,,,,,,,,,,,,,,0,1,1,1,0,18,18,18,,,,,,,,,,,,,,,,,,,,,,,0,0,,304.0742015500364,None,None,0,,304.0742015500364,None,,,,,,001,2022_Nov_17_2325,TMT_fmri,2021.2.3,59.96591537769307,
A5,312:338,20,['1'],1,TMTstop-A_1_5linestimulus17.png,TMTstop-A_1_5greenlinestimulus17.png,TMTstop-A_1_5redlinestimulus17.png,TMT_A,A5,120,None,5,,,,,,,,,,,,,,,,,,,,,,,,,,,,,,,,,,,,,,,,,0,1,1,1,0,19,19,19,,,,,,,,,,,,,,,,,,,,,,,0,0,,304.1075581300378,None,None,0,,304.1075581300378,None,,,,,,001,2022_Nov_17_2325,TMT_fmri,2021.2.3,59.96591537769307,
A5,312:338,21,['2'],2,TMTstop-A_1_5linestimulus18.png,TMTstop-A_1_5greenlinestimulus18.png,TMTstop-A_1_5redlinestimulus18.png,TMT_A,A5,121,None,5,,,,,,,,,,,,,,,,,,,,,,,,,,,,,,,,,,,,,,,,,0,1,1,1,0,20,20,20,,,,,,,,,,,,,,,,,,,,,,,0,0,,304.1409147100392,None,None,0,,304.1409147100392,None,,,,,,001,2022_Nov_17_2325,TMT_fmri,2021.2.3,59.96591537769307,
A5,312:338,22,['3'],3,TMTstop-A_1_5linestimulus19.png,TMTstop-A_1_5greenlinestimulus19.png,TMTstop-A_1_5redlinestimulus19.png,TMT_A,A5,122,None,5,,,,,,,,,,,,,,,,,,,,,,,,,,,,,,,,,,,,,,,,,0,1,1,1,0,21,21,21,,,,,,,,,,,,,,,,,,,,,,,0,0,,304.1742712900406,None,None,0,,304.1742712900406,None,,,,,,001,2022_Nov_17_2325,TMT_fmri,2021.2.3,59.96591537769307,
A5,312:338,23,['2'],2,TMTstop-A_1_5linestimulus20.png,TMTstop-A_1_5greenlinestimulus20.png,TMTstop-A_1_5redlinestimulus20.png,TMT_A,A5,123,None,5,,,,,,,,,,,,,,,,,,,,,,,,,,,,,,,,,,,,,,,,,0,1,1,1,0,22,22,22,,,,,,,,,,,,,,,,,,,,,,,0,0,,304.207627870042,None,None,0,,304.207627870042,None,,,,,,001,2022_Nov_17_2325,TMT_fmri,2021.2.3,59.96591537769307,
A5,312:338,24,['3'],3,TMTstop-A_1_5linestimulus21.png,TMTstop-A_1_5greenlinestimulus21.png,TMTstop-A_1_5redlinestimulus21.png,TMT_A,A5,124,None,5,,,,,,,,,,,,,,,,,,,,,,,,,,,,,,,,,,,,,,,,,0,1,1,1,0,23,23,23,,,,,,,,,,,,,,,,,,,,,,,0,0,,304.24098445004347,None,None,0,,304.24098445004347,None,,,,,,001,2022_Nov_17_2325,TMT_fmri,2021.2.3,59.96591537769307,
A5,312:338,25,['1'],1,TMTstop-A_1_5linestimulus22.png,TMTstop-A_1_5greenlinestimulus22.png,TMTstop-A_1_5redlinestimulus22.png,TMT_A,A5,125,None,5,,,,,,,,,,,,,,,,,,,,,,,,,,,,,,,,,,,,,,,,,0,1,1,1,0,24,24,24,,,,,,,,,,,,,,,,,,,,,,,0,0,,304.27434103004487,None,None,0,,304.27434103004487,None,,,,,,001,2022_Nov_17_2325,TMT_fmri,2021.2.3,59.96591537769307,
A5,312:338,None,None,None,TMTstop-A_1_5linestimulus23.png,TMTstop-A_1_5greenlinestimulus23.png,TMTstop-A_1_5redlinestimulus23.png,TMT_A,A5,Feedback_last,None,5,,,,,,,,,,,,,,,,,,,,,,,,,,,,,,,,,,,,,,,,,0,1,1,1,0,25,25,25,,,,,,,,,,,,,,,,,,,,,,,0,0,,304.3076976100463,None,None,1,,304.3076976100463,None,,,,,,001,2022_Nov_17_2325,TMT_fmri,2021.2.3,59.96591537769307,
A6,338:364,1,['3'],3,TMTstop-A_1_6.png,TMTstop-A_1_6.png,TMTstop-A_1_6.png,TMT_A,A6,126,None,5,,,,,,,,,,,,,,,,,,,,,,,,,,,,,,,,,,,,,,,,,0,2,2,2,0,0,0,0,,,,,,,,,,,,,,,,,,,,,,,0,0,,307.52234317001563,None,None,0,,307.52234317001563,None,,,,,,001,2022_Nov_17_2325,TMT_fmri,2021.2.3,59.96591537769307,
A6,338:364,2,['1'],1,TMTstop-A_1_6.png,TMTstop-A_1_6firstgreen.png,TMTstop-A_1_6firstred.png,TMT_A,A6,127,None,5,,,,,,,,,,,,,,,,,,,,,,,,,,,,,,,,,,,,,,,,,0,2,2,2,0,1,1,1,,,,,,,,,,,,,,,,,,,,,,,0,0,,307.5723780400178,None,None,0,,307.5723780400178,None,,,,,,001,2022_Nov_17_2325,TMT_fmri,2021.2.3,59.96591537769307,
A6,338:364,3,['2'],2,TMTstop-A_1_6linestimulus0.png,TMTstop-A_1_6greenlinestimulus0.png,TMTstop-A_1_6redlinestimulus0.png,TMT_A,A6,128,None,5,,,,,,,,,,,,,,,,,,,,,,,,,,,,,,,,,,,,,,,,,0,2,2,2,0,2,2,2,,,,,,,,,,,,,,,,,,,,,,,0,0,,307.6057346200192,None,None,0,,307.6057346200192,None,,,,,,001,2022_Nov_17_2325,TMT_fmri,2021.2.3,59.96591537769307,
A6,338:364,4,['1'],1,TMTstop-A_1_6linestimulus1.png,TMTstop-A_1_6greenlinestimulus1.png,TMTstop-A_1_6redlinestimulus1.png,TMT_A,A6,129,None,5,,,,,,,,,,,,,,,,,,,,,,,,,,,,,,,,,,,,,,,,,0,2,2,2,0,3,3,3,,,,,,,,,,,,,,,,,,,,,,,0,0,,307.63909120002063,None,None,0,,307.63909120002063,None,,,,,,001,2022_Nov_17_2325,TMT_fmri,2021.2.3,59.96591537769307,
A6,338:364,5,['2'],2,TMTstop-A_1_6linestimulus2.png,TMTstop-A_1_6greenlinestimulus2.png,TMTstop-A_1_6redlinestimulus2.png,TMT_A,A6,130,None,5,,,,,,,,,,,,,,,,,,,,,,,,,,,,,,,,,,,,,,,,,0,2,2,2,0,4,4,4,,,,,,,,,,,,,,,,,,,,,,,0,0,,307.672447780022,None,None,0,,307.672447780022,None,,,,,,001,2022_Nov_17_2325,TMT_fmri,2021.2.3,59.96591537769307,
A6,338:364,6,['3'],3,TMTstop-A_1_6linestimulus3.png,TMTstop-A_1_6greenlinestimulus3.png,TMTstop-A_1_6redlinestimulus3.png,TMT_A,A6,131,None,5,,,,,,,,,,,,,,,,,,,,,,,,,,,,,,,,,,,,,,,,,0,2,2,2,0,5,5,5,,,,,,,,,,,,,,,,,,,,,,,0,0,,307.7058043600235,None,None,0,,307.7058043600235,None,,,,,,001,2022_Nov_17_2325,TMT_fmri,2021.2.3,59.96591537769307,
A6,338:364,7,['2'],2,TMTstop-A_1_6linestimulus4.png,TMTstop-A_1_6greenlinestimulus4.png,TMTstop-A_1_6redlinestimulus4.png,TMT_A,A6,132,None,5,,,,,,,,,,,,,,,,,,,,,,,,,,,,,,,,,,,,,,,,,0,2,2,2,0,6,6,6,,,,,,,,,,,,,,,,,,,,,,,0,0,,307.7391609400249,None,None,0,,307.7391609400249,None,,,,,,001,2022_Nov_17_2325,TMT_fmri,2021.2.3,59.96591537769307,
A6,338:364,8,['1'],1,TMTstop-A_1_6linestimulus5.png,TMTstop-A_1_6greenlinestimulus5.png,TMTstop-A_1_6redlinestimulus5.png,TMT_A,A6,133,None,5,,,,,,,,,,,,,,,,,,,,,,,,,,,,,,,,,,,,,,,,,0,2,2,2,0,7,7,7,,,,,,,,,,,,,,,,,,,,,,,0,0,,307.789195810027,None,None,0,,307.789195810027,None,,,,,,001,2022_Nov_17_2325,TMT_fmri,2021.2.3,59.96591537769307,
A6,338:364,9,['3'],3,TMTstop-A_1_6linestimulus6.png,TMTstop-A_1_6greenlinestimulus6.png,TMTstop-A_1_6redlinestimulus6.png,TMT_A,A6,134,None,5,,,,,,,,,,,,,,,,,,,,,,,,,,,,,,,,,,,,,,,,,0,2,2,2,0,8,8,8,,,,,,,,,,,,,,,,,,,,,,,0,0,,307.8225523900284,None,None,0,,307.8225523900284,None,,,,,,001,2022_Nov_17_2325,TMT_fmri,2021.2.3,59.96591537769307,
A6,338:364,10,['1'],1,TMTstop-A_1_6linestimulus7.png,TMTstop-A_1_6greenlinestimulus7.png,TMTstop-A_1_6redlinestimulus7.png,TMT_A,A6,135,None,5,,,,,,,,,,,,,,,,,,,,,,,,,,,,,,,,,,,,,,,,,0,2,2,2,0,9,9,9,,,,,,,,,,,,,,,,,,,,,,,0,0,,307.8559089700298,None,None,0,,307.8559089700298,None,,,,,,001,2022_Nov_17_2325,TMT_fmri,2021.2.3,59.96591537769307,
A6,338:364,11,['3'],3,TMTstop-A_1_6linestimulus8.png,TMTstop-A_1_6greenlinestimulus8.png,TMTstop-A_1_6redlinestimulus8.png,TMT_A,A6,136,None,5,,,,,,,,,,,,,,,,,,,,,,,,,,,,,,,,,,,,,,,,,0,2,2,2,0,10,10,10,,,,,,,,,,,,,,,,,,,,,,,0,0,,307.88926555003127,None,None,0,,307.88926555003127,None,,,,,,001,2022_Nov_17_2325,TMT_fmri,2021.2.3,59.96591537769307,
A6,338:364,12,['2'],2,TMTstop-A_1_6linestimulus9.png,TMTstop-A_1_6greenlinestimulus9.png,TMTstop-A_1_6redlinestimulus9.png,TMT_A,A6,137,None,5,,,,,,,,,,,,,,,,,,,,,,,,,,,,,,,,,,,,,,,,,0,2,2,2,0,11,11,11,,,,,,,,,,,,,,,,,,,,,,,0,0,,307.92262213003266,None,None,0,,307.92262213003266,None,,,,,,001,2022_Nov_17_2325,TMT_fmri,2021.2.3,59.96591537769307,
A6,338:364,13,['3'],3,TMTstop-A_1_6linestimulus10.png,TMTstop-A_1_6greenlinestimulus10.png,TMTstop-A_1_6redlinestimulus10.png,TMT_A,A6,138,None,5,,,,,,,,,,,,,,,,,,,,,,,,,,,,,,,,,,,,,,,,,0,2,2,2,0,12,12,12,,,,,,,,,,,,,,,,,,,,,,,0,0,,307.9726570000348,None,None,0,,307.9726570000348,None,,,,,,001,2022_Nov_17_2325,TMT_fmri,2021.2.3,59.96591537769307,
A6,338:364,14,['1'],1,TMTstop-A_1_6linestimulus11.png,TMTstop-A_1_6greenlinestimulus11.png,TMTstop-A_1_6redlinestimulus11.png,TMT_A,A6,139,None,5,,,,,,,,,,,,,,,,,,,,,,,,,,,,,,,,,,,,,,,,,0,2,2,2,0,13,13,13,,,,,,,,,,,,,,,,,,,,,,,0,0,,308.0060135800362,None,None,0,,308.0060135800362,None,,,,,,001,2022_Nov_17_2325,TMT_fmri,2021.2.3,59.96591537769307,
A6,338:364,15,['3'],3,TMTstop-A_1_6linestimulus12.png,TMTstop-A_1_6greenlinestimulus12.png,TMTstop-A_1_6redlinestimulus12.png,TMT_A,A6,140,None,5,,,,,,,,,,,,,,,,,,,,,,,,,,,,,,,,,,,,,,,,,0,2,2,2,0,14,14,14,,,,,,,,,,,,,,,,,,,,,,,0,0,,308.03937016003766,None,None,0,,308.03937016003766,None,,,,,,001,2022_Nov_17_2325,TMT_fmri,2021.2.3,59.96591537769307,
A6,338:364,16,['1'],1,TMTstop-A_1_6linestimulus13.png,TMTstop-A_1_6greenlinestimulus13.png,TMTstop-A_1_6redlinestimulus13.png,TMT_A,A6,141,None,5,,,,,,,,,,,,,,,,,,,,,,,,,,,,,,,,,,,,,,,,,0,2,2,2,0,15,15,15,,,,,,,,,,,,,,,,,,,,,,,0,0,,308.07272674003906,None,None,0,,308.07272674003906,None,,,,,,001,2022_Nov_17_2325,TMT_fmri,2021.2.3,59.96591537769307,
A6,338:364,17,['3'],3,TMTstop-A_1_6linestimulus14.png,TMTstop-A_1_6greenlinestimulus14.png,TMTstop-A_1_6redlinestimulus14.png,TMT_A,A6,142,None,5,,,,,,,,,,,,,,,,,,,,,,,,,,,,,,,,,,,,,,,,,0,2,2,2,0,16,16,16,,,,,,,,,,,,,,,,,,,,,,,0,0,,308.10608332004045,None,None,0,,308.10608332004045,None,,,,,,001,2022_Nov_17_2325,TMT_fmri,2021.2.3,59.96591537769307,
A6,338:364,18,['2'],2,TMTstop-A_1_6linestimulus15.png,TMTstop-A_1_6greenlinestimulus15.png,TMTstop-A_1_6redlinestimulus15.png,TMT_A,A6,143,None,5,,,,,,,,,,,,,,,,,,,,,,,,,,,,,,,,,,,,,,,,,0,2,2,2,0,17,17,17,,,,,,,,,,,,,,,,,,,,,,,0,0,,308.1394399000419,None,None,0,,308.1394399000419,None,,,,,,001,2022_Nov_17_2325,TMT_fmri,2021.2.3,59.96591537769307,
A6,338:364,19,['3'],3,TMTstop-A_1_6linestimulus16.png,TMTstop-A_1_6greenlinestimulus16.png,TMTstop-A_1_6redlinestimulus16.png,TMT_A,A6,144,None,5,,,,,,,,,,,,,,,,,,,,,,,,,,,,,,,,,,,,,,,,,0,2,2,2,0,18,18,18,,,,,,,,,,,,,,,,,,,,,,,0,0,,308.1727964800433,None,None,0,,308.1727964800433,None,,,,,,001,2022_Nov_17_2325,TMT_fmri,2021.2.3,59.96591537769307,
A6,338:364,20,['1'],1,TMTstop-A_1_6linestimulus17.png,TMTstop-A_1_6greenlinestimulus17.png,TMTstop-A_1_6redlinestimulus17.png,TMT_A,A6,145,None,5,,,,,,,,,,,,,,,,,,,,,,,,,,,,,,,,,,,,,,,,,0,2,2,2,0,19,19,19,,,,,,,,,,,,,,,,,,,,,,,0,0,,308.20615306004476,None,None,0,,308.20615306004476,None,,,,,,001,2022_Nov_17_2325,TMT_fmri,2021.2.3,59.96591537769307,
A6,338:364,21,['2'],2,TMTstop-A_1_6linestimulus18.png,TMTstop-A_1_6greenlinestimulus18.png,TMTstop-A_1_6redlinestimulus18.png,TMT_A,A6,146,None,5,,,,,,,,,,,,,,,,,,,,,,,,,,,,,,,,,,,,,,,,,0,2,2,2,0,20,20,20,,,,,,,,,,,,,,,,,,,,,,,0,0,,308.23950964004615,None,None,0,,308.23950964004615,None,,,,,,001,2022_Nov_17_2325,TMT_fmri,2021.2.3,59.96591537769307,
A6,338:364,22,['1'],1,TMTstop-A_1_6linestimulus19.png,TMTstop-A_1_6greenlinestimulus19.png,TMTstop-A_1_6redlinestimulus19.png,TMT_A,A6,147,None,5,,,,,,,,,,,,,,,,,,,,,,,,,,,,,,,,,,,,,,,,,0,2,2,2,0,21,21,21,,,,,,,,,,,,,,,,,,,,,,,0,0,,308.27286622004755,None,None,0,,308.27286622004755,None,,,,,,001,2022_Nov_17_2325,TMT_fmri,2021.2.3,59.96591537769307,
A6,338:364,23,['2'],2,TMTstop-A_1_6linestimulus20.png,TMTstop-A_1_6greenlinestimulus20.png,TMTstop-A_1_6redlinestimulus20.png,TMT_A,A6,148,None,5,,,,,,,,,,,,,,,,,,,,,,,,,,,,,,,,,,,,,,,,,0,2,2,2,0,22,22,22,,,,,,,,,,,,,,,,,,,,,,,0,0,,308.306222800049,None,None,0,,308.306222800049,None,,,,,,001,2022_Nov_17_2325,TMT_fmri,2021.2.3,59.96591537769307,
A6,338:364,24,['3'],3,TMTstop-A_1_6linestimulus21.png,TMTstop-A_1_6greenlinestimulus21.png,TMTstop-A_1_6redlinestimulus21.png,TMT_A,A6,149,None,5,,,,,,,,,,,,,,,,,,,,,,,,,,,,,,,,,,,,,,,,,0,2,2,2,0,23,23,23,,,,,,,,,,,,,,,,,,,,,,,0,0,,308.3395793800504,None,None,0,,308.3395793800504,None,,,,,,001,2022_Nov_17_2325,TMT_fmri,2021.2.3,59.96591537769307,
A6,338:364,25,['2'],2,TMTstop-A_1_6linestimulus22.png,TMTstop-A_1_6greenlinestimulus22.png,TMTstop-A_1_6redlinestimulus22.png,TMT_A,A6,150,None,5,,,,,,,,,,,,,,,,,,,,,,,,,,,,,,,,,,,,,,,,,0,2,2,2,0,24,24,24,,,,,,,,,,,,,,,,,,,,,,,0,0,,308.37293596005185,None,None,0,,308.37293596005185,None,,,,,,001,2022_Nov_17_2325,TMT_fmri,2021.2.3,59.96591537769307,
A6,338:364,None,None,None,TMTstop-A_1_6linestimulus23.png,TMTstop-A_1_6greenlinestimulus23.png,TMTstop-A_1_6redlinestimulus23.png,TMT_A,A6,Feedback_last,None,5,,,,,,,,,,,,,,,,,,,,,,,,,,,,,,,,,,,,,,,,,0,2,2,2,0,25,25,25,,,,,,,,,,,,,,,,,,,,,,,0,0,,308.40629254005324,None,None,1,,308.40629254005324,None,,,,,,001,2022_Nov_17_2325,TMT_fmri,2021.2.3,59.96591537769307,
C7,156:182,1,['1'],1,TMTstop-control_1_7.png,TMTstop-control_1_7.png,TMTstop-control_1_7.png,TMT_Control,C7,151,4,4,,,,,,,,,,,,,,,,,,,,,,,,,,,,,,,,,,,,,,,,,,,,,,,,,0,0,0,0,0,0,0,0,,,,,,,,,,,,,,,5,0,292.4060651999898,314.6194478999969,None,"['1', '2', '3', '2', '1']",1,"[1.9574941000028048, 1.9704057999915676, 2.121460800000932, 2.2035366999916732, 2.2888302999926964]",314.6194478999969,None,,,,,,001,2022_Nov_17_2325,TMT_fmri,2021.2.3,59.96591537769307,
C7,156:182,2,['2'],2,TMTstop-control_1_7.png,TMTstop-control_1_7firstgreen.png,TMTstop-control_1_7firstred.png,TMT_Control,C7,152,None,4,,,,,,,,,,,,,,,,,,,,,,,,,,,,,,,,,,,,,,,,,,,,,,,,,0,0,0,0,0,1,1,1,,,,,,,,,,,,,,,2,0,292.5772211000003,316.97452129999874,None,"['3', '2']",1,"[0.054746800000430085, 0.10552559999632649]",316.97452129999874,None,,,,,,001,2022_Nov_17_2325,TMT_fmri,2021.2.3,59.96591537769307,
C7,156:182,3,['3'],3,TMTstop-control_1_7linestimulus0.png,TMTstop-control_1_7greenlinestimulus0.png,TMTstop-control_1_7redlinestimulus0.png,TMT_Control,C7,153,None,4,,,,,,,,,,,,,,,,,,,,,,,,,,,,,,,,,,,,,,,,,,,,,,,,,0,0,0,0,0,2,2,2,,,,,,,,,,,,,,,2,0,292.77225069999986,317.14713880000636,None,"['1', '3']",1,"[0.02668209999683313, 0.13902909999887925]",317.14713880000636,None,,,,,,001,2022_Nov_17_2325,TMT_fmri,2021.2.3,59.96591537769307,
C7,156:182,4,['2'],2,TMTstop-control_1_7linestimulus1.png,TMTstop-control_1_7greenlinestimulus1.png,TMTstop-control_1_7redlinestimulus1.png,TMT_Control,C7,154,None,4,,,,,,,,,,,,,,,,,,,,,,,,,,,,,,,,,,,,,,,,,,,,,,,,,0,0,0,0,0,3,3,3,,,,,,,,,,,,,,,1,1,292.8392817999993,317.3360848000011,None,['2'],1,[0.012769799999659881],317.3360848000011,None,,,,,,001,2022_Nov_17_2325,TMT_fmri,2021.2.3,59.96591537769307,
C7,156:182,5,['3'],3,TMTstop-control_1_7linestimulus2.png,TMTstop-control_1_7greenlinestimulus2.png,TMTstop-control_1_7redlinestimulus2.png,TMT_Control,C7,155,None,4,,,,,,,,,,,,,,,,,,,,,,,,,,,,,,,,,,,,,,,,,,,,,,,,,0,0,0,0,0,4,4,4,,,,,,,,,,,,,,,2,0,293.04905039998994,317.40710310000577,None,"['1', '3']",1,"[0.022983800008660182, 0.14456350001273677]",317.40710310000577,None,,,,,,001,2022_Nov_17_2325,TMT_fmri,2021.2.3,59.96591537769307,
C7,156:182,6,['1'],1,TMTstop-control_1_7linestimulus3.png,TMTstop-control_1_7greenlinestimulus3.png,TMTstop-control_1_7redlinestimulus3.png,TMT_Control,C7,156,None,4,,,,,,,,,,,,,,,,,,,,,,,,,,,,,,,,,,,,,,,,,,,,,,,,,0,0,0,0,0,5,5,5,,,,,,,,,,,,,,,2,0,293.1987674999982,317.61324330000207,None,"['2', '1']",1,"[-0.006224800003110431, 0.08055590000003576]",317.61324330000207,None,,,,,,001,2022_Nov_17_2325,TMT_fmri,2021.2.3,59.96591537769307,
C7,156:182,7,['3'],3,TMTstop-control_1_7linestimulus4.png,TMTstop-control_1_7greenlinestimulus4.png,TMTstop-control_1_7redlinestimulus4.png,TMT_Control,C7,157,None,4,,,,,,,,,,,,,,,,,,,,,,,,,,,,,,,,,,,,,,,,,,,,,,,,,0,0,0,0,0,6,6,6,,,,,,,,,,,,,,,0,0,,317.7635298999958,None,None,0,,317.7635298999958,None,,,,,,001,2022_Nov_17_2325,TMT_fmri,2021.2.3,59.96591537769307,
C7,156:182,8,['2'],2,TMTstop-control_1_7linestimulus4.png,TMTstop-control_1_7greenlinestimulus5.png,TMTstop-control_1_7redlinestimulus5.png,TMT_Control,C7,158,None,4,,,,,,,,,,,,,,,,,,,,,,,,,,,,,,,,,,,,,,,,,,,,,,,,,0,0,0,0,0,7,7,7,,,,,,,,,,,,,,,0,0,,359.4446272800036,None,None,0,,359.4446272800036,None,,,,,,001,2022_Nov_17_2325,TMT_fmri,2021.2.3,59.96591537769307,
C7,156:182,9,['3'],3,TMTstop-control_1_7linestimulus6.png,TMTstop-control_1_7greenlinestimulus6.png,TMTstop-control_1_7redlinestimulus6.png,TMT_Control,C7,159,None,4,,,,,,,,,,,,,,,,,,,,,,,,,,,,,,,,,,,,,,,,,,,,,,,,,0,0,0,0,0,8,8,8,,,,,,,,,,,,,,,0,0,,359.47798386000505,None,None,0,,359.47798386000505,None,,,,,,001,2022_Nov_17_2325,TMT_fmri,2021.2.3,59.96591537769307,
C7,156:182,10,['2'],2,TMTstop-control_1_7linestimulus7.png,TMTstop-control_1_7greenlinestimulus7.png,TMTstop-control_1_7redlinestimulus7.png,TMT_Control,C7,160,None,4,,,,,,,,,,,,,,,,,,,,,,,,,,,,,,,,,,,,,,,,,,,,,,,,,0,0,0,0,0,9,9,9,,,,,,,,,,,,,,,0,0,,359.51134044000645,None,None,0,,359.51134044000645,None,,,,,,001,2022_Nov_17_2325,TMT_fmri,2021.2.3,59.96591537769307,
C7,156:182,11,['1'],1,TMTstop-control_1_7linestimulus8.png,TMTstop-control_1_7greenlinestimulus8.png,TMTstop-control_1_7redlinestimulus8.png,TMT_Control,C7,161,None,4,,,,,,,,,,,,,,,,,,,,,,,,,,,,,,,,,,,,,,,,,,,,,,,,,0,0,0,0,0,10,10,10,,,,,,,,,,,,,,,0,0,,359.54469702000785,None,None,0,,359.54469702000785,None,,,,,,001,2022_Nov_17_2325,TMT_fmri,2021.2.3,59.96591537769307,
C7,156:182,12,['2'],2,TMTstop-control_1_7linestimulus9.png,TMTstop-control_1_7greenlinestimulus9.png,TMTstop-control_1_7redlinestimulus9.png,TMT_Control,C7,162,None,4,,,,,,,,,,,,,,,,,,,,,,,,,,,,,,,,,,,,,,,,,,,,,,,,,0,0,0,0,0,11,11,11,,,,,,,,,,,,,,,0,0,,359.5780536000093,None,None,0,,359.5780536000093,None,,,,,,001,2022_Nov_17_2325,TMT_fmri,2021.2.3,59.96591537769307,
C7,156:182,13,['3'],3,TMTstop-control_1_7linestimulus10.png,TMTstop-control_1_7greenlinestimulus10.png,TMTstop-control_1_7redlinestimulus10.png,TMT_Control,C7,163,None,4,,,,,,,,,,,,,,,,,,,,,,,,,,,,,,,,,,,,,,,,,,,,,,,,,0,0,0,0,0,12,12,12,,,,,,,,,,,,,,,0,0,,359.6114101800107,None,None,0,,359.6114101800107,None,,,,,,001,2022_Nov_17_2325,TMT_fmri,2021.2.3,59.96591537769307,
C7,156:182,14,['1'],1,TMTstop-control_1_7linestimulus11.png,TMTstop-control_1_7greenlinestimulus11.png,TMTstop-control_1_7redlinestimulus11.png,TMT_Control,C7,164,None,4,,,,,,,,,,,,,,,,,,,,,,,,,,,,,,,,,,,,,,,,,,,,,,,,,0,0,0,0,0,13,13,13,,,,,,,,,,,,,,,0,0,,359.64476676001215,None,None,0,,359.64476676001215,None,,,,,,001,2022_Nov_17_2325,TMT_fmri,2021.2.3,59.96591537769307,
C7,156:182,15,['2'],2,TMTstop-control_1_7linestimulus12.png,TMTstop-control_1_7greenlinestimulus12.png,TMTstop-control_1_7redlinestimulus12.png,TMT_Control,C7,165,None,4,,,,,,,,,,,,,,,,,,,,,,,,,,,,,,,,,,,,,,,,,,,,,,,,,0,0,0,0,0,14,14,14,,,,,,,,,,,,,,,0,0,,359.66144505001284,None,None,0,,359.66144505001284,None,,,,,,001,2022_Nov_17_2325,TMT_fmri,2021.2.3,59.96591537769307,
C7,156:182,16,['3'],3,TMTstop-control_1_7linestimulus13.png,TMTstop-control_1_7greenlinestimulus13.png,TMTstop-control_1_7redlinestimulus13.png,TMT_Control,C7,166,None,4,,,,,,,,,,,,,,,,,,,,,,,,,,,,,,,,,,,,,,,,,,,,,,,,,0,0,0,0,0,15,15,15,,,,,,,,,,,,,,,0,0,,359.69480163001424,None,None,0,,359.69480163001424,None,,,,,,001,2022_Nov_17_2325,TMT_fmri,2021.2.3,59.96591537769307,
C7,156:182,17,['1'],1,TMTstop-control_1_7linestimulus14.png,TMTstop-control_1_7greenlinestimulus14.png,TMTstop-control_1_7redlinestimulus14.png,TMT_Control,C7,167,None,4,,,,,,,,,,,,,,,,,,,,,,,,,,,,,,,,,,,,,,,,,,,,,,,,,0,0,0,0,0,16,16,16,,,,,,,,,,,,,,,0,0,,359.7281582100157,None,None,0,,359.7281582100157,None,,,,,,001,2022_Nov_17_2325,TMT_fmri,2021.2.3,59.96591537769307,
C7,156:182,18,['2'],2,TMTstop-control_1_7linestimulus15.png,TMTstop-control_1_7greenlinestimulus15.png,TMTstop-control_1_7redlinestimulus15.png,TMT_Control,C7,168,None,4,,,,,,,,,,,,,,,,,,,,,,,,,,,,,,,,,,,,,,,,,,,,,,,,,0,0,0,0,0,17,17,17,,,,,,,,,,,,,,,0,0,,359.7615147900171,None,None,0,,359.7615147900171,None,,,,,,001,2022_Nov_17_2325,TMT_fmri,2021.2.3,59.96591537769307,
C7,156:182,19,['3'],3,TMTstop-control_1_7linestimulus16.png,TMTstop-control_1_7greenlinestimulus16.png,TMTstop-control_1_7redlinestimulus16.png,TMT_Control,C7,169,None,4,,,,,,,,,,,,,,,,,,,,,,,,,,,,,,,,,,,,,,,,,,,,,,,,,0,0,0,0,0,18,18,18,,,,,,,,,,,,,,,0,0,,359.7948713700185,None,None,0,,359.7948713700185,None,,,,,,001,2022_Nov_17_2325,TMT_fmri,2021.2.3,59.96591537769307,
C7,156:182,20,['2'],2,TMTstop-control_1_7linestimulus17.png,TMTstop-control_1_7greenlinestimulus17.png,TMTstop-control_1_7redlinestimulus17.png,TMT_Control,C7,170,None,4,,,,,,,,,,,,,,,,,,,,,,,,,,,,,,,,,,,,,,,,,,,,,,,,,0,0,0,0,0,19,19,19,,,,,,,,,,,,,,,0,0,,359.82822795001994,None,None,0,,359.82822795001994,None,,,,,,001,2022_Nov_17_2325,TMT_fmri,2021.2.3,59.96591537769307,
C7,156:182,21,['3'],3,TMTstop-control_1_7linestimulus18.png,TMTstop-control_1_7greenlinestimulus18.png,TMTstop-control_1_7redlinestimulus18.png,TMT_Control,C7,171,None,4,,,,,,,,,,,,,,,,,,,,,,,,,,,,,,,,,,,,,,,,,,,,,,,,,0,0,0,0,0,20,20,20,,,,,,,,,,,,,,,0,0,,359.86158453002133,None,None,0,,359.86158453002133,None,,,,,,001,2022_Nov_17_2325,TMT_fmri,2021.2.3,59.96591537769307,
C7,156:182,22,['2'],2,TMTstop-control_1_7linestimulus19.png,TMTstop-control_1_7greenlinestimulus19.png,TMTstop-control_1_7redlinestimulus19.png,TMT_Control,C7,172,None,4,,,,,,,,,,,,,,,,,,,,,,,,,,,,,,,,,,,,,,,,,,,,,,,,,0,0,0,0,0,21,21,21,,,,,,,,,,,,,,,0,0,,359.8949411100228,None,None,0,,359.8949411100228,None,,,,,,001,2022_Nov_17_2325,TMT_fmri,2021.2.3,59.96591537769307,
C7,156:182,23,['3'],3,TMTstop-control_1_7linestimulus20.png,TMTstop-control_1_7greenlinestimulus20.png,TMTstop-control_1_7redlinestimulus20.png,TMT_Control,C7,173,None,4,,,,,,,,,,,,,,,,,,,,,,,,,,,,,,,,,,,,,,,,,,,,,,,,,0,0,0,0,0,22,22,22,,,,,,,,,,,,,,,0,0,,359.9282976900242,None,None,0,,359.9282976900242,None,,,,,,001,2022_Nov_17_2325,TMT_fmri,2021.2.3,59.96591537769307,
C7,156:182,24,['2'],2,TMTstop-control_1_7linestimulus21.png,TMTstop-control_1_7greenlinestimulus21.png,TMTstop-control_1_7redlinestimulus21.png,TMT_Control,C7,174,None,4,,,,,,,,,,,,,,,,,,,,,,,,,,,,,,,,,,,,,,,,,,,,,,,,,0,0,0,0,0,23,23,23,,,,,,,,,,,,,,,0,0,,359.9449759800249,None,None,0,,359.9449759800249,None,,,,,,001,2022_Nov_17_2325,TMT_fmri,2021.2.3,59.96591537769307,
C7,156:182,25,['3'],3,TMTstop-control_1_7linestimulus22.png,TMTstop-control_1_7greenlinestimulus22.png,TMTstop-control_1_7redlinestimulus22.png,TMT_Control,C7,175,None,4,,,,,,,,,,,,,,,,,,,,,,,,,,,,,,,,,,,,,,,,,,,,,,,,,0,0,0,0,0,24,24,24,,,,,,,,,,,,,,,0,0,,359.97833256002633,None,None,0,,359.97833256002633,None,,,,,,001,2022_Nov_17_2325,TMT_fmri,2021.2.3,59.96591537769307,
C7,156:182,None,None,None,TMTstop-control_1_7linestimulus23.png,TMTstop-control_1_7greenlinestimulus23.png,TMTstop-control_1_7redlinestimulus23.png,TMT_Control,C7,Feedback_last,None,4,,,,,,,,,,,,,,,,,,,,,,,,,,,,,,,,,,,,,,,,,,,,,,,,,0,0,0,0,0,25,25,25,,,,,,,,,,,,,,,0,0,,360.0116891400277,None,None,1,,360.0116891400277,None,,,,,,001,2022_Nov_17_2325,TMT_fmri,2021.2.3,59.96591537769307,
