NumberLetter,corrAns,StimFile,Correct_StimFile,False_StimFile,DurationTrial,trials.thisRepN,trials.thisTrialN,trials.thisN,trials.thisIndex,trials_2.thisRepN,trials_2.thisTrialN,trials_2.thisN,trials_2.thisIndex,trials_3.thisRepN,trials_3.thisTrialN,trials_3.thisN,trials_3.thisIndex,trials_4.thisRepN,trials_4.thisTrialN,trials_4.thisN,trials_4.thisIndex,Instruct.started,Instruct.stopped,text_2.started,text_2.stopped,Stim.started,Stim.stopped,key_resp_2.keys,key_resp_2.corr,key_resp_2.rt,key_resp_2.started,key_resp_2.stopped,polygon.started,polygon.stopped,text.started,text.stopped,participant,session,date,expName,psychopyVersion,frameRate,
1,['2'],TMTstop-A_1_1.png,TMTstop-A_1_1.png,TMTstop-A_1_1.png,10,0,0,0,0,,,,,,,,,,,,,6.675720800063573,None,6.675720800063573,None,7.369847199996002,None,"['1', '1', '2']",1,"[0.00823919998947531, 0.4758488000370562, 0.6279936000937596]",7.369847199996002,None,,,,,,001,2021_Nov_04_1636,TMTAB,2021.2.3,143.30938630824878,
2,['1'],TMTstop-A_1_1.png,TMTstop-A_1_1firstgreen.png,TMTstop-A_1_1firstred.png,10,0,1,1,1,,,,,,,,,,,,,,,,,8.105965499999002,None,"['3', '1']",1,"[0.0285637000342831, 0.19348490005359054]",8.105965499999002,None,,,,,,001,2021_Nov_04_1636,TMTAB,2021.2.3,143.30938630824878,
3,['2'],TMTstop-A_1_1linestimulus0.png,TMTstop-A_1_1greenlinestimulus0.png,TMTstop-A_1_1redlinestimulus0.png,10,0,2,2,2,,,,,,,,,,,,,,,,,8.384368699975312,None,['2'],1,[0.03874440002255142],8.384368699975312,None,,,,,,001,2021_Nov_04_1636,TMTAB,2021.2.3,143.30938630824878,
4,['3'],TMTstop-A_1_1linestimulus1.png,TMTstop-A_1_1greenlinestimulus1.png,TMTstop-A_1_1redlinestimulus1.png,10,0,3,3,3,,,,,,,,,,,,,,,,,8.49497280002106,None,['3'],1,[0.03663460002280772],8.49497280002106,None,,,,,,001,2021_Nov_04_1636,TMTAB,2021.2.3,143.30938630824878,
5,['2'],TMTstop-A_1_1linestimulus2.png,TMTstop-A_1_1greenlinestimulus2.png,TMTstop-A_1_1redlinestimulus2.png,10,0,4,4,4,,,,,,,,,,,,,,,,,8.606069499976002,None,"['1', '2']",1,"[0.11914860003162175, 0.13982820010278374]",8.606069499976002,None,,,,,,001,2021_Nov_04_1636,TMTAB,2021.2.3,143.30938630824878,
6,['3'],TMTstop-A_1_1linestimulus3.png,TMTstop-A_1_1greenlinestimulus3.png,TMTstop-A_1_1redlinestimulus3.png,10,0,5,5,5,,,,,,,,,,,,,,,,,8.842756400001235,None,['3'],1,[0.04066449997480959],8.842756400001235,None,,,,,,001,2021_Nov_04_1636,TMTAB,2021.2.3,143.30938630824878,
7,['2'],TMTstop-A_1_1linestimulus4.png,TMTstop-A_1_1greenlinestimulus4.png,TMTstop-A_1_1redlinestimulus4.png,10,0,6,6,6,,,,,,,,,,,,,,,,,8.960980199975893,None,"['1', '2']",1,"[0.07345340005122125, 0.1378163000335917]",8.960980199975893,None,,,,,,001,2021_Nov_04_1636,TMTAB,2021.2.3,143.30938630824878,
8,['1'],TMTstop-A_1_1linestimulus5.png,TMTstop-A_1_1greenlinestimulus5.png,TMTstop-A_1_1redlinestimulus5.png,10,0,7,7,7,,,,,,,,,,,,,,,,,9.203568400000222,None,"['3', '1']",1,"[0.00045579997822642326, 0.17157530004624277]",9.203568400000222,None,,,,,,001,2021_Nov_04_1636,TMTAB,2021.2.3,143.30938630824878,
9,['2'],TMTstop-A_1_1linestimulus6.png,TMTstop-A_1_1greenlinestimulus6.png,TMTstop-A_1_1redlinestimulus6.png,10,0,8,8,8,,,,,,,,,,,,,,,,,9.45336230006069,None,['2'],1,[0.11251100001391023],9.45336230006069,None,,,,,,001,2021_Nov_04_1636,TMTAB,2021.2.3,143.30938630824878,
10,['1'],TMTstop-A_1_1linestimulus7.png,TMTstop-A_1_1greenlinestimulus7.png,TMTstop-A_1_1redlinestimulus7.png,10,0,9,9,9,,,,,,,,,,,,,,,,,9.647650200058706,None,"['2', '1', '2', '3', '1']",1,"[0.1974239000119269, 0.26084080000873655, 0.27352159994188696, 0.35944909998215735, 0.5166457999730483]",9.647650200058706,None,,,,,,001,2021_Nov_04_1636,TMTAB,2021.2.3,143.30938630824878,
11,['2'],TMTstop-A_1_1linestimulus8.png,TMTstop-A_1_1greenlinestimulus8.png,TMTstop-A_1_1redlinestimulus8.png,10,0,10,10,10,,,,,,,,,,,,,,,,,10.26583779999055,None,['2'],1,[-0.021428899955935776],10.26583779999055,None,,,,,,001,2021_Nov_04_1636,TMTAB,2021.2.3,143.30938630824878,
12,['3'],TMTstop-A_1_1linestimulus9.png,TMTstop-A_1_1greenlinestimulus9.png,TMTstop-A_1_1redlinestimulus9.png,10,0,11,11,11,,,,,,,,,,,,,,,,,10.348783500026911,None,['3'],1,[-0.007533399970270693],10.348783500026911,None,,,,,,001,2021_Nov_04_1636,TMTAB,2021.2.3,143.30938630824878,
13,['2'],TMTstop-A_1_1linestimulus10.png,TMTstop-A_1_1greenlinestimulus10.png,TMTstop-A_1_1redlinestimulus10.png,1,0,12,12,12,,,,,,,,,,,,,,,,,10.425683100009337,None,"['1', '2']",1,"[0.07061140006408095, 0.14932820003014058]",10.425683100009337,None,,,,,,001,2021_Nov_04_1636,TMTAB,2021.2.3,143.30938630824878,
14,['3'],TMTstop-A_1_1linestimulus11.png,TMTstop-A_1_1greenlinestimulus11.png,TMTstop-A_1_1redlinestimulus11.png,None,0,13,13,13,,,,,,,,,,,,,,,,,10.668323299963959,None,['3'],1,[0.0033591999672353268],10.668323299963959,None,,,,,,001,2021_Nov_04_1636,TMTAB,2021.2.3,143.30938630824878,
15,['1'],TMTstop-A_1_1linestimulus12.png,TMTstop-A_1_1greenlinestimulus12.png,TMTstop-A_1_1redlinestimulus12.png,None,0,14,14,14,,,,,,,,,,,,,,,,,10.758981800056063,None,['1'],1,[0.06114010000601411],10.758981800056063,None,,,,,,001,2021_Nov_04_1636,TMTAB,2021.2.3,143.30938630824878,
16,['3'],TMTstop-A_1_1linestimulus13.png,TMTstop-A_1_1greenlinestimulus13.png,TMTstop-A_1_1redlinestimulus13.png,None,0,15,15,15,,,,,,,,,,,,,,,,,10.919012299971655,None,"['2', '3']",1,"[-0.023627899936400354, 0.06610830000136048]",10.919012299971655,None,,,,,,001,2021_Nov_04_1636,TMTAB,2021.2.3,143.30938630824878,
17,['2'],TMTstop-A_1_1linestimulus14.png,TMTstop-A_1_1greenlinestimulus14.png,TMTstop-A_1_1redlinestimulus14.png,None,0,16,16,16,,,,,,,,,,,,,,,,,11.078368099988438,None,"['1', '2']",1,"[0.06454809999559075, 0.16851049999240786]",11.078368099988438,None,,,,,,001,2021_Nov_04_1636,TMTAB,2021.2.3,143.30938630824878,
18,['3'],TMTstop-A_1_1linestimulus15.png,TMTstop-A_1_1greenlinestimulus15.png,TMTstop-A_1_1redlinestimulus15.png,None,0,17,17,17,,,,,,,,,,,,,,,,,11.350047099986114,None,['3'],1,[-0.011394999921321869],11.350047099986114,None,,,,,,001,2021_Nov_04_1636,TMTAB,2021.2.3,143.30938630824878,
19,['1'],TMTstop-A_1_1linestimulus16.png,TMTstop-A_1_1greenlinestimulus16.png,TMTstop-A_1_1redlinestimulus16.png,None,0,18,18,18,,,,,,,,,,,,,,,,,11.440538899973035,None,['1'],1,[0.6433477000100538],11.440538899973035,None,,,,,,001,2021_Nov_04_1636,TMTAB,2021.2.3,143.30938630824878,
20,['3'],TMTstop-A_1_1linestimulus17.png,TMTstop-A_1_1greenlinestimulus17.png,TMTstop-A_1_1redlinestimulus17.png,None,0,19,19,19,,,,,,,,,,,,,,,,,12.168498000013642,None,"['2', '3']",1,"[0.30058669997379184, 0.6541767000453547]",12.168498000013642,None,,,,,,001,2021_Nov_04_1636,TMTAB,2021.2.3,143.30938630824878,
21,['1'],TMTstop-A_1_1linestimulus18.png,TMTstop-A_1_1greenlinestimulus18.png,TMTstop-A_1_1redlinestimulus18.png,None,0,20,20,20,,,,,,,,,,,,,,,,,12.932424200000241,None,['1'],1,[0.18298570008482784],12.932424200000241,None,,,,,,001,2021_Nov_04_1636,TMTAB,2021.2.3,143.30938630824878,
22,['3'],TMTstop-A_1_1linestimulus19.png,TMTstop-A_1_1greenlinestimulus19.png,TMTstop-A_1_1redlinestimulus19.png,None,0,21,21,21,,,,,,,,,,,,,,,,,13.20359930000268,None,"['2', '3']",1,"[0.0776773999677971, 0.24627040000632405]",13.20359930000268,None,,,,,,001,2021_Nov_04_1636,TMTAB,2021.2.3,143.30938630824878,
23,['1'],TMTstop-A_1_1linestimulus20.png,TMTstop-A_1_1greenlinestimulus20.png,TMTstop-A_1_1redlinestimulus20.png,None,0,22,22,22,,,,,,,,,,,,,,,,,13.537456499994732,None,"['2', '1']",1,"[0.31732160004321486, 0.6573902000673115]",13.537456499994732,None,,,,,,001,2021_Nov_04_1636,TMTAB,2021.2.3,143.30938630824878,
24,['2'],TMTstop-A_1_1linestimulus21.png,TMTstop-A_1_1greenlinestimulus21.png,TMTstop-A_1_1redlinestimulus21.png,None,0,23,23,23,,,,,,,,,,,,,,,,,14.272496200050227,None,['2'],1,[0.24707299994770437],14.272496200050227,None,,,,,,001,2021_Nov_04_1636,TMTAB,2021.2.3,143.30938630824878,
25,['3'],TMTstop-A_1_1linestimulus22.png,TMTstop-A_1_1greenlinestimulus22.png,TMTstop-A_1_1redlinestimulus22.png,None,0,24,24,24,,,,,,,,,,,,,,,,,14.599106700043194,None,['3'],1,[0.8662199999671429],14.599106700043194,None,,,,,,001,2021_Nov_04_1636,TMTAB,2021.2.3,143.30938630824878,
None,None,TMTstop-A_1_1linestimulus23.png,TMTstop-A_1_1greenlinestimulus23.png,TMTstop-A_1_1redlinestimulus23.png,None,0,25,25,25,,,,,,,,,,,,,,,,,15.550582400057465,None,None,1,,15.550582400057465,None,,,,,,001,2021_Nov_04_1636,TMTAB,2021.2.3,143.30938630824878,
A,['3'],TMTstop-A_1_a.png,TMTstop-A_1_a.png,TMTstop-A_1_a.png,10,,,,,0,0,0,0,,,,,,,,,,,,,19.612987600034103,None,"['1', '2', '3']",1,"[0.4283196999458596, 0.5293774999445304, 0.6313897999934852]",19.612987600034103,None,16.547635299968533,None,,,,001,2021_Nov_04_1636,TMTAB,2021.2.3,143.30938630824878,
B,['1'],TMTstop-A_1_a.png,TMTstop-A_1_afirstgreen.png,TMTstop-A_1_afirstred.png,10,,,,,0,1,1,1,,,,,,,,,,,,,20.321278300019912,None,['1'],1,[0.07612079998943955],20.321278300019912,None,,,,,,001,2021_Nov_04_1636,TMTAB,2021.2.3,143.30938630824878,
C,['3'],TMTstop-A_1_alinestimulus0.png,TMTstop-A_1_agreenlinestimulus0.png,TMTstop-A_1_aredlinestimulus0.png,10,,,,,0,2,2,2,,,,,,,,,,,,,20.473782500019297,None,"['2', '3']",1,"[-0.03287410002667457, 0.08026039996184409]",20.473782500019297,None,,,,,,001,2021_Nov_04_1636,TMTAB,2021.2.3,143.30938630824878,
D,['1'],TMTstop-A_1_alinestimulus1.png,TMTstop-A_1_agreenlinestimulus1.png,TMTstop-A_1_aredlinestimulus1.png,10,,,,,0,3,3,3,,,,,,,,,,,,,20.627353599993512,None,['1'],1,[0.06310869997832924],20.627353599993512,None,,,,,,001,2021_Nov_04_1636,TMTAB,2021.2.3,143.30938630824878,
E,['2'],TMTstop-A_1_alinestimulus2.png,TMTstop-A_1_agreenlinestimulus2.png,TMTstop-A_1_aredlinestimulus2.png,10,,,,,0,4,4,4,,,,,,,,,,,,,20.765752400038764,None,['2'],1,[-0.016170499962754548],20.765752400038764,None,,,,,,001,2021_Nov_04_1636,TMTAB,2021.2.3,143.30938630824878,
F,['1'],TMTstop-A_1_alinestimulus3.png,TMTstop-A_1_agreenlinestimulus3.png,TMTstop-A_1_aredlinestimulus3.png,10,,,,,0,5,5,5,,,,,,,,,,,,,20.842358499998227,None,"['3', '1']",1,"[0.004808300058357418, 0.12357470009010285]",20.842358499998227,None,,,,,,001,2021_Nov_04_1636,TMTAB,2021.2.3,143.30938630824878,
G,['2'],TMTstop-A_1_alinestimulus4.png,TMTstop-A_1_agreenlinestimulus4.png,TMTstop-A_1_aredlinestimulus4.png,10,,,,,0,6,6,6,,,,,,,,,,,,,21.043319300049916,None,['2'],1,[-0.014185399981215596],21.043319300049916,None,,,,,,001,2021_Nov_04_1636,TMTAB,2021.2.3,143.30938630824878,
H,['3'],TMTstop-A_1_alinestimulus5.png,TMTstop-A_1_agreenlinestimulus5.png,TMTstop-A_1_aredlinestimulus5.png,10,,,,,0,7,7,7,,,,,,,,,,,,,21.1129400000209,None,['3'],1,[0.013050299952737987],21.1129400000209,None,,,,,,001,2021_Nov_04_1636,TMTAB,2021.2.3,143.30938630824878,
I,['1'],TMTstop-A_1_alinestimulus6.png,TMTstop-A_1_agreenlinestimulus6.png,TMTstop-A_1_aredlinestimulus6.png,10,,,,,0,8,8,8,,,,,,,,,,,,,21.196145600057207,None,['1'],1,[0.05250629992224276],21.196145600057207,None,,,,,,001,2021_Nov_04_1636,TMTAB,2021.2.3,143.30938630824878,
J,['3'],TMTstop-A_1_alinestimulus7.png,TMTstop-A_1_agreenlinestimulus7.png,TMTstop-A_1_aredlinestimulus7.png,10,,,,,0,9,9,9,,,,,,,,,,,,,21.320963000063784,None,"['2', '3']",1,"[-0.014763700077310205, 0.08062339993193746]",21.320963000063784,None,,,,,,001,2021_Nov_04_1636,TMTAB,2021.2.3,143.30938630824878,
K,['1'],TMTstop-A_1_alinestimulus8.png,TMTstop-A_1_agreenlinestimulus8.png,TMTstop-A_1_aredlinestimulus8.png,10,,,,,0,10,10,10,,,,,,,,,,,,,21.480837000068277,None,['1'],1,[0.05557029996998608],21.480837000068277,None,,,,,,001,2021_Nov_04_1636,TMTAB,2021.2.3,143.30938630824878,
L,['3'],TMTstop-A_1_alinestimulus9.png,TMTstop-A_1_agreenlinestimulus9.png,TMTstop-A_1_aredlinestimulus9.png,10,,,,,0,11,11,11,,,,,,,,,,,,,21.605778299970552,None,"['2', '3']",1,"[-0.008435099967755377, 0.09457210008986294]",21.605778299970552,None,,,,,,001,2021_Nov_04_1636,TMTAB,2021.2.3,143.30938630824878,
M,['2'],TMTstop-A_1_alinestimulus10.png,TMTstop-A_1_agreenlinestimulus10.png,TMTstop-A_1_aredlinestimulus10.png,1,,,,,0,12,12,12,,,,,,,,,,,,,21.823127400013618,None,"['1', '2']",1,"[-0.0005052000051364303, 0.05185359995812178]",21.823127400013618,None,,,,,,001,2021_Nov_04_1636,TMTAB,2021.2.3,143.30938630824878,
N,['1'],TMTstop-A_1_alinestimulus11.png,TMTstop-A_1_agreenlinestimulus11.png,TMTstop-A_1_aredlinestimulus11.png,None,,,,,0,13,13,13,,,,,,,,,,,,,22.00292600004468,None,"['3', '1']",1,"[-0.011655400041490793, 0.11072740005329251]",22.00292600004468,None,,,,,,001,2021_Nov_04_1636,TMTAB,2021.2.3,143.30938630824878,
O,['3'],TMTstop-A_1_alinestimulus12.png,TMTstop-A_1_agreenlinestimulus12.png,TMTstop-A_1_aredlinestimulus12.png,None,,,,,0,14,14,14,,,,,,,,,,,,,22.224090400035493,None,"['2', '3']",1,"[-0.0642863999819383, 0.04391879995819181]",22.224090400035493,None,,,,,,001,2021_Nov_04_1636,TMTAB,2021.2.3,143.30938630824878,
P,['1'],TMTstop-A_1_alinestimulus13.png,TMTstop-A_1_agreenlinestimulus13.png,TMTstop-A_1_aredlinestimulus13.png,None,,,,,0,15,15,15,,,,,,,,,,,,,22.41205980000086,None,['1'],1,[-0.01600860001053661],22.41205980000086,None,,,,,,001,2021_Nov_04_1636,TMTAB,2021.2.3,143.30938630824878,
Q,['3'],TMTstop-A_1_alinestimulus14.png,TMTstop-A_1_agreenlinestimulus14.png,TMTstop-A_1_aredlinestimulus14.png,None,,,,,0,16,16,16,,,,,,,,,,,,,22.48809340002481,None,"['2', '3']",1,"[-0.03119400003924966, 0.09341730002779514]",22.48809340002481,None,,,,,,001,2021_Nov_04_1636,TMTAB,2021.2.3,143.30938630824878,
R,['1'],TMTstop-A_1_alinestimulus15.png,TMTstop-A_1_agreenlinestimulus15.png,TMTstop-A_1_aredlinestimulus15.png,None,,,,,0,17,17,17,,,,,,,,,,,,,22.661288000061177,None,['1'],1,[0.06934519996866584],22.661288000061177,None,,,,,,001,2021_Nov_04_1636,TMTAB,2021.2.3,143.30938630824878,
S,['3'],TMTstop-A_1_alinestimulus16.png,TMTstop-A_1_agreenlinestimulus16.png,TMTstop-A_1_aredlinestimulus16.png,None,,,,,0,18,18,18,,,,,,,,,,,,,22.800282799988054,None,"['2', '3']",1,"[-0.016413499950431287, 0.0955987999914214]",22.800282799988054,None,,,,,,001,2021_Nov_04_1636,TMTAB,2021.2.3,143.30938630824878,
T,['1'],TMTstop-A_1_alinestimulus17.png,TMTstop-A_1_agreenlinestimulus17.png,TMTstop-A_1_aredlinestimulus17.png,None,,,,,0,19,19,19,,,,,,,,,,,,,22.995377599960193,None,['1'],1,[0.036448200000450015],22.995377599960193,None,,,,,,001,2021_Nov_04_1636,TMTAB,2021.2.3,143.30938630824878,
U,['2'],TMTstop-A_1_alinestimulus18.png,TMTstop-A_1_agreenlinestimulus18.png,TMTstop-A_1_aredlinestimulus18.png,None,,,,,0,20,20,20,,,,,,,,,,,,,23.10582749999594,None,['2'],1,[-0.004838299937546253],23.10582749999594,None,,,,,,001,2021_Nov_04_1636,TMTAB,2021.2.3,143.30938630824878,
V,['1'],TMTstop-A_1_alinestimulus19.png,TMTstop-A_1_agreenlinestimulus19.png,TMTstop-A_1_aredlinestimulus19.png,None,,,,,0,21,21,21,,,,,,,,,,,,,23.181977899977937,None,"['3', '1']",1,"[0.03310830006375909, 0.1786654000170529]",23.181977899977937,None,,,,,,001,2021_Nov_04_1636,TMTAB,2021.2.3,143.30938630824878,
W,['3'],TMTstop-A_1_alinestimulus20.png,TMTstop-A_1_agreenlinestimulus20.png,TMTstop-A_1_aredlinestimulus20.png,None,,,,,0,22,22,22,,,,,,,,,,,,,23.460639200056903,None,"['2', '3']",1,"[-0.058228000067174435, 0.06480940000619739]",23.460639200056903,None,,,,,,001,2021_Nov_04_1636,TMTAB,2021.2.3,143.30938630824878,
X,['1'],TMTstop-A_1_alinestimulus21.png,TMTstop-A_1_agreenlinestimulus21.png,TMTstop-A_1_aredlinestimulus21.png,None,,,,,0,23,23,23,,,,,,,,,,,,,23.614376800018363,None,['1'],1,[0.4333599000237882],23.614376800018363,None,,,,,,001,2021_Nov_04_1636,TMTAB,2021.2.3,143.30938630824878,
Y,['3'],TMTstop-A_1_alinestimulus22.png,TMTstop-A_1_agreenlinestimulus22.png,TMTstop-A_1_aredlinestimulus22.png,None,,,,,0,24,24,24,,,,,,,,,,,,,24.126745800022036,None,"['2', '3']",1,"[0.08055329998023808, 0.9264908999903128]",24.126745800022036,None,,,,,,001,2021_Nov_04_1636,TMTAB,2021.2.3,143.30938630824878,
None,None,TMTstop-A_1_alinestimulus23.png,TMTstop-A_1_agreenlinestimulus23.png,TMTstop-A_1_aredlinestimulus23.png,None,,,,,0,25,25,25,,,,,,,,,,,,,25.154384099994786,None,None,1,,25.154384099994786,None,,,,,,001,2021_Nov_04_1636,TMTAB,2021.2.3,143.30938630824878,
1,['3'],TMTstop-A_1_2.png,TMTstop-A_1_2.png,TMTstop-A_1_2.png,10,,,,,,,,,0,0,0,0,,,,,,,,,29.237262099981308,None,['3'],1,[2.5503846000647172],29.237262099981308,None,26.165394700015895,None,,,,001,2021_Nov_04_1636,TMTAB,2021.2.3,143.30938630824878,
2,['2'],TMTstop-A_1_2.png,TMTstop-A_1_2firstgreen.png,TMTstop-A_1_2firstred.png,10,,,,,,,,,0,1,1,1,,,,,,,,,31.869221000000834,None,['2'],1,[0.7284102999838069],31.869221000000834,None,,,,,,001,2021_Nov_04_1636,TMTAB,2021.2.3,143.30938630824878,
3,['1'],TMTstop-A_1_2linestimulus0.png,TMTstop-A_1_2greenlinestimulus0.png,TMTstop-A_1_2redlinestimulus0.png,10,,,,,,,,,0,2,2,2,,,,,,,,,32.69738230004441,None,['1'],1,[0.7395140000153333],32.69738230004441,None,,,,,,001,2021_Nov_04_1636,TMTAB,2021.2.3,143.30938630824878,
4,['3'],TMTstop-A_1_2linestimulus1.png,TMTstop-A_1_2greenlinestimulus1.png,TMTstop-A_1_2redlinestimulus1.png,10,,,,,,,,,0,3,3,3,,,,,,,,,33.51595749997068,None,['3'],1,[1.0024944000178948],33.51595749997068,None,,,,,,001,2021_Nov_04_1636,TMTAB,2021.2.3,143.30938630824878,
5,['1'],TMTstop-A_1_2linestimulus2.png,TMTstop-A_1_2greenlinestimulus2.png,TMTstop-A_1_2redlinestimulus2.png,10,,,,,,,,,0,4,4,4,,,,,,,,,34.59901880007237,None,['1'],1,[1.2322834000224248],34.59901880007237,None,,,,,,001,2021_Nov_04_1636,TMTAB,2021.2.3,143.30938630824878,
6,['2'],TMTstop-A_1_2linestimulus3.png,TMTstop-A_1_2greenlinestimulus3.png,TMTstop-A_1_2redlinestimulus3.png,10,,,,,,,,,0,5,5,5,,,,,,,,,35.90403109998442,None,['2'],1,[0.5605769000248984],35.90403109998442,None,,,,,,001,2021_Nov_04_1636,TMTAB,2021.2.3,143.30938630824878,
7,['1'],TMTstop-A_1_2linestimulus4.png,TMTstop-A_1_2greenlinestimulus4.png,TMTstop-A_1_2redlinestimulus4.png,10,,,,,,,,,0,6,6,6,,,,,,,,,36.54286210006103,None,['1'],1,[1.0289948000572622],36.54286210006103,None,,,,,,001,2021_Nov_04_1636,TMTAB,2021.2.3,143.30938630824878,
8,['2'],TMTstop-A_1_2linestimulus5.png,TMTstop-A_1_2greenlinestimulus5.png,TMTstop-A_1_2redlinestimulus5.png,10,,,,,,,,,0,7,7,7,,,,,,,,,37.64699979999568,None,['2'],1,[2.6522508000489324],37.64699979999568,None,,,,,,001,2021_Nov_04_1636,TMTAB,2021.2.3,143.30938630824878,
9,['1'],TMTstop-A_1_2linestimulus6.png,TMTstop-A_1_2greenlinestimulus6.png,TMTstop-A_1_2redlinestimulus6.png,10,,,,,,,,,0,8,8,8,,,,,,,,,40.369161700014956,None,['1'],1,[0.7639940000372007],40.369161700014956,None,,,,,,001,2021_Nov_04_1636,TMTAB,2021.2.3,143.30938630824878,
10,['3'],TMTstop-A_1_2linestimulus7.png,TMTstop-A_1_2greenlinestimulus7.png,TMTstop-A_1_2redlinestimulus7.png,10,,,,,,,,,0,9,9,9,,,,,,,,,41.20239250001032,None,['3'],1,[1.3506847000680864],41.20239250001032,None,,,,,,001,2021_Nov_04_1636,TMTAB,2021.2.3,143.30938630824878,
11,['1'],TMTstop-A_1_2linestimulus8.png,TMTstop-A_1_2greenlinestimulus8.png,TMTstop-A_1_2redlinestimulus8.png,10,,,,,,,,,0,10,10,10,,,,,,,,,42.633446200052276,None,['1'],1,[0.7185126999393106],42.633446200052276,None,,,,,,001,2021_Nov_04_1636,TMTAB,2021.2.3,143.30938630824878,
12,['3'],TMTstop-A_1_2linestimulus9.png,TMTstop-A_1_2greenlinestimulus9.png,TMTstop-A_1_2redlinestimulus9.png,10,,,,,,,,,0,11,11,11,,,,,,,,,43.424731499981135,None,['3'],1,[1.0225932000903413],43.424731499981135,None,,,,,,001,2021_Nov_04_1636,TMTAB,2021.2.3,143.30938630824878,
13,['1'],TMTstop-A_1_2linestimulus10.png,TMTstop-A_1_2greenlinestimulus10.png,TMTstop-A_1_2redlinestimulus10.png,1,,,,,,,,,0,12,12,12,,,,,,,,,44.52888530003838,None,['1'],1,[0.9655016999458894],44.52888530003838,None,,,,,,001,2021_Nov_04_1636,TMTAB,2021.2.3,143.30938630824878,
14,['2'],TMTstop-A_1_2linestimulus11.png,TMTstop-A_1_2greenlinestimulus11.png,TMTstop-A_1_2redlinestimulus11.png,None,,,,,,,,,0,13,13,13,,,,,,,,,45.57736270001624,None,['2'],1,[0.5077584000537172],45.57736270001624,None,,,,,,001,2021_Nov_04_1636,TMTAB,2021.2.3,143.30938630824878,
15,['3'],TMTstop-A_1_2linestimulus12.png,TMTstop-A_1_2greenlinestimulus12.png,TMTstop-A_1_2redlinestimulus12.png,None,,,,,,,,,0,14,14,14,,,,,,,,,46.16061120002996,None,['3'],1,[0.5900197000009939],46.16061120002996,None,,,,,,001,2021_Nov_04_1636,TMTAB,2021.2.3,143.30938630824878,
16,['1'],TMTstop-A_1_2linestimulus13.png,TMTstop-A_1_2greenlinestimulus13.png,TMTstop-A_1_2redlinestimulus13.png,None,,,,,,,,,0,15,15,15,,,,,,,,,46.82712779997382,None,['1'],1,[0.8197494000196457],46.82712779997382,None,,,,,,001,2021_Nov_04_1636,TMTAB,2021.2.3,143.30938630824878,
17,['2'],TMTstop-A_1_2linestimulus14.png,TMTstop-A_1_2greenlinestimulus14.png,TMTstop-A_1_2redlinestimulus14.png,None,,,,,,,,,0,16,16,16,,,,,,,,,47.71615280001424,None,['2'],1,[0.8703830000013113],47.71615280001424,None,,,,,,001,2021_Nov_04_1636,TMTAB,2021.2.3,143.30938630824878,
18,['3'],TMTstop-A_1_2linestimulus15.png,TMTstop-A_1_2greenlinestimulus15.png,TMTstop-A_1_2redlinestimulus15.png,None,,,,,,,,,0,17,17,17,,,,,,,,,48.6605208000401,None,['3'],1,[0.6953604000154883],48.6605208000401,None,,,,,,001,2021_Nov_04_1636,TMTAB,2021.2.3,143.30938630824878,
19,['1'],TMTstop-A_1_2linestimulus16.png,TMTstop-A_1_2greenlinestimulus16.png,TMTstop-A_1_2redlinestimulus16.png,None,,,,,,,,,0,18,18,18,,,,,,,,,49.445235399995,None,['1'],1,[0.771789800026454],49.445235399995,None,,,,,,001,2021_Nov_04_1636,TMTAB,2021.2.3,143.30938630824878,
20,['3'],TMTstop-A_1_2linestimulus17.png,TMTstop-A_1_2greenlinestimulus17.png,TMTstop-A_1_2redlinestimulus17.png,None,,,,,,,,,0,19,19,19,,,,,,,,,50.292458200012334,None,['3'],1,[0.8241296999622136],50.292458200012334,None,,,,,,001,2021_Nov_04_1636,TMTAB,2021.2.3,143.30938630824878,
21,['1'],TMTstop-A_1_2linestimulus18.png,TMTstop-A_1_2greenlinestimulus18.png,TMTstop-A_1_2redlinestimulus18.png,None,,,,,,,,,0,20,20,20,,,,,,,,,51.195447999984026,None,['1'],1,[1.74288640008308],51.195447999984026,None,,,,,,001,2021_Nov_04_1636,TMTAB,2021.2.3,143.30938630824878,
22,['2'],TMTstop-A_1_2linestimulus19.png,TMTstop-A_1_2greenlinestimulus19.png,TMTstop-A_1_2redlinestimulus19.png,None,,,,,,,,,0,21,21,21,,,,,,,,,53.01503270003013,None,['2'],1,[0.6165986999403685],53.01503270003013,None,,,,,,001,2021_Nov_04_1636,TMTAB,2021.2.3,143.30938630824878,
23,['1'],TMTstop-A_1_2linestimulus20.png,TMTstop-A_1_2greenlinestimulus20.png,TMTstop-A_1_2redlinestimulus20.png,None,,,,,,,,,0,22,22,22,,,,,,,,,53.72448590002023,None,['1'],1,[0.6302600000053644],53.72448590002023,None,,,,,,001,2021_Nov_04_1636,TMTAB,2021.2.3,143.30938630824878,
24,['2'],TMTstop-A_1_2linestimulus21.png,TMTstop-A_1_2greenlinestimulus21.png,TMTstop-A_1_2redlinestimulus21.png,None,,,,,,,,,0,23,23,23,,,,,,,,,54.43126900005154,None,['2'],1,[0.9601892000064254],54.43126900005154,None,,,,,,001,2021_Nov_04_1636,TMTAB,2021.2.3,143.30938630824878,
25,['1'],TMTstop-A_1_2linestimulus22.png,TMTstop-A_1_2greenlinestimulus22.png,TMTstop-A_1_2redlinestimulus22.png,None,,,,,,,,,0,24,24,24,,,,,,,,,55.47278409998398,None,['1'],1,[0.9028177000582218],55.47278409998398,None,,,,,,001,2021_Nov_04_1636,TMTAB,2021.2.3,143.30938630824878,
None,None,TMTstop-A_1_2linestimulus23.png,TMTstop-A_1_2greenlinestimulus23.png,TMTstop-A_1_2redlinestimulus23.png,None,,,,,,,,,0,25,25,25,,,,,,,,,56.44509709998965,None,None,1,,56.44509709998965,None,,,,,,001,2021_Nov_04_1636,TMTAB,2021.2.3,143.30938630824878,
A,['3'],TMTstop-A_1_b.png,TMTstop-A_1_b.png,TMTstop-A_1_b.png,10,,,,,,,,,,,,,0,0,0,0,,,,,60.52874109998811,None,['3'],1,[1.738650600076653],60.52874109998811,None,57.45632750005461,None,,,,001,2021_Nov_04_1636,TMTAB,2021.2.3,143.30938630824878,
B,['1'],TMTstop-A_1_b.png,TMTstop-A_1_bfirstgreen.png,TMTstop-A_1_bfirstred.png,10,,,,,,,,,,,,,0,1,1,1,,,,,62.34767839999404,None,['1'],1,[1.5894357999786735],62.34767839999404,None,,,,,,001,2021_Nov_04_1636,TMTAB,2021.2.3,143.30938630824878,
C,['2'],TMTstop-A_1_blinestimulus0.png,TMTstop-A_1_bgreenlinestimulus0.png,TMTstop-A_1_bredlinestimulus0.png,10,,,,,,,,,,,,,0,2,2,2,,,,,64.02240240003448,None,['2'],1,[0.5876226999098435],64.02240240003448,None,,,,,,001,2021_Nov_04_1636,TMTAB,2021.2.3,143.30938630824878,
D,['3'],TMTstop-A_1_blinestimulus1.png,TMTstop-A_1_bgreenlinestimulus1.png,TMTstop-A_1_bredlinestimulus1.png,10,,,,,,,,,,,,,0,3,3,3,,,,,64.68797299999278,None,"['1', '2', '3']",1,"[0.2921335999853909, 0.5784207000397146, 0.7946939000394195]",64.68797299999278,None,,,,,,001,2021_Nov_04_1636,TMTAB,2021.2.3,143.30938630824878,
E,['2'],TMTstop-A_1_blinestimulus2.png,TMTstop-A_1_bgreenlinestimulus2.png,TMTstop-A_1_bredlinestimulus2.png,10,,,,,,,,,,,,,0,4,4,4,,,,,65.59732760000043,None,"['1', '2']",1,"[0.15045640000607818, 0.2683680000482127]",65.59732760000043,None,,,,,,001,2021_Nov_04_1636,TMTAB,2021.2.3,143.30938630824878,
F,['1'],TMTstop-A_1_blinestimulus3.png,TMTstop-A_1_bgreenlinestimulus3.png,TMTstop-A_1_bredlinestimulus3.png,10,,,,,,,,,,,,,0,5,5,5,,,,,65.94473109999672,None,"['3', '1']",1,"[0.018519000033847988, 0.21313430008012801]",65.94473109999672,None,,,,,,001,2021_Nov_04_1636,TMTAB,2021.2.3,143.30938630824878,
G,['3'],TMTstop-A_1_blinestimulus4.png,TMTstop-A_1_bgreenlinestimulus4.png,TMTstop-A_1_bredlinestimulus4.png,10,,,,,,,,,,,,,0,6,6,6,,,,,66.25055870006327,None,"['2', '3']",1,"[-0.009384599979966879, 0.12407659995369613]",66.25055870006327,None,,,,,,001,2021_Nov_04_1636,TMTAB,2021.2.3,143.30938630824878,
H,['1'],TMTstop-A_1_blinestimulus5.png,TMTstop-A_1_bgreenlinestimulus5.png,TMTstop-A_1_bredlinestimulus5.png,10,,,,,,,,,,,,,0,7,7,7,,,,,66.44505720003508,None,['1'],1,[0.1376819999422878],66.44505720003508,None,,,,,,001,2021_Nov_04_1636,TMTAB,2021.2.3,143.30938630824878,
I,['2'],TMTstop-A_1_blinestimulus6.png,TMTstop-A_1_bgreenlinestimulus6.png,TMTstop-A_1_bredlinestimulus6.png,10,,,,,,,,,,,,,0,8,8,8,,,,,66.65365270001348,None,['2'],1,[-0.0057409999426454306],66.65365270001348,None,,,,,,001,2021_Nov_04_1636,TMTAB,2021.2.3,143.30938630824878,
J,['1'],TMTstop-A_1_blinestimulus7.png,TMTstop-A_1_bgreenlinestimulus7.png,TMTstop-A_1_bredlinestimulus7.png,10,,,,,,,,,,,,,0,9,9,9,,,,,66.72935480007436,None,"['3', '1']",1,"[0.045844399952329695, 0.45815500000026077]",66.72935480007436,None,,,,,,001,2021_Nov_04_1636,TMTAB,2021.2.3,143.30938630824878,
K,['3'],TMTstop-A_1_blinestimulus8.png,TMTstop-A_1_bgreenlinestimulus8.png,TMTstop-A_1_bredlinestimulus8.png,10,,,,,,,,,,,,,0,10,10,10,,,,,67.27135509997606,None,"['2', '3']",1,"[0.012077799998223782, 0.11058129998855293]",67.27135509997606,None,,,,,,001,2021_Nov_04_1636,TMTAB,2021.2.3,143.30938630824878,
L,['2'],TMTstop-A_1_blinestimulus9.png,TMTstop-A_1_bgreenlinestimulus9.png,TMTstop-A_1_bredlinestimulus9.png,10,,,,,,,,,,,,,0,11,11,11,,,,,67.47997530002613,None,"['1', '2']",1,"[0.2989088000031188, 0.36694510001689196]",67.47997530002613,None,,,,,,001,2021_Nov_04_1636,TMTAB,2021.2.3,143.30938630824878,
M,['1'],TMTstop-A_1_blinestimulus10.png,TMTstop-A_1_bgreenlinestimulus10.png,TMTstop-A_1_bredlinestimulus10.png,1,,,,,,,,,,,,,0,12,12,12,,,,,67.93854830006603,None,"['3', '1']",1,"[0.04646119999233633, 0.3066380999516696]",67.93854830006603,None,,,,,,001,2021_Nov_04_1636,TMTAB,2021.2.3,143.30938630824878,
N,['3'],TMTstop-A_1_blinestimulus11.png,TMTstop-A_1_bgreenlinestimulus11.png,TMTstop-A_1_bredlinestimulus11.png,None,,,,,,,,,,,,,0,13,13,13,,,,,68.3197684000479,None,"['2', '3']",1,"[0.009422000031918287, 0.1406788999447599]",68.3197684000479,None,,,,,,001,2021_Nov_04_1636,TMTAB,2021.2.3,143.30938630824878,
O,['1'],TMTstop-A_1_blinestimulus12.png,TMTstop-A_1_bgreenlinestimulus12.png,TMTstop-A_1_bredlinestimulus12.png,None,,,,,,,,,,,,,0,14,14,14,,,,,68.57051150000188,None,['1'],1,[0.1571391000179574],68.57051150000188,None,,,,,,001,2021_Nov_04_1636,TMTAB,2021.2.3,143.30938630824878,
P,['2'],TMTstop-A_1_blinestimulus13.png,TMTstop-A_1_bgreenlinestimulus13.png,TMTstop-A_1_bredlinestimulus13.png,None,,,,,,,,,,,,,0,15,15,15,,,,,68.80582790006883,None,['2'],1,[0.09716090001165867],68.80582790006883,None,,,,,,001,2021_Nov_04_1636,TMTAB,2021.2.3,143.30938630824878,
Q,['3'],TMTstop-A_1_blinestimulus14.png,TMTstop-A_1_bgreenlinestimulus14.png,TMTstop-A_1_bredlinestimulus14.png,None,,,,,,,,,,,,,0,16,16,16,,,,,68.97259680007119,None,['3'],1,[0.030375499976798892],68.97259680007119,None,,,,,,001,2021_Nov_04_1636,TMTAB,2021.2.3,143.30938630824878,
R,['2'],TMTstop-A_1_blinestimulus15.png,TMTstop-A_1_bgreenlinestimulus15.png,TMTstop-A_1_bredlinestimulus15.png,None,,,,,,,,,,,,,0,17,17,17,,,,,69.08425209997222,None,"['1', '2']",1,"[0.3743015000363812, 0.5029847000259906]",69.08425209997222,None,,,,,,001,2021_Nov_04_1636,TMTAB,2021.2.3,143.30938630824878,
S,['3'],TMTstop-A_1_blinestimulus16.png,TMTstop-A_1_bgreenlinestimulus16.png,TMTstop-A_1_bredlinestimulus16.png,None,,,,,,,,,,,,,0,18,18,18,,,,,69.69568930007517,None,['3'],1,[-0.023320699925534427],69.69568930007517,None,,,,,,001,2021_Nov_04_1636,TMTAB,2021.2.3,143.30938630824878,
T,['2'],TMTstop-A_1_blinestimulus17.png,TMTstop-A_1_bgreenlinestimulus17.png,TMTstop-A_1_bredlinestimulus17.png,None,,,,,,,,,,,,,0,19,19,19,,,,,69.76447120006196,None,"['1', '2']",1,"[0.3763690999476239, 0.4666023999452591]",69.76447120006196,None,,,,,,001,2021_Nov_04_1636,TMTAB,2021.2.3,143.30938630824878,
U,['3'],TMTstop-A_1_blinestimulus18.png,TMTstop-A_1_bgreenlinestimulus18.png,TMTstop-A_1_bredlinestimulus18.png,None,,,,,,,,,,,,,0,20,20,20,,,,,70.3410563999787,None,['3'],1,[0.03270680003333837],70.3410563999787,None,,,,,,001,2021_Nov_04_1636,TMTAB,2021.2.3,143.30938630824878,
V,['2'],TMTstop-A_1_blinestimulus19.png,TMTstop-A_1_bgreenlinestimulus19.png,TMTstop-A_1_bredlinestimulus19.png,None,,,,,,,,,,,,,0,21,21,21,,,,,70.45265950006433,None,"['1', '2']",1,"[0.4513730000471696, 0.973706700024195]",70.45265950006433,None,,,,,,001,2021_Nov_04_1636,TMTAB,2021.2.3,143.30938630824878,
W,['3'],TMTstop-A_1_blinestimulus20.png,TMTstop-A_1_bgreenlinestimulus20.png,TMTstop-A_1_bredlinestimulus20.png,None,,,,,,,,,,,,,0,22,22,22,,,,,71.53501310001593,None,['3'],1,[0.7427714000223204],71.53501310001593,None,,,,,,001,2021_Nov_04_1636,TMTAB,2021.2.3,143.30938630824878,
X,['1'],TMTstop-A_1_blinestimulus21.png,TMTstop-A_1_bgreenlinestimulus21.png,TMTstop-A_1_bredlinestimulus21.png,None,,,,,,,,,,,,,0,23,23,23,,,,,72.34737350000069,None,"['2', '1']",1,"[0.4815104000736028, 8.548820900032297]",72.34737350000069,None,,,,,,001,2021_Nov_04_1636,TMTAB,2021.2.3,143.30938630824878,
Y,['2'],TMTstop-A_1_blinestimulus22.png,TMTstop-A_1_bgreenlinestimulus22.png,TMTstop-A_1_bredlinestimulus22.png,None,,,,,,,,,,,,,0,24,24,24,,,,,80.96545610006433,None,['2'],1,[1.2799744999501854],80.96545610006433,None,,,,,,001,2021_Nov_04_1636,TMTAB,2021.2.3,143.30938630824878,
None,None,TMTstop-A_1_blinestimulus23.png,TMTstop-A_1_bgreenlinestimulus23.png,TMTstop-A_1_bredlinestimulus23.png,None,,,,,,,,,,,,,0,25,25,25,,,,,82.3267504000105,None,None,1,,82.3267504000105,None,,,,,,001,2021_Nov_04_1636,TMTAB,2021.2.3,143.30938630824878,
,,,,,,,,,,,,,,,,,,,,,,,,,,,,,,,,,,,83.32411729998421,None,,,,,,,
