NumberLetter,corrAns,Correct,StimFile,Correct_StimFile,False_StimFile,Version,Block,TrialNumber_session,n,Stim.started_mean,Stim.started_raw,Stim.started_std,Stim.stopped_raw,key_resp_2.corr_mean,key_resp_2.corr_raw,key_resp_2.corr_std,key_resp_2.keys_raw,key_resp_2.rt_raw,key_resp_2.started_mean,key_resp_2.started_raw,key_resp_2.started_std,key_resp_2.stopped_raw,order
1,['2'],2,TMTstop-control_1_1.png,TMTstop-control_1_1.png,TMTstop-control_1_1.png,TMT_Control,1,1,1.0,11.508539199829102,11.508539199829102,0.0,,1.0,1.0,0.0,2,-3.085857299854979,11.508539199829102,11.508539199829102,0.0,,0.0
2,['1'],1,TMTstop-control_1_1.png,TMTstop-control_1_1firstgreen.png,TMTstop-control_1_1firstred.png,TMT_Control,1,2,1.0,11.611749649047852,11.611749649047852,0.0,,1.0,1.0,0.0,1,0.3371222000569105,11.611749649047852,11.611749649047852,0.0,,1.0
3,['2'],2,TMTstop-control_1_1linestimulus0.png,TMTstop-control_1_1greenlinestimulus0.png,TMTstop-control_1_1redlinestimulus0.png,TMT_Control,1,3,1.0,12.035942077636719,12.035942077636719,0.0,,1.0,1.0,0.0,2,0.04866919992491603,12.035942077636719,12.035942077636719,0.0,,2.0
4,['3'],3,TMTstop-control_1_1linestimulus1.png,TMTstop-control_1_1greenlinestimulus1.png,TMTstop-control_1_1redlinestimulus1.png,TMT_Control,1,4,1.0,12.160555839538574,12.160555839538574,0.0,,1.0,1.0,0.0,3,-0.03810400003567338,12.160555839538574,12.160555839538574,0.0,,3.0
5,['2'],2,TMTstop-control_1_1linestimulus2.png,TMTstop-control_1_1greenlinestimulus2.png,TMTstop-control_1_1redlinestimulus2.png,TMT_Control,1,5,1.0,12.237113952636719,12.237113952636719,0.0,,1.0,1.0,0.0,1,2,0.040259200148284435,0.10148450010456145,12.237113952636719,12.237113952636719,0.0,,4.0
6,['1'],1,TMTstop-control_1_1linestimulus3.png,TMTstop-control_1_1greenlinestimulus3.png,TMTstop-control_1_1redlinestimulus3.png,TMT_Control,1,6,1.0,12.438508033752441,12.438508033752441,0.0,,1.0,1.0,0.0,3,1,-0.0226863999851048,0.11516769998706877,12.438508033752441,12.438508033752441,0.0,,5.0
7,['3'],3,TMTstop-control_1_1linestimulus4.png,TMTstop-control_1_1greenlinestimulus4.png,TMTstop-control_1_1redlinestimulus4.png,TMT_Control,1,7,1.0,12.640035629272461,12.640035629272461,0.0,,1.0,1.0,0.0,2,3,-0.049970800057053566,0.06492799986153841,12.640035629272461,12.640035629272461,0.0,,6.0
8,['2'],2,TMTstop-control_1_1linestimulus4.png,TMTstop-control_1_1greenlinestimulus5.png,TMTstop-control_1_1redlinestimulus5.png,TMT_Control,1,8,1.0,12.800748825073242,12.800748825073242,0.0,,1.0,1.0,0.0,1,2,0.04620660003274679,0.07274730014614761,12.800748825073242,12.800748825073242,0.0,,7.0
9,['3'],3,TMTstop-control_1_1linestimulus6.png,TMTstop-control_1_1greenlinestimulus6.png,TMTstop-control_1_1redlinestimulus6.png,TMT_Control,1,9,1.0,12.973008155822754,12.973008155822754,0.0,,1.0,1.0,0.0,3,0.043048300081864,12.973008155822754,12.973008155822754,0.0,,8.0
10,['2'],2,TMTstop-control_1_1linestimulus7.png,TMTstop-control_1_1greenlinestimulus7.png,TMTstop-control_1_1redlinestimulus7.png,TMT_Control,1,10,1.0,13.092467308044434,13.092467308044434,0.0,,1.0,1.0,0.0,1,2,0.052594600012525916,0.07465959992259741,13.092467308044434,13.092467308044434,0.0,,9.0
11,['3'],3,TMTstop-control_1_1linestimulus8.png,TMTstop-control_1_1greenlinestimulus8.png,TMTstop-control_1_1redlinestimulus8.png,TMT_Control,1,11,1.0,13.271617889404297,13.271617889404297,0.0,,1.0,1.0,0.0,3,0.03485330007970333,13.271617889404297,13.271617889404297,0.0,,10.0
12,['1'],1,TMTstop-control_1_1linestimulus9.png,TMTstop-control_1_1greenlinestimulus9.png,TMTstop-control_1_1redlinestimulus9.png,TMT_Control,1,12,1.0,13.383133888244629,13.383133888244629,0.0,,1.0,1.0,0.0,1,0.05165680008940399,13.383133888244629,13.383133888244629,0.0,,11.0
13,['3'],3,TMTstop-control_1_1linestimulus10.png,TMTstop-control_1_1greenlinestimulus10.png,TMTstop-control_1_1redlinestimulus10.png,TMT_Control,1,13,1.0,13.51462173461914,13.51462173461914,0.0,,1.0,1.0,0.0,2,3,-0.05831909994594753,0.06892140000127256,13.51462173461914,13.51462173461914,0.0,,12.0
14,['1'],1,TMTstop-control_1_1linestimulus11.png,TMTstop-control_1_1greenlinestimulus11.png,TMTstop-control_1_1redlinestimulus11.png,TMT_Control,1,14,1.0,13.674903869628906,13.674903869628906,0.0,,1.0,1.0,0.0,1,0.06060680001974106,13.674903869628906,13.674903869628906,0.0,,13.0
15,['3'],3,TMTstop-control_1_1linestimulus12.png,TMTstop-control_1_1greenlinestimulus12.png,TMTstop-control_1_1redlinestimulus12.png,TMT_Control,1,15,1.0,13.820221900939941,13.820221900939941,0.0,,1.0,1.0,0.0,2,3,-0.021867400035262108,0.07216760003939271,13.820221900939941,13.820221900939941,0.0,,14.0
16,['1'],1,TMTstop-control_1_1linestimulus13.png,TMTstop-control_1_1greenlinestimulus13.png,TMTstop-control_1_1redlinestimulus13.png,TMT_Control,1,16,1.0,13.98011589050293,13.98011589050293,0.0,,1.0,1.0,0.0,1,0.05315350019373,13.98011589050293,13.98011589050293,0.0,,15.0
17,['2'],2,TMTstop-control_1_1linestimulus14.png,TMTstop-control_1_1greenlinestimulus14.png,TMTstop-control_1_1redlinestimulus14.png,TMT_Control,1,17,1.0,14.11197280883789,14.11197280883789,0.0,,1.0,1.0,0.0,2,-0.04660029988735914,14.11197280883789,14.11197280883789,0.0,,16.0
18,['1'],1,TMTstop-control_1_1linestimulus15.png,TMTstop-control_1_1greenlinestimulus15.png,TMTstop-control_1_1redlinestimulus15.png,TMT_Control,1,18,1.0,14.188211441040039,14.188211441040039,0.0,,1.0,1.0,0.0,3,1,-0.026901999954134226,0.11766460002399981,14.188211441040039,14.188211441040039,0.0,,17.0
19,['3'],3,TMTstop-control_1_1linestimulus16.png,TMTstop-control_1_1greenlinestimulus16.png,TMTstop-control_1_1redlinestimulus16.png,TMT_Control,1,19,1.0,14.392769813537598,14.392769813537598,0.0,,1.0,1.0,0.0,2,3,-0.017932499991729856,0.05834700004197657,14.392769813537598,14.392769813537598,0.0,,18.0
20,['1'],1,TMTstop-control_1_1linestimulus17.png,TMTstop-control_1_1greenlinestimulus17.png,TMTstop-control_1_1redlinestimulus17.png,TMT_Control,1,20,1.0,14.545654296875,14.545654296875,0.0,,1.0,1.0,0.0,1,0.046388400020077825,14.545654296875,14.545654296875,0.0,,19.0
21,['3'],3,TMTstop-control_1_1linestimulus18.png,TMTstop-control_1_1greenlinestimulus18.png,TMTstop-control_1_1redlinestimulus18.png,TMT_Control,1,21,1.0,14.675121307373047,14.675121307373047,0.0,,1.0,1.0,0.0,2,3,-0.024047600105404854,0.06959640001878142,14.675121307373047,14.675121307373047,0.0,,20.0
22,['1'],1,TMTstop-control_1_1linestimulus19.png,TMTstop-control_1_1greenlinestimulus19.png,TMTstop-control_1_1redlinestimulus19.png,TMT_Control,1,22,1.0,14.827746391296387,14.827746391296387,0.0,,1.0,1.0,0.0,1,0.07777739991433918,14.827746391296387,14.827746391296387,0.0,,21.0
23,['3'],3,TMTstop-control_1_1linestimulus20.png,TMTstop-control_1_1greenlinestimulus20.png,TMTstop-control_1_1redlinestimulus20.png,TMT_Control,1,23,1.0,14.986745834350586,14.986745834350586,0.0,,1.0,1.0,0.0,2,3,-0.02392790000885725,0.06444849981926382,14.986745834350586,14.986745834350586,0.0,,22.0
24,['1'],1,TMTstop-control_1_1linestimulus21.png,TMTstop-control_1_1greenlinestimulus21.png,TMTstop-control_1_1redlinestimulus21.png,TMT_Control,1,24,1.0,15.181446075439453,15.181446075439453,0.0,,1.0,1.0,0.0,1,0.013753399951383471,15.181446075439453,15.181446075439453,0.0,,23.0
25,['3'],3,TMTstop-control_1_1linestimulus22.png,TMTstop-control_1_1greenlinestimulus22.png,TMTstop-control_1_1redlinestimulus22.png,TMT_Control,1,25,1.0,15.278698921203613,15.278698921203613,0.0,,1.0,1.0,0.0,2,3,-0.026076599955558777,0.08452880010008812,15.278698921203613,15.278698921203613,0.0,,24.0
None,None,None,TMTstop-control_1_1linestimulus23.png,TMTstop-control_1_1greenlinestimulus23.png,TMTstop-control_1_1redlinestimulus23.png,TMT_Control,1,Feedback_last,1.0,15.479735374450684,15.479735374450684,0.0,,0.0,0.0,0.0,1,2,3,0.015084800077602267,0.04709320003166795,0.18184270011261106,15.479735374450684,15.479735374450684,0.0,,25.0

extraInfo
participant,
session,001
date,2022_Feb_02_1746
expName,TMT_fmri
psychopyVersion,2021.2.3
frameRate,132.12745026607996
