NumberLetter,corrAns,StimFile,Correct_StimFile,False_StimFile,DurationTrial,trials.thisRepN,trials.thisTrialN,trials.thisN,trials.thisIndex,trials_2.thisRepN,trials_2.thisTrialN,trials_2.thisN,trials_2.thisIndex,Instruct.started,Instruct.stopped,text_2.started,text_2.stopped,Stim.started,Stim.stopped,key_resp_2.keys,key_resp_2.corr,key_resp_2.rt,key_resp_2.started,key_resp_2.stopped,polygon.started,polygon.stopped,participant,session,date,expName,psychopyVersion,frameRate,
1,['2'],TMTstop-B_1_1.png,TMTstop-B_1_1.png,TMTstop-B_1_1.png,10,0,0,0,0,,,,,6.070427700062282,None,6.070427700062282,None,6.874843799974769,None,['2'],1,[0.5778719999361783],6.874843799974769,None,,,,001,2021_Nov_03_1612,TMTAB,2021.2.3,144.6715304898212,
A,['1'],TMTstop-B_1_1.png,TMTstop-B_1_1firstgreen.png,TMTstop-B_1_1firstred.png,10,0,1,1,1,,,,,,,,,7.541778700076975,None,"['2', '2', '2', '2', '2']",0,"[0.2395111999940127, 0.48933219991158694, 0.6933039999566972, 0.9092091999482363, 1.1233336000004783]",7.541778700076975,None,,,,001,2021_Nov_03_1612,TMTAB,2021.2.3,144.6715304898212,
2,['3'],TMTstop-B_1_1linestimulus0.png,TMTstop-B_1_1greenlinestimulus0.png,TMTstop-B_1_1redlinestimulus0.png,10,0,2,2,2,,,,,,,,,8.722639700048603,None,"['2', '2', '2', '2', '2']",0,"[0.29103600000962615, 0.504353899974376, 0.7224466999759898, 0.9646224000025541, 1.1990884999977425]",8.722639700048603,None,,,,001,2021_Nov_03_1612,TMTAB,2021.2.3,144.6715304898212,
B,['2'],TMTstop-B_1_1linestimulus1.png,TMTstop-B_1_1greenlinestimulus1.png,TMTstop-B_1_1redlinestimulus1.png,10,0,3,3,3,,,,,,,,,9.972137200064026,None,['2'],1,[0.24012999993283302],9.972137200064026,None,,,,001,2021_Nov_03_1612,TMTAB,2021.2.3,144.6715304898212,
3,['1'],TMTstop-B_1_1linestimulus2.png,TMTstop-B_1_1greenlinestimulus2.png,TMTstop-B_1_1redlinestimulus2.png,10,0,4,4,4,,,,,,,,,10.285114199970849,None,"['2', '2', '2', '2', '2']",0,"[0.20234250009525567, 2.8244760000379756, 3.6083166000898927, 4.273592900019139, 4.835969100007787]",10.285114199970849,None,,,,001,2021_Nov_03_1612,TMTAB,2021.2.3,144.6715304898212,
C,['2'],TMTstop-B_1_1linestimulus3.png,TMTstop-B_1_1greenlinestimulus3.png,TMTstop-B_1_1redlinestimulus3.png,10,0,5,5,5,,,,,,,,,15.194135600002483,None,['2'],1,[1.1171322000445798],15.194135600002483,None,,,,001,2021_Nov_03_1612,TMTAB,2021.2.3,144.6715304898212,
4,['1'],TMTstop-B_1_1linestimulus4.png,TMTstop-B_1_1greenlinestimulus4.png,TMTstop-B_1_1redlinestimulus4.png,10,0,6,6,6,,,,,,,,,16.389020500006154,None,"['2', '2', '2', '2', '2']",0,"[0.7824245999800041, 1.4110798999899998, 1.847874200087972, 2.2701645999914035, 2.614780900068581]",16.389020500006154,None,,,,001,2021_Nov_03_1612,TMTAB,2021.2.3,144.6715304898212,
D,['2'],TMTstop-B_1_1linestimulus5.png,TMTstop-B_1_1greenlinestimulus5.png,TMTstop-B_1_1redlinestimulus5.png,10,0,7,7,7,,,,,,,,,19.07627570000477,None,['2'],1,[0.29126450000330806],19.07627570000477,None,,,,001,2021_Nov_03_1612,TMTAB,2021.2.3,144.6715304898212,
5,['3'],TMTstop-B_1_1linestimulus6.png,TMTstop-B_1_1greenlinestimulus6.png,TMTstop-B_1_1redlinestimulus6.png,10,0,8,8,8,,,,,,,,,19.4446111000143,None,"['2', '2', '2', '2', '2']",0,"[0.237204400007613, 0.48754740005824715, 0.7442625999683514, 1.0038843000074849, 1.2502892999909818]",19.4446111000143,None,,,,001,2021_Nov_03_1612,TMTAB,2021.2.3,144.6715304898212,
E,['1'],TMTstop-B_1_1linestimulus7.png,TMTstop-B_1_1greenlinestimulus7.png,TMTstop-B_1_1redlinestimulus7.png,10,0,9,9,9,,,,,,,,,20.75672800000757,None,"['2', '2', '3', '1']",1,"[0.18791980005335063, 0.4235652000643313, 0.6624729000031948, 0.7941713000182062]",20.75672800000757,None,,,,001,2021_Nov_03_1612,TMTAB,2021.2.3,144.6715304898212,
6,['3'],TMTstop-B_1_1linestimulus8.png,TMTstop-B_1_1greenlinestimulus8.png,TMTstop-B_1_1redlinestimulus8.png,10,0,10,10,10,,,,,,,,,21.666325900005177,None,"['2', '3']",1,"[0.010411399998702109, 0.06826199998613447]",21.666325900005177,None,,,,001,2021_Nov_03_1612,TMTAB,2021.2.3,144.6715304898212,
F,['2'],TMTstop-B_1_1linestimulus9.png,TMTstop-B_1_1greenlinestimulus9.png,TMTstop-B_1_1redlinestimulus9.png,10,0,11,11,11,,,,,,,,,21.847721199970692,None,"['1', '2']",1,"[0.005781499901786447, 0.13815709995105863]",21.847721199970692,None,,,,001,2021_Nov_03_1612,TMTAB,2021.2.3,144.6715304898212,
7,['1'],TMTstop-B_1_1linestimulus10.png,TMTstop-B_1_1greenlinestimulus10.png,TMTstop-B_1_1redlinestimulus10.png,1,0,12,12,12,,,,,,,,,22.062525400076993,None,"['3', '1']",1,"[-0.04047030000947416, 0.09730519994627684]",22.062525400076993,None,,,,001,2021_Nov_03_1612,TMTAB,2021.2.3,144.6715304898212,
G,['3'],TMTstop-B_1_1linestimulus11.png,TMTstop-B_1_1greenlinestimulus11.png,TMTstop-B_1_1redlinestimulus11.png,None,0,13,13,13,,,,,,,,,22.264011100050993,None,"['2', '3']",1,"[-0.020830600056797266, 0.07181110000237823]",22.264011100050993,None,,,,001,2021_Nov_03_1612,TMTAB,2021.2.3,144.6715304898212,
8,['1'],TMTstop-B_1_1linestimulus12.png,TMTstop-B_1_1greenlinestimulus12.png,TMTstop-B_1_1redlinestimulus12.png,None,0,14,14,14,,,,,,,,,22.42433529999107,None,['1'],1,[0.06966480007395148],22.42433529999107,None,,,,001,2021_Nov_03_1612,TMTAB,2021.2.3,144.6715304898212,
H,['2'],TMTstop-B_1_1linestimulus13.png,TMTstop-B_1_1greenlinestimulus13.png,TMTstop-B_1_1redlinestimulus13.png,None,0,15,15,15,,,,,,,,,22.58350850001443,None,['2'],1,[-0.024887599982321262],22.58350850001443,None,,,,001,2021_Nov_03_1612,TMTAB,2021.2.3,144.6715304898212,
9,['3'],TMTstop-B_1_1linestimulus14.png,TMTstop-B_1_1greenlinestimulus14.png,TMTstop-B_1_1redlinestimulus14.png,None,0,16,16,16,,,,,,,,,22.67332499998156,None,['3'],1,[-0.018651200109161437],22.67332499998156,None,,,,001,2021_Nov_03_1612,TMTAB,2021.2.3,144.6715304898212,
I,['2'],TMTstop-B_1_1linestimulus15.png,TMTstop-B_1_1greenlinestimulus15.png,TMTstop-B_1_1redlinestimulus15.png,None,0,17,17,17,,,,,,,,,22.75761600001715,None,"['1', '2']",1,"[0.026229600072838366, 0.1404278000118211]",22.75761600001715,None,,,,001,2021_Nov_03_1612,TMTAB,2021.2.3,144.6715304898212,
10,['1'],TMTstop-B_1_1linestimulus16.png,TMTstop-B_1_1greenlinestimulus16.png,TMTstop-B_1_1redlinestimulus16.png,None,0,18,18,18,,,,,,,,,23.013674600049853,None,"['3', '1']",1,"[-0.05241340002976358, 0.07889470004010946]",23.013674600049853,None,,,,001,2021_Nov_03_1612,TMTAB,2021.2.3,144.6715304898212,
J,['2'],TMTstop-B_1_1linestimulus17.png,TMTstop-B_1_1greenlinestimulus17.png,TMTstop-B_1_1redlinestimulus17.png,None,0,19,19,19,,,,,,,,,23.17427229997702,None,"['3', '1', '2']",1,"[0.07958649995271116, 0.26154289999976754, 0.35250199993606657]",23.17427229997702,None,,,,001,2021_Nov_03_1612,TMTAB,2021.2.3,144.6715304898212,
11,['3'],TMTstop-B_1_1linestimulus18.png,TMTstop-B_1_1greenlinestimulus18.png,TMTstop-B_1_1redlinestimulus18.png,None,0,20,20,20,,,,,,,,,23.611183600034565,None,"['1', '2', '3']",1,"[0.13480930007062852, 0.25469820003490895, 0.38798390002921224]",23.611183600034565,None,,,,001,2021_Nov_03_1612,TMTAB,2021.2.3,144.6715304898212,
K,['1'],TMTstop-B_1_1linestimulus19.png,TMTstop-B_1_1greenlinestimulus19.png,TMTstop-B_1_1redlinestimulus19.png,None,0,21,21,21,,,,,,,,,24.110949099995196,None,['1'],1,[0.027385000023059547],24.110949099995196,None,,,,001,2021_Nov_03_1612,TMTAB,2021.2.3,144.6715304898212,
12,['3'],TMTstop-B_1_1linestimulus20.png,TMTstop-B_1_1greenlinestimulus20.png,TMTstop-B_1_1redlinestimulus20.png,None,0,22,22,22,,,,,,,,,24.215102900052443,None,"['2', '3']",1,"[0.012145599932409823, 0.1517139000352472]",24.215102900052443,None,,,,001,2021_Nov_03_1612,TMTAB,2021.2.3,144.6715304898212,
L,['1'],TMTstop-B_1_1linestimulus21.png,TMTstop-B_1_1greenlinestimulus21.png,TMTstop-B_1_1redlinestimulus21.png,None,0,23,23,23,,,,,,,,,24.479460300062783,None,['1'],1,[0.030613299924880266],24.479460300062783,None,,,,001,2021_Nov_03_1612,TMTAB,2021.2.3,144.6715304898212,
13,['2'],TMTstop-B_1_1linestimulus22.png,TMTstop-B_1_1greenlinestimulus22.png,TMTstop-B_1_1redlinestimulus22.png,None,0,24,24,24,,,,,,,,,24.597183000063524,None,['2'],1,[0.03040689998306334],24.597183000063524,None,,,,001,2021_Nov_03_1612,TMTAB,2021.2.3,144.6715304898212,
None,None,TMTstop-B_1_1linestimulus23.png,TMTstop-B_1_1greenlinestimulus23.png,TMTstop-B_1_1redlinestimulus23.png,None,0,25,25,25,,,,,,,,,24.722372099990025,None,"['3', '2', '3', '1', '2']",0,"[-0.0164504999993369, 4.041070000035688, 4.770797300036065, 5.159036200027913, 5.5112609000643715]",24.722372099990025,None,,,,001,2021_Nov_03_1612,TMTAB,2021.2.3,144.6715304898212,
1,['2'],TMTstop-B_1_1.png,TMTstop-B_1_1.png,TMTstop-B_1_1.png,10,,,,,0,0,0,0,,,,,33.318788600037806,None,['2'],1,[6.415012500016019],33.318788600037806,None,30.275175400078297,None,,001,2021_Nov_03_1612,TMTAB,2021.2.3,144.6715304898212,
A,['3'],TMTstop-B_1_1.png,TMTstop-B_1_1firstgreen.png,TMTstop-B_1_1firstred.png,10,,,,,0,1,1,1,,,,,39.812169400043786,None,"['1', '1', '2', '3']",1,"[2.2696854999521747, 7.821210899972357, 8.819020299939439, 9.794371100026183]",39.812169400043786,None,,,,001,2021_Nov_03_1612,TMTAB,2021.2.3,144.6715304898212,
2,['1'],TMTstop-B_1_1linestimulus0.png,TMTstop-B_1_1greenlinestimulus0.png,TMTstop-B_1_1redlinestimulus0.png,10,,,,,0,2,2,2,,,,,49.70712729997467,None,"['3', '2', '1']",1,"[5.854997100075707, 8.706350200111046, 9.14431580004748]",49.70712729997467,None,,,,001,2021_Nov_03_1612,TMTAB,2021.2.3,144.6715304898212,
B,['2'],TMTstop-B_1_1linestimulus1.png,TMTstop-B_1_1greenlinestimulus1.png,TMTstop-B_1_1redlinestimulus1.png,10,,,,,0,3,3,3,,,,,58.9366136000026,None,"['1', '1', '2']",1,"[12.637948899995536, 14.548452900024131, 14.989236099994741]",58.9366136000026,None,,,,001,2021_Nov_03_1612,TMTAB,2021.2.3,144.6715304898212,
3,['3'],TMTstop-B_1_1linestimulus2.png,TMTstop-B_1_1greenlinestimulus2.png,TMTstop-B_1_1redlinestimulus2.png,10,,,,,0,4,4,4,,,,,74.01934210001491,None,"['1', '2', '3']",1,"[3.7692031000042334, 6.8038875999627635, 7.297890900052153]",74.01934210001491,None,,,,001,2021_Nov_03_1612,TMTAB,2021.2.3,144.6715304898212,
C,['1'],TMTstop-B_1_1linestimulus3.png,TMTstop-B_1_1greenlinestimulus3.png,TMTstop-B_1_1redlinestimulus3.png,10,,,,,0,5,5,5,,,,,81.40165370004252,None,['1'],1,[5.817136500030756],81.40165370004252,None,,,,001,2021_Nov_03_1612,TMTAB,2021.2.3,144.6715304898212,
4,['2'],TMTstop-B_1_1linestimulus4.png,TMTstop-B_1_1greenlinestimulus4.png,TMTstop-B_1_1redlinestimulus4.png,10,,,,,0,6,6,6,,,,,87.29024510004092,None,['2'],1,[5.004900399944745],87.29024510004092,None,,,,001,2021_Nov_03_1612,TMTAB,2021.2.3,144.6715304898212,
D,['3'],TMTstop-B_1_1linestimulus5.png,TMTstop-B_1_1greenlinestimulus5.png,TMTstop-B_1_1redlinestimulus5.png,10,,,,,0,7,7,7,,,,,92.38686530000996,None,['3'],1,[3.861697499989532],92.38686530000996,None,,,,001,2021_Nov_03_1612,TMTAB,2021.2.3,144.6715304898212,
5,['2'],TMTstop-B_1_1linestimulus6.png,TMTstop-B_1_1greenlinestimulus6.png,TMTstop-B_1_1redlinestimulus6.png,10,,,,,0,8,8,8,,,,,96.33154320006724,None,None,0,,96.33154320006724,None,,,,001,2021_Nov_03_1612,TMTAB,2021.2.3,144.6715304898212,
E,['1'],TMTstop-B_1_1linestimulus7.png,TMTstop-B_1_1greenlinestimulus7.png,TMTstop-B_1_1redlinestimulus7.png,10,,,,,0,9,9,9,,,,,96.90693529997952,None,None,0,,96.90693529997952,None,,,,001,2021_Nov_03_1612,TMTAB,2021.2.3,144.6715304898212,
6,['3'],TMTstop-B_1_1linestimulus8.png,TMTstop-B_1_1greenlinestimulus8.png,TMTstop-B_1_1redlinestimulus8.png,10,,,,,0,10,10,10,,,,,96.94171599997208,None,None,0,,96.94171599997208,None,,,,001,2021_Nov_03_1612,TMTAB,2021.2.3,144.6715304898212,
F,['1'],TMTstop-B_1_1linestimulus9.png,TMTstop-B_1_1greenlinestimulus9.png,TMTstop-B_1_1redlinestimulus9.png,10,,,,,0,11,11,11,,,,,96.98345283996314,None,None,0,,96.98345283996314,None,,,,001,2021_Nov_03_1612,TMTAB,2021.2.3,144.6715304898212,
7,['3'],TMTstop-B_1_1linestimulus10.png,TMTstop-B_1_1greenlinestimulus10.png,TMTstop-B_1_1redlinestimulus10.png,1,,,,,0,12,12,12,,,,,97.0251896799542,None,None,0,,97.0251896799542,None,,,,001,2021_Nov_03_1612,TMTAB,2021.2.3,144.6715304898212,
G,['2'],TMTstop-B_1_1linestimulus11.png,TMTstop-B_1_1greenlinestimulus11.png,TMTstop-B_1_1redlinestimulus11.png,None,,,,,0,13,13,13,,,,,97.06692651994526,None,None,0,,97.06692651994526,None,,,,001,2021_Nov_03_1612,TMTAB,2021.2.3,144.6715304898212,
8,['3'],TMTstop-B_1_1linestimulus12.png,TMTstop-B_1_1greenlinestimulus12.png,TMTstop-B_1_1redlinestimulus12.png,None,,,,,0,14,14,14,,,,,97.10866335993633,None,None,0,,97.10866335993633,None,,,,001,2021_Nov_03_1612,TMTAB,2021.2.3,144.6715304898212,
