NumberLetter,corrAns,Correct,StimFile,Correct_StimFile,False_StimFile,Block,TrialNumber_session,n,Stim.started_mean,Stim.started_raw,Stim.started_std,Stim.stopped_raw,key_resp_2.corr_mean,key_resp_2.corr_raw,key_resp_2.corr_std,key_resp_2.keys_raw,key_resp_2.rt_raw,key_resp_2.started_mean,key_resp_2.started_raw,key_resp_2.started_std,key_resp_2.stopped_raw,order
1,['2'],2,TMTstop-A_1_1.png,TMTstop-A_1_1.png,TMTstop-A_1_1.png,1,1,1.0,20.40839958190918,20.40839958190918,0.0,,1.0,1.0,0.0,2,0.4050658999476582,20.40839958190918,20.40839958190918,0.0,,0.0
2,['1'],1,TMTstop-A_1_1.png,TMTstop-A_1_1firstgreen.png,TMTstop-A_1_1firstred.png,1,2,1.0,20.894433975219727,20.894433975219727,0.0,,1.0,1.0,0.0,3,1,0.16504519991576672,0.17012430005706847,20.894433975219727,20.894433975219727,0.0,,1.0
3,['2'],2,TMTstop-A_1_1linestimulus0.png,TMTstop-A_1_1greenlinestimulus0.png,TMTstop-A_1_1redlinestimulus0.png,1,3,1.0,21.13742446899414,21.13742446899414,0.0,,1.0,1.0,0.0,2,0.0878700998146087,21.13742446899414,21.13742446899414,0.0,,2.0
4,['3'],3,TMTstop-A_1_1linestimulus1.png,TMTstop-A_1_1greenlinestimulus1.png,TMTstop-A_1_1redlinestimulus1.png,1,4,1.0,21.300968170166016,21.300968170166016,0.0,,1.0,1.0,0.0,3,0.04309950000606477,21.300968170166016,21.300968170166016,0.0,,3.0
5,['2'],2,TMTstop-A_1_1linestimulus2.png,TMTstop-A_1_1greenlinestimulus2.png,TMTstop-A_1_1redlinestimulus2.png,1,5,1.0,21.421720504760742,21.421720504760742,0.0,,1.0,1.0,0.0,1,2,0.07534940005280077,0.14262669999152422,21.421720504760742,21.421720504760742,0.0,,4.0
6,['3'],3,TMTstop-A_1_1linestimulus3.png,TMTstop-A_1_1greenlinestimulus3.png,TMTstop-A_1_1redlinestimulus3.png,1,6,1.0,21.658056259155273,21.658056259155273,0.0,,1.0,1.0,0.0,3,0.021236100001260638,21.658056259155273,21.658056259155273,0.0,,5.0
7,['2'],2,TMTstop-A_1_1linestimulus4.png,TMTstop-A_1_1greenlinestimulus4.png,TMTstop-A_1_1redlinestimulus4.png,1,7,1.0,21.76333999633789,21.76333999633789,0.0,,1.0,1.0,0.0,1,2,0.05452420003712177,0.15357149997726083,21.76333999633789,21.76333999633789,0.0,,6.0
8,['1'],1,TMTstop-A_1_1linestimulus5.png,TMTstop-A_1_1greenlinestimulus5.png,TMTstop-A_1_1redlinestimulus5.png,1,8,1.0,22.020463943481445,22.020463943481445,0.0,,1.0,1.0,0.0,3,1,-0.0016002999618649483,0.14750860002823174,22.020463943481445,22.020463943481445,0.0,,7.0
9,['2'],2,TMTstop-A_1_1linestimulus6.png,TMTstop-A_1_1greenlinestimulus6.png,TMTstop-A_1_1redlinestimulus6.png,1,9,1.0,22.269668579101562,22.269668579101562,0.0,,1.0,1.0,0.0,2,0.013820899883285165,22.269668579101562,22.269668579101562,0.0,,8.0
10,['1'],1,TMTstop-A_1_1linestimulus7.png,TMTstop-A_1_1greenlinestimulus7.png,TMTstop-A_1_1redlinestimulus7.png,1,10,1.0,22.370311737060547,22.370311737060547,0.0,,1.0,1.0,0.0,3,1,-0.006395499920472503,0.14173809997737408,22.370311737060547,22.370311737060547,0.0,,9.0
11,['2'],2,TMTstop-A_1_1linestimulus8.png,TMTstop-A_1_1greenlinestimulus8.png,TMTstop-A_1_1redlinestimulus8.png,1,11,1.0,22.609546661376953,22.609546661376953,0.0,,1.0,1.0,0.0,2,0.012302899966016412,22.609546661376953,22.609546661376953,0.0,,10.0
12,['3'],3,TMTstop-A_1_1linestimulus9.png,TMTstop-A_1_1greenlinestimulus9.png,TMTstop-A_1_1redlinestimulus9.png,1,12,1.0,22.6934757232666,22.6934757232666,0.0,,1.0,1.0,0.0,3,0.015558300074189901,22.6934757232666,22.6934757232666,0.0,,11.0
13,['2'],2,TMTstop-A_1_1linestimulus10.png,TMTstop-A_1_1greenlinestimulus10.png,TMTstop-A_1_1redlinestimulus10.png,1,13,1.0,22.796804428100586,22.796804428100586,0.0,,1.0,1.0,0.0,1,2,0.05798229994252324,0.1654730001464486,22.796804428100586,22.796804428100586,0.0,,12.0
14,['3'],3,TMTstop-A_1_1linestimulus11.png,TMTstop-A_1_1greenlinestimulus11.png,TMTstop-A_1_1redlinestimulus11.png,1,14,1.0,23.061153411865234,23.061153411865234,0.0,,1.0,1.0,0.0,3,-0.015183799900114536,23.061153411865234,23.061153411865234,0.0,,13.0
15,['1'],1,TMTstop-A_1_1linestimulus12.png,TMTstop-A_1_1greenlinestimulus12.png,TMTstop-A_1_1redlinestimulus12.png,1,15,1.0,23.144399642944336,23.144399642944336,0.0,,1.0,1.0,0.0,1,0.04000929999165237,23.144399642944336,23.144399642944336,0.0,,14.0
16,['3'],3,TMTstop-A_1_1linestimulus13.png,TMTstop-A_1_1greenlinestimulus13.png,TMTstop-A_1_1redlinestimulus13.png,1,16,1.0,23.264114379882812,23.264114379882812,0.0,,1.0,1.0,0.0,2,3,0.020839500008150935,0.12317689997144043,23.264114379882812,23.264114379882812,0.0,,15.0
17,['2'],2,TMTstop-A_1_1linestimulus14.png,TMTstop-A_1_1greenlinestimulus14.png,TMTstop-A_1_1redlinestimulus14.png,1,17,1.0,23.49211311340332,23.49211311340332,0.0,,1.0,1.0,0.0,1,2,0.05066299997270107,0.12405149987898767,23.49211311340332,23.49211311340332,0.0,,16.0
18,['3'],3,TMTstop-A_1_1linestimulus15.png,TMTstop-A_1_1greenlinestimulus15.png,TMTstop-A_1_1redlinestimulus15.png,1,18,1.0,23.721050262451172,23.721050262451172,0.0,,1.0,1.0,0.0,3,0.019751499872654676,23.721050262451172,23.721050262451172,0.0,,17.0
19,['1'],1,TMTstop-A_1_1linestimulus16.png,TMTstop-A_1_1greenlinestimulus16.png,TMTstop-A_1_1redlinestimulus16.png,1,19,1.0,23.82489013671875,23.82489013671875,0.0,,1.0,1.0,0.0,1,0.07414279994554818,23.82489013671875,23.82489013671875,0.0,,18.0
20,['3'],3,TMTstop-A_1_1linestimulus17.png,TMTstop-A_1_1greenlinestimulus17.png,TMTstop-A_1_1redlinestimulus17.png,1,20,1.0,23.985023498535156,23.985023498535156,0.0,,1.0,1.0,0.0,2,3,-0.01867649983614683,0.10296780010685325,23.985023498535156,23.985023498535156,0.0,,19.0
21,['1'],1,TMTstop-A_1_1linestimulus18.png,TMTstop-A_1_1greenlinestimulus18.png,TMTstop-A_1_1redlinestimulus18.png,1,21,1.0,24.18622398376465,24.18622398376465,0.0,,1.0,1.0,0.0,1,0.042177600087597966,24.18622398376465,24.18622398376465,0.0,,20.0
22,['3'],3,TMTstop-A_1_1linestimulus19.png,TMTstop-A_1_1greenlinestimulus19.png,TMTstop-A_1_1redlinestimulus19.png,1,22,1.0,24.317771911621094,24.317771911621094,0.0,,1.0,1.0,0.0,2,3,-0.00842920015566051,0.1031407997943461,24.317771911621094,24.317771911621094,0.0,,21.0
23,['1'],1,TMTstop-A_1_1linestimulus20.png,TMTstop-A_1_1greenlinestimulus20.png,TMTstop-A_1_1redlinestimulus20.png,1,23,1.0,24.526145935058594,24.526145935058594,0.0,,1.0,1.0,0.0,1,0.046785200014710426,24.526145935058594,24.526145935058594,0.0,,22.0
24,['2'],2,TMTstop-A_1_1linestimulus21.png,TMTstop-A_1_1greenlinestimulus21.png,TMTstop-A_1_1redlinestimulus21.png,1,24,1.0,24.66055679321289,24.66055679321289,0.0,,1.0,1.0,0.0,2,-0.03087749984115362,24.66055679321289,24.66055679321289,0.0,,23.0
25,['3'],3,TMTstop-A_1_1linestimulus22.png,TMTstop-A_1_1greenlinestimulus22.png,TMTstop-A_1_1redlinestimulus22.png,1,25,1.0,24.741256713867188,24.741256713867188,0.0,,1.0,1.0,0.0,3,0.03974400018341839,24.741256713867188,24.741256713867188,0.0,,24.0
None,None,None,TMTstop-A_1_1linestimulus23.png,TMTstop-A_1_1greenlinestimulus23.png,TMTstop-A_1_1redlinestimulus23.png,1,None,1.0,24.866268157958984,24.866268157958984,0.0,,0.0,0.0,0.0,1,0.06273509981110692,24.866268157958984,24.866268157958984,0.0,,25.0

extraInfo
participant,
session,001
date,2022_Feb_02_1448
expName,TMTAstop-A
psychopyVersion,2021.2.3
frameRate,144.95610722651287
﻿NumberLetter,corrAns,Correct,StimFile,Correct_StimFile,False_StimFile,Block,TrialNumber_session,n,Stim.started_mean,Stim.started_raw,Stim.started_std,Stim.stopped_raw,key_resp_2.corr_mean,key_resp_2.corr_raw,key_resp_2.corr_std,key_resp_2.keys_raw,key_resp_2.rt_raw,key_resp_2.started_mean,key_resp_2.started_raw,key_resp_2.started_std,key_resp_2.stopped_raw,order
1,['3'],3,TMTstop-A_1_2.png,TMTstop-A_1_2.png,TMTstop-A_1_2.png,2,26,1.0,29.012409210205078,29.012409210205078,0.0,,1.0,1.0,0.0,2,3,3.228340000147,3.793454500148073,29.012409210205078,29.012409210205078,0.0,,0.0
2,['2'],2,TMTstop-A_1_2.png,TMTstop-A_1_2firstgreen.png,TMTstop-A_1_2firstred.png,2,27,1.0,32.89387130737305,32.89387130737305,0.0,,1.0,1.0,0.0,1,2,4.555398100055754,5.125377399846911,32.89387130737305,32.89387130737305,0.0,,1.0
3,['3'],3,TMTstop-A_1_2linestimulus0.png,TMTstop-A_1_2greenlinestimulus0.png,TMTstop-A_1_2redlinestimulus0.png,2,28,1.0,38.08811950683594,38.08811950683594,0.0,,1.0,1.0,0.0,3,0.6016030998434871,38.08811950683594,38.08811950683594,0.0,,2.0
4,['1'],1,TMTstop-A_1_2linestimulus1.png,TMTstop-A_1_2greenlinestimulus1.png,TMTstop-A_1_2redlinestimulus1.png,2,29,1.0,38.761695861816406,38.761695861816406,0.0,,0.0,0.0,0.0,,'--',38.761695861816406,38.761695861816406,0.0,,3.0
5,['2'],2,TMTstop-A_1_2linestimulus2.png,TMTstop-A_1_2greenlinestimulus2.png,TMTstop-A_1_2redlinestimulus2.png,2,30,0.0,,,,'--',,,,'--','--',,,,'--',
6,['3'],3,TMTstop-A_1_2linestimulus3.png,TMTstop-A_1_2greenlinestimulus3.png,TMTstop-A_1_2redlinestimulus3.png,2,31,0.0,,,,'--',,,,'--','--',,,,'--',
7,['2'],2,TMTstop-A_1_2linestimulus4.png,TMTstop-A_1_2greenlinestimulus4.png,TMTstop-A_1_2redlinestimulus4.png,2,32,0.0,,,,'--',,,,'--','--',,,,'--',
8,['1'],1,TMTstop-A_1_2linestimulus5.png,TMTstop-A_1_2greenlinestimulus5.png,TMTstop-A_1_2redlinestimulus5.png,2,33,0.0,,,,'--',,,,'--','--',,,,'--',
9,['2'],2,TMTstop-A_1_2linestimulus6.png,TMTstop-A_1_2greenlinestimulus6.png,TMTstop-A_1_2redlinestimulus6.png,2,34,0.0,,,,'--',,,,'--','--',,,,'--',
10,['3'],3,TMTstop-A_1_2linestimulus7.png,TMTstop-A_1_2greenlinestimulus7.png,TMTstop-A_1_2redlinestimulus7.png,2,35,0.0,,,,'--',,,,'--','--',,,,'--',
11,['1'],1,TMTstop-A_1_2linestimulus8.png,TMTstop-A_1_2greenlinestimulus8.png,TMTstop-A_1_2redlinestimulus8.png,2,36,0.0,,,,'--',,,,'--','--',,,,'--',
12,['2'],2,TMTstop-A_1_2linestimulus9.png,TMTstop-A_1_2greenlinestimulus9.png,TMTstop-A_1_2redlinestimulus9.png,2,37,0.0,,,,'--',,,,'--','--',,,,'--',
13,['3'],3,TMTstop-A_1_2linestimulus10.png,TMTstop-A_1_2greenlinestimulus10.png,TMTstop-A_1_2redlinestimulus10.png,2,38,0.0,,,,'--',,,,'--','--',,,,'--',
14,['1'],1,TMTstop-A_1_2linestimulus11.png,TMTstop-A_1_2greenlinestimulus11.png,TMTstop-A_1_2redlinestimulus11.png,2,39,0.0,,,,'--',,,,'--','--',,,,'--',
15,['3'],3,TMTstop-A_1_2linestimulus12.png,TMTstop-A_1_2greenlinestimulus12.png,TMTstop-A_1_2redlinestimulus12.png,2,40,0.0,,,,'--',,,,'--','--',,,,'--',
16,['1'],1,TMTstop-A_1_2linestimulus13.png,TMTstop-A_1_2greenlinestimulus13.png,TMTstop-A_1_2redlinestimulus13.png,2,41,0.0,,,,'--',,,,'--','--',,,,'--',
17,['2'],2,TMTstop-A_1_2linestimulus14.png,TMTstop-A_1_2greenlinestimulus14.png,TMTstop-A_1_2redlinestimulus14.png,2,42,0.0,,,,'--',,,,'--','--',,,,'--',
18,['1'],1,TMTstop-A_1_2linestimulus15.png,TMTstop-A_1_2greenlinestimulus15.png,TMTstop-A_1_2redlinestimulus15.png,2,43,0.0,,,,'--',,,,'--','--',,,,'--',
19,['3'],3,TMTstop-A_1_2linestimulus16.png,TMTstop-A_1_2greenlinestimulus16.png,TMTstop-A_1_2redlinestimulus16.png,2,44,0.0,,,,'--',,,,'--','--',,,,'--',
20,['1'],1,TMTstop-A_1_2linestimulus17.png,TMTstop-A_1_2greenlinestimulus17.png,TMTstop-A_1_2redlinestimulus17.png,2,45,0.0,,,,'--',,,,'--','--',,,,'--',
21,['2'],2,TMTstop-A_1_2linestimulus18.png,TMTstop-A_1_2greenlinestimulus18.png,TMTstop-A_1_2redlinestimulus18.png,2,46,0.0,,,,'--',,,,'--','--',,,,'--',
22,['1'],1,TMTstop-A_1_2linestimulus19.png,TMTstop-A_1_2greenlinestimulus19.png,TMTstop-A_1_2redlinestimulus19.png,2,47,0.0,,,,'--',,,,'--','--',,,,'--',
23,['2'],2,TMTstop-A_1_2linestimulus20.png,TMTstop-A_1_2greenlinestimulus20.png,TMTstop-A_1_2redlinestimulus20.png,2,48,0.0,,,,'--',,,,'--','--',,,,'--',
24,['1'],1,TMTstop-A_1_2linestimulus21.png,TMTstop-A_1_2greenlinestimulus21.png,TMTstop-A_1_2redlinestimulus21.png,2,49,0.0,,,,'--',,,,'--','--',,,,'--',
25,['2'],2,TMTstop-A_1_2linestimulus22.png,TMTstop-A_1_2greenlinestimulus22.png,TMTstop-A_1_2redlinestimulus22.png,2,50,0.0,,,,'--',,,,'--','--',,,,'--',
None,None,None,TMTstop-A_1_2linestimulus23.png,TMTstop-A_1_2greenlinestimulus23.png,TMTstop-A_1_2redlinestimulus23.png,2,None,0.0,,,,'--',,,,'--','--',,,,'--',

extraInfo
participant,
session,001
date,2022_Feb_02_1448
expName,TMTAstop-A
psychopyVersion,2021.2.3
frameRate,144.95610722651287
﻿NumberLetter,corrAns,Correct,StimFile,Correct_StimFile,False_StimFile,Block,TrialNumber_session,n,Stim.started_mean,Stim.started_raw,Stim.started_std,Stim.stopped_raw,key_resp_2.corr_mean,key_resp_2.corr_raw,key_resp_2.corr_std,key_resp_2.keys_raw,key_resp_2.rt_raw,key_resp_2.started_mean,key_resp_2.started_raw,key_resp_2.started_std,key_resp_2.stopped_raw,order
1,['2'],2,TMTstop-A_1_3.png,TMTstop-A_1_3.png,TMTstop-A_1_3.png,3,51,1.0,42.09060287475586,42.09060287475586,0.0,,1.0,1.0,0.0,2,0.5591502001043409,42.09060287475586,42.09060287475586,0.0,,0.0
2,['1'],1,TMTstop-A_1_3.png,TMTstop-A_1_3firstgreen.png,TMTstop-A_1_3firstred.png,3,52,1.0,42.72169494628906,42.72169494628906,0.0,,1.0,1.0,0.0,3,1,0.19791650003753603,0.42618820001371205,42.72169494628906,42.72169494628906,0.0,,1.0
3,['3'],3,TMTstop-A_1_3linestimulus0.png,TMTstop-A_1_3greenlinestimulus0.png,TMTstop-A_1_3redlinestimulus0.png,3,53,1.0,43.22736740112305,43.22736740112305,0.0,,1.0,1.0,0.0,2,3,0.025818099966272712,0.15789330005645752,43.22736740112305,43.22736740112305,0.0,,2.0
4,['2'],2,TMTstop-A_1_3linestimulus1.png,TMTstop-A_1_3greenlinestimulus1.png,TMTstop-A_1_3redlinestimulus1.png,3,54,1.0,43.49151611328125,43.49151611328125,0.0,,1.0,1.0,0.0,1,2,0.09787090006284416,0.17410290008410811,43.49151611328125,43.49151611328125,0.0,,3.0
5,['3'],3,TMTstop-A_1_3linestimulus2.png,TMTstop-A_1_3greenlinestimulus2.png,TMTstop-A_1_3redlinestimulus2.png,3,55,1.0,43.74159622192383,43.74159622192383,0.0,,1.0,1.0,0.0,3,0.029133799951523542,43.74159622192383,43.74159622192383,0.0,,4.0
6,['2'],2,TMTstop-A_1_3linestimulus3.png,TMTstop-A_1_3greenlinestimulus3.png,TMTstop-A_1_3redlinestimulus3.png,3,56,1.0,43.83806228637695,43.83806228637695,0.0,,1.0,1.0,0.0,1,2,0.14667849987745285,0.21287030004896224,43.83806228637695,43.83806228637695,0.0,,5.0
7,['1'],1,TMTstop-A_1_3linestimulus4.png,TMTstop-A_1_3greenlinestimulus4.png,TMTstop-A_1_3redlinestimulus4.png,3,57,1.0,44.143733978271484,44.143733978271484,0.0,,1.0,1.0,0.0,3,1,0.006066000089049339,0.22690690006129444,44.143733978271484,44.143733978271484,0.0,,6.0
8,['2'],2,TMTstop-A_1_3linestimulus5.png,TMTstop-A_1_3greenlinestimulus5.png,TMTstop-A_1_3redlinestimulus5.png,3,58,1.0,44.47770309448242,44.47770309448242,0.0,,1.0,1.0,0.0,2,-0.038964200066402555,44.47770309448242,44.47770309448242,0.0,,7.0
9,['3'],3,TMTstop-A_1_3linestimulus6.png,TMTstop-A_1_3greenlinestimulus6.png,TMTstop-A_1_3redlinestimulus6.png,3,59,1.0,44.56033706665039,44.56033706665039,0.0,,1.0,1.0,0.0,3,-0.010090199997648597,44.56033706665039,44.56033706665039,0.0,,8.0
10,['2'],2,TMTstop-A_1_3linestimulus7.png,TMTstop-A_1_3greenlinestimulus7.png,TMTstop-A_1_3redlinestimulus7.png,3,60,1.0,44.630332946777344,44.630332946777344,0.0,,1.0,1.0,0.0,1,2,0.10595960007049143,0.1567937999498099,44.630332946777344,44.630332946777344,0.0,,9.0
11,['3'],3,TMTstop-A_1_3linestimulus8.png,TMTstop-A_1_3greenlinestimulus8.png,TMTstop-A_1_3redlinestimulus8.png,3,61,1.0,44.89344787597656,44.89344787597656,0.0,,1.0,1.0,0.0,3,0.01934850006364286,44.89344787597656,44.89344787597656,0.0,,10.0
12,['2'],2,TMTstop-A_1_3linestimulus9.png,TMTstop-A_1_3greenlinestimulus9.png,TMTstop-A_1_3redlinestimulus9.png,3,62,1.0,44.99350357055664,44.99350357055664,0.0,,1.0,1.0,0.0,1,2,0.09547819988802075,0.19597060000523925,44.99350357055664,44.99350357055664,0.0,,11.0
13,['1'],1,TMTstop-A_1_3linestimulus10.png,TMTstop-A_1_3greenlinestimulus10.png,TMTstop-A_1_3redlinestimulus10.png,3,63,1.0,45.289695739746094,45.289695739746094,0.0,,1.0,1.0,0.0,3,1,0.0020612000953406096,0.1927965001668781,45.289695739746094,45.289695739746094,0.0,,12.0
14,['2'],2,TMTstop-A_1_3linestimulus11.png,TMTstop-A_1_3greenlinestimulus11.png,TMTstop-A_1_3redlinestimulus11.png,3,64,1.0,45.581485748291016,45.581485748291016,0.0,,1.0,1.0,0.0,2,-0.031356000108644366,45.581485748291016,45.581485748291016,0.0,,13.0
15,['1'],1,TMTstop-A_1_3linestimulus12.png,TMTstop-A_1_3greenlinestimulus12.png,TMTstop-A_1_3redlinestimulus12.png,3,65,1.0,45.65767288208008,45.65767288208008,0.0,,1.0,1.0,0.0,3,1,0.011470700148493052,0.3004624000750482,45.65767288208008,45.65767288208008,0.0,,14.0
16,['2'],2,TMTstop-A_1_3linestimulus13.png,TMTstop-A_1_3greenlinestimulus13.png,TMTstop-A_1_3redlinestimulus13.png,3,66,1.0,46.03944396972656,46.03944396972656,0.0,,1.0,1.0,0.0,2,-0.043103599920868874,46.03944396972656,46.03944396972656,0.0,,15.0
17,['3'],3,TMTstop-A_1_3linestimulus14.png,TMTstop-A_1_3greenlinestimulus14.png,TMTstop-A_1_3redlinestimulus14.png,3,67,1.0,46.10883712768555,46.10883712768555,0.0,,1.0,1.0,0.0,3,0.015585999935865402,46.10883712768555,46.10883712768555,0.0,,16.0
18,['2'],2,TMTstop-A_1_3linestimulus15.png,TMTstop-A_1_3greenlinestimulus15.png,TMTstop-A_1_3redlinestimulus15.png,3,68,1.0,46.206233978271484,46.206233978271484,0.0,,1.0,1.0,0.0,1,2,0.1383245000615716,0.188667600043118,46.206233978271484,46.206233978271484,0.0,,17.0
19,['1'],1,TMTstop-A_1_3linestimulus16.png,TMTstop-A_1_3greenlinestimulus16.png,TMTstop-A_1_3redlinestimulus16.png,3,69,1.0,46.49798583984375,46.49798583984375,0.0,,1.0,1.0,0.0,3,1,0.018568400060757995,0.21459369990043342,46.49798583984375,46.49798583984375,0.0,,18.0
20,['2'],2,TMTstop-A_1_3linestimulus17.png,TMTstop-A_1_3greenlinestimulus17.png,TMTstop-A_1_3redlinestimulus17.png,3,70,1.0,46.80335998535156,46.80335998535156,0.0,,1.0,1.0,0.0,2,0.0008515999652445316,46.80335998535156,46.80335998535156,0.0,,19.0
21,['3'],3,TMTstop-A_1_3linestimulus18.png,TMTstop-A_1_3greenlinestimulus18.png,TMTstop-A_1_3redlinestimulus18.png,3,71,1.0,46.87322998046875,46.87322998046875,0.0,,1.0,1.0,0.0,3,0.02937559993006289,46.87322998046875,46.87322998046875,0.0,,20.0
22,['1'],1,TMTstop-A_1_3linestimulus19.png,TMTstop-A_1_3greenlinestimulus19.png,TMTstop-A_1_3redlinestimulus19.png,3,72,1.0,46.98569107055664,46.98569107055664,0.0,,1.0,1.0,0.0,1,0.41158380010165274,46.98569107055664,46.98569107055664,0.0,,21.0
23,['3'],3,TMTstop-A_1_3linestimulus20.png,TMTstop-A_1_3greenlinestimulus20.png,TMTstop-A_1_3redlinestimulus20.png,3,73,1.0,47.48551940917969,47.48551940917969,0.0,,1.0,1.0,0.0,2,3,-0.0048316000029444695,0.08229069993831217,47.48551940917969,47.48551940917969,0.0,,22.0
24,['1'],1,TMTstop-A_1_3linestimulus21.png,TMTstop-A_1_3greenlinestimulus21.png,TMTstop-A_1_3redlinestimulus21.png,3,74,1.0,47.65040588378906,47.65040588378906,0.0,,1.0,1.0,0.0,1,0.141716199927032,47.65040588378906,47.65040588378906,0.0,,23.0
25,['3'],3,TMTstop-A_1_3linestimulus22.png,TMTstop-A_1_3greenlinestimulus22.png,TMTstop-A_1_3redlinestimulus22.png,3,75,1.0,47.87382888793945,47.87382888793945,0.0,,1.0,1.0,0.0,2,3,-0.04278120002709329,0.0731542999856174,47.87382888793945,47.87382888793945,0.0,,24.0
None,None,None,TMTstop-A_1_3linestimulus23.png,TMTstop-A_1_3greenlinestimulus23.png,TMTstop-A_1_3redlinestimulus23.png,3,None,1.0,48.032230377197266,48.032230377197266,0.0,,1.0,1.0,0.0,,'--',48.032230377197266,48.032230377197266,0.0,,25.0

extraInfo
participant,
session,001
date,2022_Feb_02_1448
expName,TMTAstop-A
psychopyVersion,2021.2.3
frameRate,144.95610722651287
