NumberLetter,corrAns,StimFile,Correct_StimFile,False_StimFile,DurationTrial,Block_file,Condition_rows,Correct,restartpractice.thisRepN,restartpractice.thisTrialN,restartpractice.thisN,restartpractice.thisIndex,trials_practice.thisRepN,trials_practice.thisTrialN,trials_practice.thisN,trials_practice.thisIndex,Blocks_loop.thisRepN,Blocks_loop.thisTrialN,Blocks_loop.thisN,Blocks_loop.thisIndex,trials.thisRepN,trials.thisTrialN,trials.thisN,trials.thisIndex,Instruct.started,Instruct.stopped,image_2.started,image_2.stopped,key_resp_6.keys,key_resp_6.rt,key_resp_6.started,key_resp_6.stopped,polygon.started,polygon.stopped,Stim_practice.started,Stim_practice.stopped,key_resp_practice.keys,key_resp_practice.rt,key_resp_practice.started,key_resp_practice.stopped,text_5.started,text_5.stopped,key_resp_5.keys,key_resp_5.rt,key_resp_5.started,key_resp_5.stopped,Stim.started,Stim.stopped,key_resp_2.keys,key_resp_2.corr,key_resp_2.rt,key_resp_2.started,key_resp_2.stopped,participant,session,date,expName,psychopyVersion,frameRate,
,,,,,,,,,,,,,,,,,,,,,,,,,6.662927599973045,None,7.839681399986148,None,3,0.7807288999902084,7.839681399986148,None,,,,,,,,,,,,,,,,,,,,,,,001,2022_Jan_24_1136,TMTAstop-A,2021.2.3,59.92706873222702,
1,['1'],TMTstop-A_1_practice.png,TMTstop-A_1_practice.png,TMTstop-A_1_practice.png,10,,,,0,0,0,0,0,0,0,0,,,,,,,,,,,,,,,,,8.638966700062156,None,11.74127270001918,None,1,1.030872300034389,11.74127270001918,None,,,,,,,,,,,,,,,001,2022_Jan_24_1136,TMTAstop-A,2021.2.3,59.92706873222702,
2,['2'],TMTstop-A_1_practice.png,TMTstop-A_1_practicefirstgreen.png,TMTstop-A_1_practicefirstred.png,10,,,,0,0,0,0,0,1,1,1,,,,,,,,,,,,,,,,,,,12.892499700072221,None,2,0.0028698999667540193,12.892499700072221,None,,,,,,,,,,,,,,,001,2022_Jan_24_1136,TMTAstop-A,2021.2.3,59.92706873222702,
3,['3'],TMTstop-A_1_practicelinestimulus0.png,TMTstop-A_1_practicegreenlinestimulus0.png,TMTstop-A_1_practiceredlinestimulus0.png,10,,,,0,0,0,0,0,2,2,2,,,,,,,,,,,,,,,,,,,12.99262070003897,None,3,0.006740699987858534,12.99262070003897,None,,,,,,,,,,,,,,,001,2022_Jan_24_1136,TMTAstop-A,2021.2.3,59.92706873222702,
4,['1'],TMTstop-A_1_practicelinestimulus1.png,TMTstop-A_1_practicegreenlinestimulus1.png,TMTstop-A_1_practiceredlinestimulus1.png,10,,,,0,0,0,0,0,3,3,3,,,,,,,,,,,,,,,,,,,13.092453200020827,None,1,0.05943800008390099,13.092453200020827,None,,,,,,,,,,,,,,,001,2022_Jan_24_1136,TMTAstop-A,2021.2.3,59.92706873222702,
5,['2'],TMTstop-A_1_practicelinestimulus2.png,TMTstop-A_1_practicegreenlinestimulus2.png,TMTstop-A_1_practiceredlinestimulus2.png,10,,,,0,0,0,0,0,4,4,4,,,,,,,,,,,,,,,,,,,13.242519799969159,None,2,0.2914606999838725,13.242519799969159,None,,,,,,,,,,,,,,,001,2022_Jan_24_1136,TMTAstop-A,2021.2.3,59.92706873222702,
6,['3'],TMTstop-A_1_practicelinestimulus3.png,TMTstop-A_1_practicegreenlinestimulus3.png,TMTstop-A_1_practiceredlinestimulus3.png,10,,,,0,0,0,0,0,5,5,5,,,,,,,,,,,,,,,,,,,13.642904000007547,None,3,0.31175790005363524,13.642904000007547,None,,,,,,,,,,,,,,,001,2022_Jan_24_1136,TMTAstop-A,2021.2.3,59.92706873222702,
7,['1'],TMTstop-A_1_practicelinestimulus4.png,TMTstop-A_1_practicegreenlinestimulus4.png,TMTstop-A_1_practiceredlinestimulus4.png,10,,,,0,0,0,0,0,6,6,6,,,,,,,,,,,,,,,,,,,14.059577899985015,None,1,0.046595799969509244,14.059577899985015,None,,,,,,,,,,,,,,,001,2022_Jan_24_1136,TMTAstop-A,2021.2.3,59.92706873222702,
8,['3'],TMTstop-A_1_practicelinestimulus5.png,TMTstop-A_1_practicegreenlinestimulus5.png,TMTstop-A_1_practiceredlinestimulus5.png,10,,,,0,0,0,0,0,7,7,7,,,,,,,,,,,,,,,,,,,14.193030699971132,None,3,0.08541870000772178,14.193030699971132,None,,,,,,,,,,,,,,,001,2022_Jan_24_1136,TMTAstop-A,2021.2.3,59.92706873222702,
9,['2'],TMTstop-A_1_practicelinestimulus6.png,TMTstop-A_1_practicegreenlinestimulus6.png,TMTstop-A_1_practiceredlinestimulus6.png,10,,,,0,0,0,0,0,8,8,8,,,,,,,,,,,,,,,,,,,14.376489700051025,None,2,0.110721500008367,14.376489700051025,None,,,,,,,,,,,,,,,001,2022_Jan_24_1136,TMTAstop-A,2021.2.3,59.92706873222702,
10,['3'],TMTstop-A_1_practicelinestimulus7.png,TMTstop-A_1_practicegreenlinestimulus7.png,TMTstop-A_1_practiceredlinestimulus7.png,10,,,,0,0,0,0,0,9,9,9,,,,,,,,,,,,,,,,,,,14.609997999970801,None,3,0.27946919994428754,14.609997999970801,None,,,,,,,,,,,,,,,001,2022_Jan_24_1136,TMTAstop-A,2021.2.3,59.92706873222702,
11,['1'],TMTstop-A_1_practicelinestimulus8.png,TMTstop-A_1_practicegreenlinestimulus8.png,TMTstop-A_1_practiceredlinestimulus8.png,10,,,,0,0,0,0,0,10,10,10,,,,,,,,,,,,,,,,,,,15.01034180005081,None,1,0.00625390000641346,15.01034180005081,None,,,,,,,,,,,,,,,001,2022_Jan_24_1136,TMTAstop-A,2021.2.3,59.92706873222702,
12,['2'],TMTstop-A_1_practicelinestimulus9.png,TMTstop-A_1_practicegreenlinestimulus9.png,TMTstop-A_1_practiceredlinestimulus9.png,10,,,,0,0,0,0,0,11,11,11,,,,,,,,,,,,,,,,,,,15.11233130004257,None,2,0.263495699968189,15.11233130004257,None,,,,,,,,,,,,,,,001,2022_Jan_24_1136,TMTAstop-A,2021.2.3,59.92706873222702,
None,None,TMTstop-A_1_practicelinestimulus10.png,TMTstop-A_1_practicegreenlinestimulus10.png,TMTstop-A_1_practiceredlinestimulus10.png,None,,,,0,0,0,0,0,12,12,12,,,,,,,,,,,,,,,,,,,15.47708970005624,None,3,0.650204399949871,15.47708970005624,None,,,,,,,,,,,,,,,001,2022_Jan_24_1136,TMTAstop-A,2021.2.3,59.92706873222702,
,,,,,,,,,0,0,0,0,,,,,,,,,,,,,,,,,,,,,,,,,,,,,16.607757700025104,None,2,2.4955863000359386,16.607757700025104,None,,,,,,,,,001,2022_Jan_24_1136,TMTAstop-A,2021.2.3,59.92706873222702,
1,['2'],TMTstop-A_1_1.png,TMTstop-A_1_1.png,TMTstop-A_1_1.png,10,TMTstop-A_1_1.xlsx,0:26,,,,,,,,,,0,0,0,0,0,0,0,0,,,,,,,,,19.19199259998277,None,,,,,,,,,,,,,22.246156500070356,None,['2'],1,[0.6280926000326872],22.246156500070356,None,,001,2022_Jan_24_1136,TMTAstop-A,2021.2.3,59.92706873222702,
2,['1'],TMTstop-A_1_1.png,TMTstop-A_1_1firstgreen.png,TMTstop-A_1_1firstred.png,10,TMTstop-A_1_1.xlsx,0:26,,,,,,,,,,0,0,0,0,0,1,1,1,,,,,,,,,,,,,,,,,,,,,,,22.963781200000085,None,"['3', '1']",1,"[0.13269699993543327, 0.1423198999837041]",22.963781200000085,None,,001,2022_Jan_24_1136,TMTAstop-A,2021.2.3,59.92706873222702,
3,['2'],TMTstop-A_1_1linestimulus0.png,TMTstop-A_1_1greenlinestimulus0.png,TMTstop-A_1_1redlinestimulus0.png,10,TMTstop-A_1_1.xlsx,0:26,,,,,,,,,,0,0,0,0,0,2,2,2,,,,,,,,,,,,,,,,,,,,,,,23.23073050007224,None,['2'],1,[-0.01664320006966591],23.23073050007224,None,,001,2022_Jan_24_1136,TMTAstop-A,2021.2.3,59.92706873222702,
4,['3'],TMTstop-A_1_1linestimulus1.png,TMTstop-A_1_1greenlinestimulus1.png,TMTstop-A_1_1redlinestimulus1.png,10,TMTstop-A_1_1.xlsx,0:26,,,,,,,,,,0,0,0,0,0,3,3,3,,,,,,,,,,,,,,,,,,,,,,,23.31408639997244,None,['3'],1,[-0.012520599993877113],23.31408639997244,None,,001,2022_Jan_24_1136,TMTAstop-A,2021.2.3,59.92706873222702,
5,['2'],TMTstop-A_1_1linestimulus2.png,TMTstop-A_1_1greenlinestimulus2.png,TMTstop-A_1_1redlinestimulus2.png,10,TMTstop-A_1_1.xlsx,0:26,,,,,,,,,,0,0,0,0,0,4,4,4,,,,,,,,,,,,,,,,,,,,,,,23.39938620000612,None,"['1', '2']",1,"[0.05348890007007867, 0.10921570006757975]",23.39938620000612,None,,001,2022_Jan_24_1136,TMTAstop-A,2021.2.3,59.92706873222702,
6,['3'],TMTstop-A_1_1linestimulus3.png,TMTstop-A_1_1greenlinestimulus3.png,TMTstop-A_1_1redlinestimulus3.png,10,TMTstop-A_1_1.xlsx,0:26,,,,,,,,,,0,0,0,0,0,5,5,5,,,,,,,,,,,,,,,,,,,,,,,23.597403799998574,None,['3'],1,[0.0029061000095680356],23.597403799998574,None,,001,2022_Jan_24_1136,TMTAstop-A,2021.2.3,59.92706873222702,
7,['2'],TMTstop-A_1_1linestimulus4.png,TMTstop-A_1_1greenlinestimulus4.png,TMTstop-A_1_1redlinestimulus4.png,10,TMTstop-A_1_1.xlsx,0:26,,,,,,,,,,0,0,0,0,0,6,6,6,,,,,,,,,,,,,,,,,,,,,,,23.69750540005043,None,"['1', '2']",1,"[0.06903829996008426, 0.11766069999430329]",23.69750540005043,None,,001,2022_Jan_24_1136,TMTAstop-A,2021.2.3,59.92706873222702,
8,['1'],TMTstop-A_1_1linestimulus5.png,TMTstop-A_1_1greenlinestimulus5.png,TMTstop-A_1_1redlinestimulus5.png,10,TMTstop-A_1_1.xlsx,0:26,,,,,,,,,,0,0,0,0,0,7,7,7,,,,,,,,,,,,,,,,,,,,,,,23.9143911000574,None,"['3', '1']",1,"[0.007365299970842898, 0.16007730003912002]",23.9143911000574,None,,001,2022_Jan_24_1136,TMTAstop-A,2021.2.3,59.92706873222702,
9,['2'],TMTstop-A_1_1linestimulus6.png,TMTstop-A_1_1greenlinestimulus6.png,TMTstop-A_1_1redlinestimulus6.png,10,TMTstop-A_1_1.xlsx,0:26,,,,,,,,,,0,0,0,0,0,8,8,8,,,,,,,,,,,,,,,,,,,,,,,24.164224000065587,None,['2'],1,[-0.038695700000971556],24.164224000065587,None,,001,2022_Jan_24_1136,TMTAstop-A,2021.2.3,59.92706873222702,
10,['1'],TMTstop-A_1_1linestimulus7.png,TMTstop-A_1_1greenlinestimulus7.png,TMTstop-A_1_1redlinestimulus7.png,10,TMTstop-A_1_1.xlsx,0:26,,,,,,,,,,0,0,0,0,0,9,9,9,,,,,,,,,,,,,,,,,,,,,,,24.24781279999297,None,"['3', '1']",1,"[-0.01930090005043894, 0.1371979999821633]",24.24781279999297,None,,001,2022_Jan_24_1136,TMTAstop-A,2021.2.3,59.92706873222702,
11,['2'],TMTstop-A_1_1linestimulus8.png,TMTstop-A_1_1greenlinestimulus8.png,TMTstop-A_1_1redlinestimulus8.png,10,TMTstop-A_1_1.xlsx,0:26,,,,,,,,,,0,0,0,0,0,10,10,10,,,,,,,,,,,,,,,,,,,,,,,24.481083299964666,None,['2'],1,[-0.06183740007691085],24.481083299964666,None,,001,2022_Jan_24_1136,TMTAstop-A,2021.2.3,59.92706873222702,
12,['3'],TMTstop-A_1_1linestimulus9.png,TMTstop-A_1_1greenlinestimulus9.png,TMTstop-A_1_1redlinestimulus9.png,10,TMTstop-A_1_1.xlsx,0:26,,,,,,,,,,0,0,0,0,0,11,11,11,,,,,,,,,,,,,,,,,,,,,,,24.56448659999296,None,['3'],1,[-0.022921400028280914],24.56448659999296,None,,001,2022_Jan_24_1136,TMTAstop-A,2021.2.3,59.92706873222702,
13,['2'],TMTstop-A_1_1linestimulus10.png,TMTstop-A_1_1greenlinestimulus10.png,TMTstop-A_1_1redlinestimulus10.png,1,TMTstop-A_1_1.xlsx,0:26,,,,,,,,,,0,0,0,0,0,12,12,12,,,,,,,,,,,,,,,,,,,,,,,24.64790500001982,None,"['1', '2']",1,"[0.0356019000755623, 0.08771360001992434]",24.64790500001982,None,,001,2022_Jan_24_1136,TMTAstop-A,2021.2.3,59.92706873222702,
14,['3'],TMTstop-A_1_1linestimulus11.png,TMTstop-A_1_1greenlinestimulus11.png,TMTstop-A_1_1redlinestimulus11.png,None,TMTstop-A_1_1.xlsx,0:26,,,,,,,,,,0,0,0,0,0,13,13,13,,,,,,,,,,,,,,,,,,,,,,,24.831447300035506,None,['3'],1,[0.01771699998062104],24.831447300035506,None,,001,2022_Jan_24_1136,TMTAstop-A,2021.2.3,59.92706873222702,
15,['1'],TMTstop-A_1_1linestimulus12.png,TMTstop-A_1_1greenlinestimulus12.png,TMTstop-A_1_1redlinestimulus12.png,None,TMTstop-A_1_1.xlsx,0:26,,,,,,,,,,0,0,0,0,0,14,14,14,,,,,,,,,,,,,,,,,,,,,,,24.93134300003294,None,['1'],1,[0.057058800011873245],24.93134300003294,None,,001,2022_Jan_24_1136,TMTAstop-A,2021.2.3,59.92706873222702,
16,['3'],TMTstop-A_1_1linestimulus13.png,TMTstop-A_1_1greenlinestimulus13.png,TMTstop-A_1_1redlinestimulus13.png,None,TMTstop-A_1_1.xlsx,0:26,,,,,,,,,,0,0,0,0,0,15,15,15,,,,,,,,,,,,,,,,,,,,,,,25.081402700045146,None,"['2', '3']",1,"[-0.06581679999362677, 0.09883120004087687]",25.081402700045146,None,,001,2022_Jan_24_1136,TMTAstop-A,2021.2.3,59.92706873222702,
17,['2'],TMTstop-A_1_1linestimulus14.png,TMTstop-A_1_1greenlinestimulus14.png,TMTstop-A_1_1redlinestimulus14.png,None,TMTstop-A_1_1.xlsx,0:26,,,,,,,,,,0,0,0,0,0,16,16,16,,,,,,,,,,,,,,,,,,,,,,,25.26474200002849,None,"['1', '2']",1,"[0.1441237999824807, 0.14898679999168962]",25.26474200002849,None,,001,2022_Jan_24_1136,TMTAstop-A,2021.2.3,59.92706873222702,
18,['3'],TMTstop-A_1_1linestimulus15.png,TMTstop-A_1_1greenlinestimulus15.png,TMTstop-A_1_1redlinestimulus15.png,None,TMTstop-A_1_1.xlsx,0:26,,,,,,,,,,0,0,0,0,0,17,17,17,,,,,,,,,,,,,,,,,,,,,,,25.498925699968822,None,['3'],1,[0.05904009996447712],25.498925699968822,None,,001,2022_Jan_24_1136,TMTAstop-A,2021.2.3,59.92706873222702,
19,['1'],TMTstop-A_1_1linestimulus16.png,TMTstop-A_1_1greenlinestimulus16.png,TMTstop-A_1_1redlinestimulus16.png,None,TMTstop-A_1_1.xlsx,0:26,,,,,,,,,,0,0,0,0,0,18,18,18,,,,,,,,,,,,,,,,,,,,,,,25.648492700071074,None,['1'],1,[0.0916840999852866],25.648492700071074,None,,001,2022_Jan_24_1136,TMTAstop-A,2021.2.3,59.92706873222702,
20,['3'],TMTstop-A_1_1linestimulus17.png,TMTstop-A_1_1greenlinestimulus17.png,TMTstop-A_1_1redlinestimulus17.png,None,TMTstop-A_1_1.xlsx,0:26,,,,,,,,,,0,0,0,0,0,19,19,19,,,,,,,,,,,,,,,,,,,,,,,25.83190840005409,None,"['2', '3']",1,"[0.1720987999578938, 0.4489290000637993]",25.83190840005409,None,,001,2022_Jan_24_1136,TMTAstop-A,2021.2.3,59.92706873222702,
21,['1'],TMTstop-A_1_1linestimulus18.png,TMTstop-A_1_1greenlinestimulus18.png,TMTstop-A_1_1redlinestimulus18.png,None,TMTstop-A_1_1.xlsx,0:26,,,,,,,,,,0,0,0,0,0,20,20,20,,,,,,,,,,,,,,,,,,,,,,,26.398673100047745,None,['1'],1,[0.045723100076429546],26.398673100047745,None,,001,2022_Jan_24_1136,TMTAstop-A,2021.2.3,59.92706873222702,
22,['3'],TMTstop-A_1_1linestimulus19.png,TMTstop-A_1_1greenlinestimulus19.png,TMTstop-A_1_1redlinestimulus19.png,None,TMTstop-A_1_1.xlsx,0:26,,,,,,,,,,0,0,0,0,0,21,21,21,,,,,,,,,,,,,,,,,,,,,,,26.53207159996964,None,"['2', '3']",1,"[0.01785049994941801, 0.11201829998753965]",26.53207159996964,None,,001,2022_Jan_24_1136,TMTAstop-A,2021.2.3,59.92706873222702,
23,['1'],TMTstop-A_1_1linestimulus20.png,TMTstop-A_1_1greenlinestimulus20.png,TMTstop-A_1_1redlinestimulus20.png,None,TMTstop-A_1_1.xlsx,0:26,,,,,,,,,,0,0,0,0,0,22,22,22,,,,,,,,,,,,,,,,,,,,,,,26.732234800001606,None,['1'],1,[0.04368799994699657],26.732234800001606,None,,001,2022_Jan_24_1136,TMTAstop-A,2021.2.3,59.92706873222702,
24,['2'],TMTstop-A_1_1linestimulus21.png,TMTstop-A_1_1greenlinestimulus21.png,TMTstop-A_1_1redlinestimulus21.png,None,TMTstop-A_1_1.xlsx,0:26,,,,,,,,,,0,0,0,0,0,23,23,23,,,,,,,,,,,,,,,,,,,,,,,26.865674400003627,None,['2'],1,[0.006199400057084858],26.865674400003627,None,,001,2022_Jan_24_1136,TMTAstop-A,2021.2.3,59.92706873222702,
25,['3'],TMTstop-A_1_1linestimulus22.png,TMTstop-A_1_1greenlinestimulus22.png,TMTstop-A_1_1redlinestimulus22.png,None,TMTstop-A_1_1.xlsx,0:26,,,,,,,,,,0,0,0,0,0,24,24,24,,,,,,,,,,,,,,,,,,,,,,,26.965853000059724,None,['3'],1,[0.017125000013038516],26.965853000059724,None,,001,2022_Jan_24_1136,TMTAstop-A,2021.2.3,59.92706873222702,
None,None,TMTstop-A_1_1linestimulus23.png,TMTstop-A_1_1greenlinestimulus23.png,TMTstop-A_1_1redlinestimulus23.png,None,TMTstop-A_1_1.xlsx,0:26,,,,,,,,,,0,0,0,0,0,25,25,25,,,,,,,,,,,,,,,,,,,,,,,27.06561190006323,None,"['1', '2', '3', '1', '2', '3', '1', '2', '3']",0,"[0.03748029994312674, 0.12702719995286316, 0.2395040999399498, 0.3772240000544116, 0.47147720004431903, 0.5739143999526277, 0.7105946999508888, 0.7815976999700069, 0.8799997000023723]",27.06561190006323,None,,001,2022_Jan_24_1136,TMTAstop-A,2021.2.3,59.92706873222702,
,,,,,,TMTstop-A_1_1.xlsx,0:26,,,,,,,,,,0,0,0,0,,,,,,,,,,,,,28.16437280003447,None,,,,,,,,,,,,,,,,,,,,,001,2022_Jan_24_1136,TMTAstop-A,2021.2.3,59.92706873222702,
1,['3'],TMTstop-A_1_2.png,TMTstop-A_1_2.png,TMTstop-A_1_2.png,10,TMTstop-A_1_2.xlsx,26:52,3,,,,,,,,,0,1,1,1,0,0,0,0,,,,,,,,,,,,,,,,,,,,,,,31.167608999996446,None,"['1', '2', '3']",1,"[0.4735205000033602, 0.6132062999531627, 0.7086505999322981]",31.167608999996446,None,,001,2022_Jan_24_1136,TMTAstop-A,2021.2.3,59.92706873222702,
2,['2'],TMTstop-A_1_2.png,TMTstop-A_1_2firstgreen.png,TMTstop-A_1_2firstred.png,10,TMTstop-A_1_2.xlsx,26:52,2,,,,,,,,,0,1,1,1,0,1,1,1,,,,,,,,,,,,,,,,,,,,,,,31.984661099966615,None,"['1', '2']",1,"[0.11060210003051907, 0.18514740001410246]",31.984661099966615,None,,001,2022_Jan_24_1136,TMTAstop-A,2021.2.3,59.92706873222702,
3,['3'],TMTstop-A_1_2linestimulus0.png,TMTstop-A_1_2greenlinestimulus0.png,TMTstop-A_1_2redlinestimulus0.png,10,TMTstop-A_1_2.xlsx,26:52,3,,,,,,,,,0,1,1,1,0,2,2,2,,,,,,,,,,,,,,,,,,,,,,,32.28487990004942,None,"['1', '2', '3']",1,"[0.13408970006275922, 0.2090059999609366, 0.305193500011228]",32.28487990004942,None,,001,2022_Jan_24_1136,TMTAstop-A,2021.2.3,59.92706873222702,
4,['1'],TMTstop-A_1_2linestimulus1.png,TMTstop-A_1_2greenlinestimulus1.png,TMTstop-A_1_2redlinestimulus1.png,10,TMTstop-A_1_2.xlsx,26:52,1,,,,,,,,,0,1,1,1,0,3,3,3,,,,,,,,,,,,,,,,,,,,,,,32.70162980002351,None,['1'],1,[0.07944990007672459],32.70162980002351,None,,001,2022_Jan_24_1136,TMTAstop-A,2021.2.3,59.92706873222702,
5,['2'],TMTstop-A_1_2linestimulus2.png,TMTstop-A_1_2greenlinestimulus2.png,TMTstop-A_1_2redlinestimulus2.png,10,TMTstop-A_1_2.xlsx,26:52,2,,,,,,,,,0,1,1,1,0,4,4,4,,,,,,,,,,,,,,,,,,,,,,,32.868427100009285,None,['2'],1,[-0.038067699992097914],32.868427100009285,None,,001,2022_Jan_24_1136,TMTAstop-A,2021.2.3,59.92706873222702,
6,['3'],TMTstop-A_1_2linestimulus3.png,TMTstop-A_1_2greenlinestimulus3.png,TMTstop-A_1_2redlinestimulus3.png,10,TMTstop-A_1_2.xlsx,26:52,3,,,,,,,,,0,1,1,1,0,5,5,5,,,,,,,,,,,,,,,,,,,,,,,32.951761099975556,None,['3'],1,[0.007998800021596253],32.951761099975556,None,,001,2022_Jan_24_1136,TMTAstop-A,2021.2.3,59.92706873222702,
7,['2'],TMTstop-A_1_2linestimulus4.png,TMTstop-A_1_2greenlinestimulus4.png,TMTstop-A_1_2redlinestimulus4.png,10,TMTstop-A_1_2.xlsx,26:52,2,,,,,,,,,0,1,1,1,0,6,6,6,,,,,,,,,,,,,,,,,,,,,,,33.05174759996589,None,"['1', '2']",1,"[0.03901359997689724, 0.1077168999472633]",33.05174759996589,None,,001,2022_Jan_24_1136,TMTAstop-A,2021.2.3,59.92706873222702,
8,['1'],TMTstop-A_1_2linestimulus5.png,TMTstop-A_1_2greenlinestimulus5.png,TMTstop-A_1_2redlinestimulus5.png,10,TMTstop-A_1_2.xlsx,26:52,1,,,,,,,,,0,1,1,1,0,7,7,7,,,,,,,,,,,,,,,,,,,,,,,33.28523789998144,None,"['3', '1']",1,"[-0.029330300050787628, 0.10516139992978424]",33.28523789998144,None,,001,2022_Jan_24_1136,TMTAstop-A,2021.2.3,59.92706873222702,
9,['2'],TMTstop-A_1_2linestimulus6.png,TMTstop-A_1_2greenlinestimulus6.png,TMTstop-A_1_2redlinestimulus6.png,10,TMTstop-A_1_2.xlsx,26:52,2,,,,,,,,,0,1,1,1,0,8,8,8,,,,,,,,,,,,,,,,,,,,,,,33.51868520001881,None,['2'],1,[-0.049594399984925985],33.51868520001881,None,,001,2022_Jan_24_1136,TMTAstop-A,2021.2.3,59.92706873222702,
10,['3'],TMTstop-A_1_2linestimulus7.png,TMTstop-A_1_2greenlinestimulus7.png,TMTstop-A_1_2redlinestimulus7.png,10,TMTstop-A_1_2.xlsx,26:52,3,,,,,,,,,0,1,1,1,0,9,9,9,,,,,,,,,,,,,,,,,,,,,,,33.635762899997644,None,['3'],1,[-0.08135830005630851],33.635762899997644,None,,001,2022_Jan_24_1136,TMTAstop-A,2021.2.3,59.92706873222702,
11,['1'],TMTstop-A_1_2linestimulus8.png,TMTstop-A_1_2greenlinestimulus8.png,TMTstop-A_1_2redlinestimulus8.png,10,TMTstop-A_1_2.xlsx,26:52,1,,,,,,,,,0,1,1,1,0,10,10,10,,,,,,,,,,,,,,,,,,,,,,,33.703415900003165,None,['1'],1,[-0.011566100060008466],33.703415900003165,None,,001,2022_Jan_24_1136,TMTAstop-A,2021.2.3,59.92706873222702,
12,['2'],TMTstop-A_1_2linestimulus9.png,TMTstop-A_1_2greenlinestimulus9.png,TMTstop-A_1_2redlinestimulus9.png,10,TMTstop-A_1_2.xlsx,26:52,2,,,,,,,,,0,1,1,1,0,11,11,11,,,,,,,,,,,,,,,,,,,,,,,33.78552420006599,None,['2'],1,[-0.009542700019665062],33.78552420006599,None,,001,2022_Jan_24_1136,TMTAstop-A,2021.2.3,59.92706873222702,
13,['3'],TMTstop-A_1_2linestimulus10.png,TMTstop-A_1_2greenlinestimulus10.png,TMTstop-A_1_2redlinestimulus10.png,1,TMTstop-A_1_2.xlsx,26:52,3,,,,,,,,,0,1,1,1,0,12,12,12,,,,,,,,,,,,,,,,,,,,,,,33.86878630006686,None,['3'],1,[0.013521800050511956],33.86878630006686,None,,001,2022_Jan_24_1136,TMTAstop-A,2021.2.3,59.92706873222702,
14,['1'],TMTstop-A_1_2linestimulus11.png,TMTstop-A_1_2greenlinestimulus11.png,TMTstop-A_1_2redlinestimulus11.png,None,TMTstop-A_1_2.xlsx,26:52,1,,,,,,,,,0,1,1,1,0,13,13,13,,,,,,,,,,,,,,,,,,,,,,,33.96893089998048,None,['1'],1,[0.04508640000130981],33.96893089998048,None,,001,2022_Jan_24_1136,TMTAstop-A,2021.2.3,59.92706873222702,
15,['3'],TMTstop-A_1_2linestimulus12.png,TMTstop-A_1_2greenlinestimulus12.png,TMTstop-A_1_2redlinestimulus12.png,None,TMTstop-A_1_2.xlsx,26:52,3,,,,,,,,,0,1,1,1,0,14,14,14,,,,,,,,,,,,,,,,,,,,,,,34.10226429998875,None,"['2', '3']",1,"[-0.019290100084617734, 0.08326889993622899]",34.10226429998875,None,,001,2022_Jan_24_1136,TMTAstop-A,2021.2.3,59.92706873222702,
16,['1'],TMTstop-A_1_2linestimulus13.png,TMTstop-A_1_2greenlinestimulus13.png,TMTstop-A_1_2redlinestimulus13.png,None,TMTstop-A_1_2.xlsx,26:52,1,,,,,,,,,0,1,1,1,0,15,15,15,,,,,,,,,,,,,,,,,,,,,,,34.28571780002676,None,['1'],1,[0.03651250002440065],34.28571780002676,None,,001,2022_Jan_24_1136,TMTAstop-A,2021.2.3,59.92706873222702,
17,['2'],TMTstop-A_1_2linestimulus14.png,TMTstop-A_1_2greenlinestimulus14.png,TMTstop-A_1_2redlinestimulus14.png,None,TMTstop-A_1_2.xlsx,26:52,2,,,,,,,,,0,1,1,1,0,16,16,16,,,,,,,,,,,,,,,,,,,,,,,34.41955390002113,None,['2'],1,[-0.013413999928161502],34.41955390002113,None,,001,2022_Jan_24_1136,TMTAstop-A,2021.2.3,59.92706873222702,
18,['1'],TMTstop-A_1_2linestimulus15.png,TMTstop-A_1_2greenlinestimulus15.png,TMTstop-A_1_2redlinestimulus15.png,None,TMTstop-A_1_2.xlsx,26:52,1,,,,,,,,,0,1,1,1,0,17,17,17,,,,,,,,,,,,,,,,,,,,,,,34.50250880001113,None,"['3', '1']",1,"[0.0071919000474736094, 0.16002700000535697]",34.50250880001113,None,,001,2022_Jan_24_1136,TMTAstop-A,2021.2.3,59.92706873222702,
19,['3'],TMTstop-A_1_2linestimulus16.png,TMTstop-A_1_2greenlinestimulus16.png,TMTstop-A_1_2redlinestimulus16.png,None,TMTstop-A_1_2.xlsx,26:52,3,,,,,,,,,0,1,1,1,0,18,18,18,,,,,,,,,,,,,,,,,,,,,,,34.75283240003046,None,"['2', '3']",1,"[-0.022043799981474876, 0.07867469999473542]",34.75283240003046,None,,001,2022_Jan_24_1136,TMTAstop-A,2021.2.3,59.92706873222702,
20,['1'],TMTstop-A_1_2linestimulus17.png,TMTstop-A_1_2greenlinestimulus17.png,TMTstop-A_1_2redlinestimulus17.png,None,TMTstop-A_1_2.xlsx,26:52,1,,,,,,,,,0,1,1,1,0,19,19,19,,,,,,,,,,,,,,,,,,,,,,,34.93599280004855,None,['1'],1,[0.03802850004285574],34.93599280004855,None,,001,2022_Jan_24_1136,TMTAstop-A,2021.2.3,59.92706873222702,
21,['2'],TMTstop-A_1_2linestimulus18.png,TMTstop-A_1_2greenlinestimulus18.png,TMTstop-A_1_2redlinestimulus18.png,None,TMTstop-A_1_2.xlsx,26:52,2,,,,,,,,,0,1,1,1,0,20,20,20,,,,,,,,,,,,,,,,,,,,,,,35.06981979997363,None,['2'],1,[-0.013536700047552586],35.06981979997363,None,,001,2022_Jan_24_1136,TMTAstop-A,2021.2.3,59.92706873222702,
22,['1'],TMTstop-A_1_2linestimulus19.png,TMTstop-A_1_2greenlinestimulus19.png,TMTstop-A_1_2redlinestimulus19.png,None,TMTstop-A_1_2.xlsx,26:52,1,,,,,,,,,0,1,1,1,0,21,21,21,,,,,,,,,,,,,,,,,,,,,,,35.152692100033164,None,"['3', '1']",1,"[-0.011814899975433946, 0.14195620000828058]",35.152692100033164,None,,001,2022_Jan_24_1136,TMTAstop-A,2021.2.3,59.92706873222702,
23,['2'],TMTstop-A_1_2linestimulus20.png,TMTstop-A_1_2greenlinestimulus20.png,TMTstop-A_1_2redlinestimulus20.png,None,TMTstop-A_1_2.xlsx,26:52,2,,,,,,,,,0,1,1,1,0,22,22,22,,,,,,,,,,,,,,,,,,,,,,,35.38633310003206,None,['2'],1,[-0.022105899988673627],35.38633310003206,None,,001,2022_Jan_24_1136,TMTAstop-A,2021.2.3,59.92706873222702,
24,['1'],TMTstop-A_1_2linestimulus21.png,TMTstop-A_1_2greenlinestimulus21.png,TMTstop-A_1_2redlinestimulus21.png,None,TMTstop-A_1_2.xlsx,26:52,1,,,,,,,,,0,1,1,1,0,23,23,23,,,,,,,,,,,,,,,,,,,,,,,35.469663199968636,None,"['3', '1']",1,"[0.004379599937237799, 0.1494179000146687]",35.469663199968636,None,,001,2022_Jan_24_1136,TMTAstop-A,2021.2.3,59.92706873222702,
25,['2'],TMTstop-A_1_2linestimulus22.png,TMTstop-A_1_2greenlinestimulus22.png,TMTstop-A_1_2redlinestimulus22.png,None,TMTstop-A_1_2.xlsx,26:52,2,,,,,,,,,0,1,1,1,0,24,24,24,,,,,,,,,,,,,,,,,,,,,,,35.71965700003784,None,['2'],1,[-0.01130020001437515],35.71965700003784,None,,001,2022_Jan_24_1136,TMTAstop-A,2021.2.3,59.92706873222702,
None,None,TMTstop-A_1_2linestimulus23.png,TMTstop-A_1_2greenlinestimulus23.png,TMTstop-A_1_2redlinestimulus23.png,None,TMTstop-A_1_2.xlsx,26:52,None,,,,,,,,,0,1,1,1,0,25,25,25,,,,,,,,,,,,,,,,,,,,,,,35.80304679996334,None,"['3', '1', '2', '3']",0,"[0.01748859998770058, 0.14955830003600568, 0.2452073999447748, 0.3475897000171244]",35.80304679996334,None,,001,2022_Jan_24_1136,TMTAstop-A,2021.2.3,59.92706873222702,
,,,,,,TMTstop-A_1_2.xlsx,26:52,,,,,,,,,,0,1,1,1,,,,,,,,,,,,,36.95175750006456,None,,,,,,,,,,,,,,,,,,,,,001,2022_Jan_24_1136,TMTAstop-A,2021.2.3,59.92706873222702,
1,['2'],TMTstop-A_1_3.png,TMTstop-A_1_3.png,TMTstop-A_1_3.png,10,TMTstop-A_1_3.xlsx,52:78,2,,,,,,,,,0,2,2,2,0,0,0,0,,,,,,,,,,,,,,,,,,,,,,,39.90549779997673,None,"['1', '2']",1,"[0.6483272999757901, 1.2274165999842808]",39.90549779997673,None,,001,2022_Jan_24_1136,TMTAstop-A,2021.2.3,59.92706873222702,
2,['1'],TMTstop-A_1_3.png,TMTstop-A_1_3firstgreen.png,TMTstop-A_1_3firstred.png,10,TMTstop-A_1_3.xlsx,52:78,1,,,,,,,,,0,2,2,2,0,1,1,1,,,,,,,,,,,,,,,,,,,,,,,41.23896220000461,None,"['3', '2', '1']",1,"[0.45362980000209063, 1.0021560000022873, 1.5308343999786302]",41.23896220000461,None,,001,2022_Jan_24_1136,TMTAstop-A,2021.2.3,59.92706873222702,
3,['3'],TMTstop-A_1_3linestimulus0.png,TMTstop-A_1_3greenlinestimulus0.png,TMTstop-A_1_3redlinestimulus0.png,10,TMTstop-A_1_3.xlsx,52:78,3,,,,,,,,,0,2,2,2,0,2,2,2,,,,,,,,,,,,,,,,,,,,,,,42.88975219998974,None,"['2', '3']",1,"[0.4419120999518782, 0.9763601999729872]",42.88975219998974,None,,001,2022_Jan_24_1136,TMTAstop-A,2021.2.3,59.92706873222702,
4,['2'],TMTstop-A_1_3linestimulus1.png,TMTstop-A_1_3greenlinestimulus1.png,TMTstop-A_1_3redlinestimulus1.png,10,TMTstop-A_1_3.xlsx,52:78,2,,,,,,,,,0,2,2,2,0,3,3,3,,,,,,,,,,,,,,,,,,,,,,,43.973524200031534,None,"['1', '2']",1,"[0.3966112000634894, 0.8924941000295803]",43.973524200031534,None,,001,2022_Jan_24_1136,TMTAstop-A,2021.2.3,59.92706873222702,
5,['3'],TMTstop-A_1_3linestimulus2.png,TMTstop-A_1_3greenlinestimulus2.png,TMTstop-A_1_3redlinestimulus2.png,10,TMTstop-A_1_3.xlsx,52:78,3,,,,,,,,,0,2,2,2,0,4,4,4,,,,,,,,,,,,,,,,,,,,,,,44.95735979999881,None,['3'],1,[0.32642510009463876],44.95735979999881,None,,001,2022_Jan_24_1136,TMTAstop-A,2021.2.3,59.92706873222702,
6,['2'],TMTstop-A_1_3linestimulus3.png,TMTstop-A_1_3greenlinestimulus3.png,TMTstop-A_1_3redlinestimulus3.png,10,TMTstop-A_1_3.xlsx,52:78,2,,,,,,,,,0,2,2,2,0,5,5,5,,,,,,,,,,,,,,,,,,,,,,,45.3743030000478,None,['2'],1,[0.3874315000139177],45.3743030000478,None,,001,2022_Jan_24_1136,TMTAstop-A,2021.2.3,59.92706873222702,
7,['1'],TMTstop-A_1_3linestimulus4.png,TMTstop-A_1_3greenlinestimulus4.png,TMTstop-A_1_3redlinestimulus4.png,10,TMTstop-A_1_3.xlsx,52:78,1,,,,,,,,,0,2,2,2,0,6,6,6,,,,,,,,,,,,,,,,,,,,,,,45.84131080005318,None,['1'],1,[0.33678449993021786],45.84131080005318,None,,001,2022_Jan_24_1136,TMTAstop-A,2021.2.3,59.92706873222702,
8,['2'],TMTstop-A_1_3linestimulus5.png,TMTstop-A_1_3greenlinestimulus5.png,TMTstop-A_1_3redlinestimulus5.png,10,TMTstop-A_1_3.xlsx,52:78,2,,,,,,,,,0,2,2,2,0,7,7,7,,,,,,,,,,,,,,,,,,,,,,,46.274575200048275,None,['2'],1,[0.30464790004771203],46.274575200048275,None,,001,2022_Jan_24_1136,TMTAstop-A,2021.2.3,59.92706873222702,
9,['3'],TMTstop-A_1_3linestimulus6.png,TMTstop-A_1_3greenlinestimulus6.png,TMTstop-A_1_3redlinestimulus6.png,10,TMTstop-A_1_3.xlsx,52:78,3,,,,,,,,,0,2,2,2,0,8,8,8,,,,,,,,,,,,,,,,,,,,,,,46.67475450003985,None,['3'],1,[0.23716620006598532],46.67475450003985,None,,001,2022_Jan_24_1136,TMTAstop-A,2021.2.3,59.92706873222702,
10,['2'],TMTstop-A_1_3linestimulus7.png,TMTstop-A_1_3greenlinestimulus7.png,TMTstop-A_1_3redlinestimulus7.png,10,TMTstop-A_1_3.xlsx,52:78,2,,,,,,,,,0,2,2,2,0,9,9,9,,,,,,,,,,,,,,,,,,,,,,,47.00837399996817,None,['2'],1,[0.2770019000163302],47.00837399996817,None,,001,2022_Jan_24_1136,TMTAstop-A,2021.2.3,59.92706873222702,
11,['3'],TMTstop-A_1_3linestimulus8.png,TMTstop-A_1_3greenlinestimulus8.png,TMTstop-A_1_3redlinestimulus8.png,10,TMTstop-A_1_3.xlsx,52:78,3,,,,,,,,,0,2,2,2,0,10,10,10,,,,,,,,,,,,,,,,,,,,,,,47.37509620003402,None,"['1', '2', '3']",1,"[0.1849728999659419, 0.5480654999846593, 0.849711999995634]",47.37509620003402,None,,001,2022_Jan_24_1136,TMTAstop-A,2021.2.3,59.92706873222702,
12,['2'],TMTstop-A_1_3linestimulus9.png,TMTstop-A_1_3greenlinestimulus9.png,TMTstop-A_1_3redlinestimulus9.png,10,TMTstop-A_1_3.xlsx,52:78,2,,,,,,,,,0,2,2,2,0,11,11,11,,,,,,,,,,,,,,,,,,,,,,,48.34221380006056,None,['2'],1,[0.18668579997029155],48.34221380006056,None,,001,2022_Jan_24_1136,TMTAstop-A,2021.2.3,59.92706873222702,
13,['1'],TMTstop-A_1_3linestimulus10.png,TMTstop-A_1_3greenlinestimulus10.png,TMTstop-A_1_3redlinestimulus10.png,1,TMTstop-A_1_3.xlsx,52:78,1,,,,,,,,,0,2,2,2,0,12,12,12,,,,,,,,,,,,,,,,,,,,,,,48.62578390003182,None,['1'],1,[0.2013930999673903],48.62578390003182,None,,001,2022_Jan_24_1136,TMTAstop-A,2021.2.3,59.92706873222702,
14,['2'],TMTstop-A_1_3linestimulus11.png,TMTstop-A_1_3greenlinestimulus11.png,TMTstop-A_1_3redlinestimulus11.png,None,TMTstop-A_1_3.xlsx,52:78,2,,,,,,,,,0,2,2,2,0,13,13,13,,,,,,,,,,,,,,,,,,,,,,,48.90929550002329,None,['2'],1,[0.1897096000611782],48.90929550002329,None,,001,2022_Jan_24_1136,TMTAstop-A,2021.2.3,59.92706873222702,
15,['1'],TMTstop-A_1_3linestimulus12.png,TMTstop-A_1_3greenlinestimulus12.png,TMTstop-A_1_3redlinestimulus12.png,None,TMTstop-A_1_3.xlsx,52:78,1,,,,,,,,,0,2,2,2,0,14,14,14,,,,,,,,,,,,,,,,,,,,,,,49.19474229996558,None,"['3', '2', '1']",1,"[0.22795760002918541, 0.47008260001894087, 0.7844363999320194]",49.19474229996558,None,,001,2022_Jan_24_1136,TMTAstop-A,2021.2.3,59.92706873222702,
16,['2'],TMTstop-A_1_3linestimulus13.png,TMTstop-A_1_3greenlinestimulus13.png,TMTstop-A_1_3redlinestimulus13.png,None,TMTstop-A_1_3.xlsx,52:78,2,,,,,,,,,0,2,2,2,0,15,15,15,,,,,,,,,,,,,,,,,,,,,,,50.109889499959536,None,['2'],1,[0.12974899995606393],50.109889499959536,None,,001,2022_Jan_24_1136,TMTAstop-A,2021.2.3,59.92706873222702,
17,['3'],TMTstop-A_1_3linestimulus14.png,TMTstop-A_1_3greenlinestimulus14.png,TMTstop-A_1_3redlinestimulus14.png,None,TMTstop-A_1_3.xlsx,52:78,3,,,,,,,,,0,2,2,2,0,16,16,16,,,,,,,,,,,,,,,,,,,,,,,50.326608999981545,None,['3'],1,[0.24523919995408505],50.326608999981545,None,,001,2022_Jan_24_1136,TMTAstop-A,2021.2.3,59.92706873222702,
18,['2'],TMTstop-A_1_3linestimulus15.png,TMTstop-A_1_3greenlinestimulus15.png,TMTstop-A_1_3redlinestimulus15.png,None,TMTstop-A_1_3.xlsx,52:78,2,,,,,,,,,0,2,2,2,0,17,17,17,,,,,,,,,,,,,,,,,,,,,,,50.65996489999816,None,['2'],1,[0.1706084000179544],50.65996489999816,None,,001,2022_Jan_24_1136,TMTAstop-A,2021.2.3,59.92706873222702,
19,['1'],TMTstop-A_1_3linestimulus16.png,TMTstop-A_1_3greenlinestimulus16.png,TMTstop-A_1_3redlinestimulus16.png,None,TMTstop-A_1_3.xlsx,52:78,1,,,,,,,,,0,2,2,2,0,18,18,18,,,,,,,,,,,,,,,,,,,,,,,50.92686750006396,None,['1'],1,[0.19963239994831383],50.92686750006396,None,,001,2022_Jan_24_1136,TMTAstop-A,2021.2.3,59.92706873222702,
20,['2'],TMTstop-A_1_3linestimulus17.png,TMTstop-A_1_3greenlinestimulus17.png,TMTstop-A_1_3redlinestimulus17.png,None,TMTstop-A_1_3.xlsx,52:78,2,,,,,,,,,0,2,2,2,0,19,19,19,,,,,,,,,,,,,,,,,,,,,,,51.22692509996705,None,['2'],1,[0.1422526000533253],51.22692509996705,None,,001,2022_Jan_24_1136,TMTAstop-A,2021.2.3,59.92706873222702,
21,['3'],TMTstop-A_1_3linestimulus18.png,TMTstop-A_1_3greenlinestimulus18.png,TMTstop-A_1_3redlinestimulus18.png,None,TMTstop-A_1_3.xlsx,52:78,3,,,,,,,,,0,2,2,2,0,20,20,20,,,,,,,,,,,,,,,,,,,,,,,51.46043780003674,None,['3'],1,[0.1857983999652788],51.46043780003674,None,,001,2022_Jan_24_1136,TMTAstop-A,2021.2.3,59.92706873222702,
22,['1'],TMTstop-A_1_3linestimulus19.png,TMTstop-A_1_3greenlinestimulus19.png,TMTstop-A_1_3redlinestimulus19.png,None,TMTstop-A_1_3.xlsx,52:78,1,,,,,,,,,0,2,2,2,0,21,21,21,,,,,,,,,,,,,,,,,,,,,,,51.743756400072016,None,"['2', '1']",1,"[0.173932799953036, 0.49169910000637174]",51.743756400072016,None,,001,2022_Jan_24_1136,TMTAstop-A,2021.2.3,59.92706873222702,
23,['3'],TMTstop-A_1_3linestimulus20.png,TMTstop-A_1_3greenlinestimulus20.png,TMTstop-A_1_3redlinestimulus20.png,None,TMTstop-A_1_3.xlsx,52:78,3,,,,,,,,,0,2,2,2,0,22,22,22,,,,,,,,,,,,,,,,,,,,,,,52.36071450007148,None,"['2', '3']",1,"[0.09332899993751198, 0.3627442999277264]",52.36071450007148,None,,001,2022_Jan_24_1136,TMTAstop-A,2021.2.3,59.92706873222702,
24,['1'],TMTstop-A_1_3linestimulus21.png,TMTstop-A_1_3greenlinestimulus21.png,TMTstop-A_1_3redlinestimulus21.png,None,TMTstop-A_1_3.xlsx,52:78,1,,,,,,,,,0,2,2,2,0,23,23,23,,,,,,,,,,,,,,,,,,,,,,,52.844312499975786,None,"['2', '1']",1,"[0.1548843999626115, 0.42933169996831566]",52.844312499975786,None,,001,2022_Jan_24_1136,TMTAstop-A,2021.2.3,59.92706873222702,
25,['3'],TMTstop-A_1_3linestimulus22.png,TMTstop-A_1_3greenlinestimulus22.png,TMTstop-A_1_3redlinestimulus22.png,None,TMTstop-A_1_3.xlsx,52:78,3,,,,,,,,,0,2,2,2,0,24,24,24,,,,,,,,,,,,,,,,,,,,,,,53.3947147000581,None,"['2', '3']",1,"[0.10278770001605153, 0.31363560003228486]",53.3947147000581,None,,001,2022_Jan_24_1136,TMTAstop-A,2021.2.3,59.92706873222702,
None,None,TMTstop-A_1_3linestimulus23.png,TMTstop-A_1_3greenlinestimulus23.png,TMTstop-A_1_3redlinestimulus23.png,None,TMTstop-A_1_3.xlsx,52:78,None,,,,,,,,,0,2,2,2,0,25,25,25,,,,,,,,,,,,,,,,,,,,,,,53.79468230006751,None,['2'],0,[0.3196329000638798],53.79468230006751,None,,001,2022_Jan_24_1136,TMTAstop-A,2021.2.3,59.92706873222702,
,,,,,,TMTstop-A_1_3.xlsx,52:78,,,,,,,,,,0,2,2,2,,,,,,,,,,,,,54.910144399967976,None,,,,,,,,,,,,,,,,,,,,,001,2022_Jan_24_1136,TMTAstop-A,2021.2.3,59.92706873222702,
1,['3'],TMTstop-A_1_4.png,TMTstop-A_1_4.png,TMTstop-A_1_4.png,10,TMTstop-A_1_4.xlsx,78:104,,,,,,,,,,0,3,3,3,0,0,0,0,,,,,,,,,,,,,,,,,,,,,,,57.88009630003944,None,"['1', '2', '3']",1,"[0.46772780001629144, 0.5455237000714988, 0.6633832000661641]",57.88009630003944,None,,001,2022_Jan_24_1136,TMTAstop-A,2021.2.3,59.92706873222702,
2,['1'],TMTstop-A_1_4.png,TMTstop-A_1_4firstgreen.png,TMTstop-A_1_4firstred.png,10,TMTstop-A_1_4.xlsx,78:104,,,,,,,,,,0,3,3,3,0,1,1,1,,,,,,,,,,,,,,,,,,,,,,,58.63024410000071,None,['1'],1,[0.0880525999236852],58.63024410000071,None,,001,2022_Jan_24_1136,TMTAstop-A,2021.2.3,59.92706873222702,
3,['3'],TMTstop-A_1_4linestimulus0.png,TMTstop-A_1_4greenlinestimulus0.png,TMTstop-A_1_4redlinestimulus0.png,10,TMTstop-A_1_4.xlsx,78:104,,,,,,,,,,0,3,3,3,0,2,2,2,,,,,,,,,,,,,,,,,,,,,,,58.81386520003434,None,"['2', '3']",1,"[-0.0033678999170660973, 0.06109950004611164]",58.81386520003434,None,,001,2022_Jan_24_1136,TMTAstop-A,2021.2.3,59.92706873222702,
4,['1'],TMTstop-A_1_4linestimulus1.png,TMTstop-A_1_4greenlinestimulus1.png,TMTstop-A_1_4redlinestimulus1.png,10,TMTstop-A_1_4.xlsx,78:104,,,,,,,,,,0,3,3,3,0,3,3,3,,,,,,,,,,,,,,,,,,,,,,,58.997182599967346,None,['1'],1,[0.03496419999282807],58.997182599967346,None,,001,2022_Jan_24_1136,TMTAstop-A,2021.2.3,59.92706873222702,
5,['2'],TMTstop-A_1_4linestimulus2.png,TMTstop-A_1_4greenlinestimulus2.png,TMTstop-A_1_4redlinestimulus2.png,10,TMTstop-A_1_4.xlsx,78:104,,,,,,,,,,0,3,3,3,0,4,4,4,,,,,,,,,,,,,,,,,,,,,,,59.1306938000489,None,['2'],1,[-0.020402299938723445],59.1306938000489,None,,001,2022_Jan_24_1136,TMTAstop-A,2021.2.3,59.92706873222702,
6,['3'],TMTstop-A_1_4linestimulus3.png,TMTstop-A_1_4greenlinestimulus3.png,TMTstop-A_1_4redlinestimulus3.png,10,TMTstop-A_1_4.xlsx,78:104,,,,,,,,,,0,3,3,3,0,5,5,5,,,,,,,,,,,,,,,,,,,,,,,59.21385950001422,None,['3'],1,[-0.0259560999693349],59.21385950001422,None,,001,2022_Jan_24_1136,TMTAstop-A,2021.2.3,59.92706873222702,
7,['2'],TMTstop-A_1_4linestimulus4.png,TMTstop-A_1_4greenlinestimulus4.png,TMTstop-A_1_4redlinestimulus4.png,10,TMTstop-A_1_4.xlsx,78:104,,,,,,,,,,0,3,3,3,0,6,6,6,,,,,,,,,,,,,,,,,,,,,,,59.29723330005072,None,"['1', '2']",1,"[0.029277699999511242, 0.0923602000111714]",59.29723330005072,None,,001,2022_Jan_24_1136,TMTAstop-A,2021.2.3,59.92706873222702,
8,['3'],TMTstop-A_1_4linestimulus5.png,TMTstop-A_1_4greenlinestimulus5.png,TMTstop-A_1_4redlinestimulus5.png,10,TMTstop-A_1_4.xlsx,78:104,,,,,,,,,,0,3,3,3,0,7,7,7,,,,,,,,,,,,,,,,,,,,,,,59.5146848000586,None,['3'],1,[-0.03880510001908988],59.5146848000586,None,,001,2022_Jan_24_1136,TMTAstop-A,2021.2.3,59.92706873222702,
9,['1'],TMTstop-A_1_4linestimulus6.png,TMTstop-A_1_4greenlinestimulus6.png,TMTstop-A_1_4redlinestimulus6.png,10,TMTstop-A_1_4.xlsx,78:104,,,,,,,,,,0,3,3,3,0,8,8,8,,,,,,,,,,,,,,,,,,,,,,,59.597427600063384,None,['1'],1,[0.026210100040771067],59.597427600063384,None,,001,2022_Jan_24_1136,TMTAstop-A,2021.2.3,59.92706873222702,
10,['2'],TMTstop-A_1_4linestimulus7.png,TMTstop-A_1_4greenlinestimulus7.png,TMTstop-A_1_4redlinestimulus7.png,10,TMTstop-A_1_4.xlsx,78:104,,,,,,,,,,0,3,3,3,0,9,9,9,,,,,,,,,,,,,,,,,,,,,,,59.71427340002265,None,['2'],1,[-0.00750579999294132],59.71427340002265,None,,001,2022_Jan_24_1136,TMTAstop-A,2021.2.3,59.92706873222702,
11,['3'],TMTstop-A_1_4linestimulus8.png,TMTstop-A_1_4greenlinestimulus8.png,TMTstop-A_1_4redlinestimulus8.png,10,TMTstop-A_1_4.xlsx,78:104,,,,,,,,,,0,3,3,3,0,10,10,10,,,,,,,,,,,,,,,,,,,,,,,59.798838300048374,None,['3'],1,[-0.01447659998666495],59.798838300048374,None,,001,2022_Jan_24_1136,TMTAstop-A,2021.2.3,59.92706873222702,
12,['1'],TMTstop-A_1_4linestimulus9.png,TMTstop-A_1_4greenlinestimulus9.png,TMTstop-A_1_4redlinestimulus9.png,10,TMTstop-A_1_4.xlsx,78:104,,,,,,,,,,0,3,3,3,0,11,11,11,,,,,,,,,,,,,,,,,,,,,,,59.88104700006079,None,['1'],1,[0.053668800042942166],59.88104700006079,None,,001,2022_Jan_24_1136,TMTAstop-A,2021.2.3,59.92706873222702,
13,['2'],TMTstop-A_1_4linestimulus10.png,TMTstop-A_1_4greenlinestimulus10.png,TMTstop-A_1_4redlinestimulus10.png,1,TMTstop-A_1_4.xlsx,78:104,,,,,,,,,,0,3,3,3,0,12,12,12,,,,,,,,,,,,,,,,,,,,,,,60.03124839998782,None,['2'],1,[-0.0322308000177145],60.03124839998782,None,,001,2022_Jan_24_1136,TMTAstop-A,2021.2.3,59.92706873222702,
14,['1'],TMTstop-A_1_4linestimulus11.png,TMTstop-A_1_4greenlinestimulus11.png,TMTstop-A_1_4redlinestimulus11.png,None,TMTstop-A_1_4.xlsx,78:104,,,,,,,,,,0,3,3,3,0,13,13,13,,,,,,,,,,,,,,,,,,,,,,,60.114617399987765,None,"['3', '1']",1,"[0.000435599940828979, 0.1510685000102967]",60.114617399987765,None,,001,2022_Jan_24_1136,TMTAstop-A,2021.2.3,59.92706873222702,
15,['2'],TMTstop-A_1_4linestimulus12.png,TMTstop-A_1_4greenlinestimulus12.png,TMTstop-A_1_4redlinestimulus12.png,None,TMTstop-A_1_4.xlsx,78:104,,,,,,,,,,0,3,3,3,0,14,14,14,,,,,,,,,,,,,,,,,,,,,,,60.347736299969256,None,['2'],1,[-0.012486499967053533],60.347736299969256,None,,001,2022_Jan_24_1136,TMTAstop-A,2021.2.3,59.92706873222702,
16,['3'],TMTstop-A_1_4linestimulus13.png,TMTstop-A_1_4greenlinestimulus13.png,TMTstop-A_1_4redlinestimulus13.png,None,TMTstop-A_1_4.xlsx,78:104,,,,,,,,,,0,3,3,3,0,15,15,15,,,,,,,,,,,,,,,,,,,,,,,60.431132000056095,None,['3'],1,[-0.01824470004066825],60.431132000056095,None,,001,2022_Jan_24_1136,TMTAstop-A,2021.2.3,59.92706873222702,
17,['1'],TMTstop-A_1_4linestimulus14.png,TMTstop-A_1_4greenlinestimulus14.png,TMTstop-A_1_4redlinestimulus14.png,None,TMTstop-A_1_4.xlsx,78:104,,,,,,,,,,0,3,3,3,0,16,16,16,,,,,,,,,,,,,,,,,,,,,,,60.51464950002264,None,['1'],1,[0.05948170006740838],60.51464950002264,None,,001,2022_Jan_24_1136,TMTAstop-A,2021.2.3,59.92706873222702,
18,['2'],TMTstop-A_1_4linestimulus15.png,TMTstop-A_1_4greenlinestimulus15.png,TMTstop-A_1_4redlinestimulus15.png,None,TMTstop-A_1_4.xlsx,78:104,,,,,,,,,,0,3,3,3,0,17,17,17,,,,,,,,,,,,,,,,,,,,,,,60.66465180006344,None,['2'],1,[-0.013382200035266578],60.66465180006344,None,,001,2022_Jan_24_1136,TMTAstop-A,2021.2.3,59.92706873222702,
19,['1'],TMTstop-A_1_4linestimulus16.png,TMTstop-A_1_4greenlinestimulus16.png,TMTstop-A_1_4redlinestimulus16.png,None,TMTstop-A_1_4.xlsx,78:104,,,,,,,,,,0,3,3,3,0,18,18,18,,,,,,,,,,,,,,,,,,,,,,,60.74799950001761,None,"['3', '1']",1,"[0.004558700020425022, 0.1428588000126183]",60.74799950001761,None,,001,2022_Jan_24_1136,TMTAstop-A,2021.2.3,59.92706873222702,
20,['3'],TMTstop-A_1_4linestimulus17.png,TMTstop-A_1_4greenlinestimulus17.png,TMTstop-A_1_4redlinestimulus17.png,None,TMTstop-A_1_4.xlsx,78:104,,,,,,,,,,0,3,3,3,0,19,19,19,,,,,,,,,,,,,,,,,,,,,,,60.998252199962735,None,"['2', '3']",1,"[-0.04667630000039935, 0.07557310000993311]",60.998252199962735,None,,001,2022_Jan_24_1136,TMTAstop-A,2021.2.3,59.92706873222702,
21,['1'],TMTstop-A_1_4linestimulus18.png,TMTstop-A_1_4greenlinestimulus18.png,TMTstop-A_1_4redlinestimulus18.png,None,TMTstop-A_1_4.xlsx,78:104,,,,,,,,,,0,3,3,3,0,20,20,20,,,,,,,,,,,,,,,,,,,,,,,61.1816797000356,None,['1'],1,[0.03169920004438609],61.1816797000356,None,,001,2022_Jan_24_1136,TMTAstop-A,2021.2.3,59.92706873222702,
22,['3'],TMTstop-A_1_4linestimulus19.png,TMTstop-A_1_4greenlinestimulus19.png,TMTstop-A_1_4redlinestimulus19.png,None,TMTstop-A_1_4.xlsx,78:104,,,,,,,,,,0,3,3,3,0,21,21,21,,,,,,,,,,,,,,,,,,,,,,,61.298256000038236,None,"['2', '3']",1,"[-0.010952999931760132, 0.08372250001411885]",61.298256000038236,None,,001,2022_Jan_24_1136,TMTAstop-A,2021.2.3,59.92706873222702,
23,['2'],TMTstop-A_1_4linestimulus20.png,TMTstop-A_1_4greenlinestimulus20.png,TMTstop-A_1_4redlinestimulus20.png,None,TMTstop-A_1_4.xlsx,78:104,,,,,,,,,,0,3,3,3,0,22,22,22,,,,,,,,,,,,,,,,,,,,,,,61.48162570002023,None,"['1', '2']",1,"[0.03813560004346073, 0.1046836000168696]",61.48162570002023,None,,001,2022_Jan_24_1136,TMTAstop-A,2021.2.3,59.92706873222702,
24,['3'],TMTstop-A_1_4linestimulus21.png,TMTstop-A_1_4greenlinestimulus21.png,TMTstop-A_1_4redlinestimulus21.png,None,TMTstop-A_1_4.xlsx,78:104,,,,,,,,,,0,3,3,3,0,23,23,23,,,,,,,,,,,,,,,,,,,,,,,61.71504260005895,None,['3'],1,[-0.01580699998885393],61.71504260005895,None,,001,2022_Jan_24_1136,TMTAstop-A,2021.2.3,59.92706873222702,
25,['2'],TMTstop-A_1_4linestimulus22.png,TMTstop-A_1_4greenlinestimulus22.png,TMTstop-A_1_4redlinestimulus22.png,None,TMTstop-A_1_4.xlsx,78:104,,,,,,,,,,0,3,3,3,0,24,24,24,,,,,,,,,,,,,,,,,,,,,,,61.798464499996044,None,"['1', '2']",1,"[0.04255289991851896, 0.121201999951154]",61.798464499996044,None,,001,2022_Jan_24_1136,TMTAstop-A,2021.2.3,59.92706873222702,
None,None,TMTstop-A_1_4linestimulus23.png,TMTstop-A_1_4greenlinestimulus23.png,TMTstop-A_1_4redlinestimulus23.png,None,TMTstop-A_1_4.xlsx,78:104,,,,,,,,,,0,3,3,3,0,25,25,25,,,,,,,,,,,,,,,,,,,,,,,62.03229040000588,None,"['3', '1', '2', '3']",0,"[0.02132170007098466, 0.15362310002092272, 0.21805220004171133, 0.3421036000363529]",62.03229040000588,None,,001,2022_Jan_24_1136,TMTAstop-A,2021.2.3,59.92706873222702,
,,,,,,TMTstop-A_1_4.xlsx,78:104,,,,,,,,,,0,3,3,3,,,,,,,,,,,,,63.16395930002909,None,,,,,,,,,,,,,,,,,,,,,001,2022_Jan_24_1136,TMTAstop-A,2021.2.3,59.92706873222702,
1,['2'],TMTstop-A_1_5.png,TMTstop-A_1_5.png,TMTstop-A_1_5.png,10,TMTstop-A_1_5.xlsx,104:130,,,,,,,,,,0,4,4,4,0,0,0,0,,,,,,,,,,,,,,,,,,,,,,,66.10053110006265,None,"['1', '2']",1,"[0.5591166999656707, 0.67048510001041]",66.10053110006265,None,,001,2022_Jan_24_1136,TMTAstop-A,2021.2.3,59.92706873222702,
2,['1'],TMTstop-A_1_5.png,TMTstop-A_1_5firstgreen.png,TMTstop-A_1_5firstred.png,10,TMTstop-A_1_5.xlsx,104:130,,,,,,,,,,0,4,4,4,0,1,1,1,,,,,,,,,,,,,,,,,,,,,,,66.85087059997022,None,"['3', '1']",1,"[-0.011191099998541176, 0.15738669992424548]",66.85087059997022,None,,001,2022_Jan_24_1136,TMTAstop-A,2021.2.3,59.92706873222702,
3,['3'],TMTstop-A_1_5linestimulus0.png,TMTstop-A_1_5greenlinestimulus0.png,TMTstop-A_1_5redlinestimulus0.png,10,TMTstop-A_1_5.xlsx,104:130,,,,,,,,,,0,4,4,4,0,2,2,2,,,,,,,,,,,,,,,,,,,,,,,67.13414980005473,None,"['2', '3']",1,"[-0.04830629995558411, 0.039242499973624945]",67.13414980005473,None,,001,2022_Jan_24_1136,TMTAstop-A,2021.2.3,59.92706873222702,
4,['2'],TMTstop-A_1_5linestimulus1.png,TMTstop-A_1_5greenlinestimulus1.png,TMTstop-A_1_5redlinestimulus1.png,10,TMTstop-A_1_5.xlsx,104:130,,,,,,,,,,0,4,4,4,0,3,3,3,,,,,,,,,,,,,,,,,,,,,,,67.26771919999737,None,"['1', '2']",1,"[0.053358999895863235, 0.12817969999741763]",67.26771919999737,None,,001,2022_Jan_24_1136,TMTAstop-A,2021.2.3,59.92706873222702,
5,['3'],TMTstop-A_1_5linestimulus2.png,TMTstop-A_1_5greenlinestimulus2.png,TMTstop-A_1_5redlinestimulus2.png,10,TMTstop-A_1_5.xlsx,104:130,,,,,,,,,,0,4,4,4,0,4,4,4,,,,,,,,,,,,,,,,,,,,,,,67.50139390002005,None,['3'],1,[-0.028258799924515188],67.50139390002005,None,,001,2022_Jan_24_1136,TMTAstop-A,2021.2.3,59.92706873222702,
6,['1'],TMTstop-A_1_5linestimulus3.png,TMTstop-A_1_5greenlinestimulus3.png,TMTstop-A_1_5redlinestimulus3.png,10,TMTstop-A_1_5.xlsx,104:130,,,,,,,,,,0,4,4,4,0,5,5,5,,,,,,,,,,,,,,,,,,,,,,,67.58441060001496,None,['1'],1,[0.017580200103111565],67.58441060001496,None,,001,2022_Jan_24_1136,TMTAstop-A,2021.2.3,59.92706873222702,
7,['3'],TMTstop-A_1_5linestimulus4.png,TMTstop-A_1_5greenlinestimulus4.png,TMTstop-A_1_5redlinestimulus4.png,10,TMTstop-A_1_5.xlsx,104:130,,,,,,,,,,0,4,4,4,0,6,6,6,,,,,,,,,,,,,,,,,,,,,,,67.68462760001421,None,"['2', '3']",1,"[0.0027709000278264284, 0.08676660002674907]",67.68462760001421,None,,001,2022_Jan_24_1136,TMTAstop-A,2021.2.3,59.92706873222702,
8,['2'],TMTstop-A_1_5linestimulus5.png,TMTstop-A_1_5greenlinestimulus5.png,TMTstop-A_1_5redlinestimulus5.png,10,TMTstop-A_1_5.xlsx,104:130,,,,,,,,,,0,4,4,4,0,7,7,7,,,,,,,,,,,,,,,,,,,,,,,67.88455980003346,None,"['1', '2']",1,"[0.025109100039117038, 0.09910770005080849]",67.88455980003346,None,,001,2022_Jan_24_1136,TMTAstop-A,2021.2.3,59.92706873222702,
9,['1'],TMTstop-A_1_5linestimulus6.png,TMTstop-A_1_5greenlinestimulus6.png,TMTstop-A_1_5redlinestimulus6.png,10,TMTstop-A_1_5.xlsx,104:130,,,,,,,,,,0,4,4,4,0,8,8,8,,,,,,,,,,,,,,,,,,,,,,,68.10153210000135,None,"['3', '1']",1,"[-0.02720379992388189, 0.11063580005429685]",68.10153210000135,None,,001,2022_Jan_24_1136,TMTAstop-A,2021.2.3,59.92706873222702,
10,['3'],TMTstop-A_1_5linestimulus7.png,TMTstop-A_1_5greenlinestimulus7.png,TMTstop-A_1_5redlinestimulus7.png,10,TMTstop-A_1_5.xlsx,104:130,,,,,,,,,,0,4,4,4,0,9,9,9,,,,,,,,,,,,,,,,,,,,,,,68.33488260000013,None,"['2', '3']",1,"[-0.05042790004517883, 0.060473699937574565]",68.33488260000013,None,,001,2022_Jan_24_1136,TMTAstop-A,2021.2.3,59.92706873222702,
11,['2'],TMTstop-A_1_5linestimulus8.png,TMTstop-A_1_5greenlinestimulus8.png,TMTstop-A_1_5redlinestimulus8.png,10,TMTstop-A_1_5.xlsx,104:130,,,,,,,,,,0,4,4,4,0,10,10,10,,,,,,,,,,,,,,,,,,,,,,,68.51830290001817,None,"['1', '2']",1,"[-0.004114100011065602, 0.06697280006483197]",68.51830290001817,None,,001,2022_Jan_24_1136,TMTAstop-A,2021.2.3,59.92706873222702,
12,['3'],TMTstop-A_1_5linestimulus9.png,TMTstop-A_1_5greenlinestimulus9.png,TMTstop-A_1_5redlinestimulus9.png,10,TMTstop-A_1_5.xlsx,104:130,,,,,,,,,,0,4,4,4,0,11,11,11,,,,,,,,,,,,,,,,,,,,,,,68.70187009999063,None,['3'],1,[-0.03506560006644577],68.70187009999063,None,,001,2022_Jan_24_1136,TMTAstop-A,2021.2.3,59.92706873222702,
13,['1'],TMTstop-A_1_5linestimulus10.png,TMTstop-A_1_5greenlinestimulus10.png,TMTstop-A_1_5redlinestimulus10.png,1,TMTstop-A_1_5.xlsx,104:130,,,,,,,,,,0,4,4,4,0,12,12,12,,,,,,,,,,,,,,,,,,,,,,,68.78528499999084,None,['1'],1,[0.00608500000089407],68.78528499999084,None,,001,2022_Jan_24_1136,TMTAstop-A,2021.2.3,59.92706873222702,
14,['3'],TMTstop-A_1_5linestimulus11.png,TMTstop-A_1_5greenlinestimulus11.png,TMTstop-A_1_5redlinestimulus11.png,None,TMTstop-A_1_5.xlsx,104:130,,,,,,,,,,0,4,4,4,0,13,13,13,,,,,,,,,,,,,,,,,,,,,,,68.88506840006448,None,"['2', '3']",1,"[-0.02035699994303286, 0.06075730000156909]",68.88506840006448,None,,001,2022_Jan_24_1136,TMTAstop-A,2021.2.3,59.92706873222702,
15,['1'],TMTstop-A_1_5linestimulus12.png,TMTstop-A_1_5greenlinestimulus12.png,TMTstop-A_1_5redlinestimulus12.png,None,TMTstop-A_1_5.xlsx,104:130,,,,,,,,,,0,4,4,4,0,14,14,14,,,,,,,,,,,,,,,,,,,,,,,69.05132920003962,None,['1'],1,[0.03743600007146597],69.05132920003962,None,,001,2022_Jan_24_1136,TMTAstop-A,2021.2.3,59.92706873222702,
16,['3'],TMTstop-A_1_5linestimulus13.png,TMTstop-A_1_5greenlinestimulus13.png,TMTstop-A_1_5redlinestimulus13.png,None,TMTstop-A_1_5.xlsx,104:130,,,,,,,,,,0,4,4,4,0,15,15,15,,,,,,,,,,,,,,,,,,,,,,,69.20190089999232,None,"['2', '3']",1,"[-0.03918970003724098, 0.04289659997448325]",69.20190089999232,None,,001,2022_Jan_24_1136,TMTAstop-A,2021.2.3,59.92706873222702,
17,['2'],TMTstop-A_1_5linestimulus14.png,TMTstop-A_1_5greenlinestimulus14.png,TMTstop-A_1_5redlinestimulus14.png,None,TMTstop-A_1_5.xlsx,104:130,,,,,,,,,,0,4,4,4,0,16,16,16,,,,,,,,,,,,,,,,,,,,,,,69.33542739995755,None,"['1', '2']",1,"[0.04722780000884086, 0.10628820001147687]",69.33542739995755,None,,001,2022_Jan_24_1136,TMTAstop-A,2021.2.3,59.92706873222702,
18,['1'],TMTstop-A_1_5linestimulus15.png,TMTstop-A_1_5greenlinestimulus15.png,TMTstop-A_1_5redlinestimulus15.png,None,TMTstop-A_1_5.xlsx,104:130,,,,,,,,,,0,4,4,4,0,17,17,17,,,,,,,,,,,,,,,,,,,,,,,69.56883730005939,None,"['3', '1']",1,"[0.005597400013357401, 0.1500629000365734]",69.56883730005939,None,,001,2022_Jan_24_1136,TMTAstop-A,2021.2.3,59.92706873222702,
19,['3'],TMTstop-A_1_5linestimulus16.png,TMTstop-A_1_5greenlinestimulus16.png,TMTstop-A_1_5redlinestimulus16.png,None,TMTstop-A_1_5.xlsx,104:130,,,,,,,,,,0,4,4,4,0,18,18,18,,,,,,,,,,,,,,,,,,,,,,,69.81897190003656,None,"['2', '3']",1,"[-0.019596599973738194, 0.06773620005697012]",69.81897190003656,None,,001,2022_Jan_24_1136,TMTAstop-A,2021.2.3,59.92706873222702,
20,['1'],TMTstop-A_1_5linestimulus17.png,TMTstop-A_1_5greenlinestimulus17.png,TMTstop-A_1_5redlinestimulus17.png,None,TMTstop-A_1_5.xlsx,104:130,,,,,,,,,,0,4,4,4,0,19,19,19,,,,,,,,,,,,,,,,,,,,,,,70.00228190002963,None,['1'],1,[0.04211779998149723],70.00228190002963,None,,001,2022_Jan_24_1136,TMTAstop-A,2021.2.3,59.92706873222702,
21,['2'],TMTstop-A_1_5linestimulus18.png,TMTstop-A_1_5greenlinestimulus18.png,TMTstop-A_1_5redlinestimulus18.png,None,TMTstop-A_1_5.xlsx,104:130,,,,,,,,,,0,4,4,4,0,20,20,20,,,,,,,,,,,,,,,,,,,,,,,70.135780600016,None,['2'],1,[-0.004973799921572208],70.135780600016,None,,001,2022_Jan_24_1136,TMTAstop-A,2021.2.3,59.92706873222702,
22,['3'],TMTstop-A_1_5linestimulus19.png,TMTstop-A_1_5greenlinestimulus19.png,TMTstop-A_1_5redlinestimulus19.png,None,TMTstop-A_1_5.xlsx,104:130,,,,,,,,,,0,4,4,4,0,21,21,21,,,,,,,,,,,,,,,,,,,,,,,70.21926739998162,None,['3'],1,[-0.005663400050252676],70.21926739998162,None,,001,2022_Jan_24_1136,TMTAstop-A,2021.2.3,59.92706873222702,
23,['2'],TMTstop-A_1_5linestimulus20.png,TMTstop-A_1_5greenlinestimulus20.png,TMTstop-A_1_5redlinestimulus20.png,None,TMTstop-A_1_5.xlsx,104:130,,,,,,,,,,0,4,4,4,0,22,22,22,,,,,,,,,,,,,,,,,,,,,,,70.30242930003442,None,"['1', '2']",1,"[0.04808970005251467, 0.12183930003084242]",70.30242930003442,None,,001,2022_Jan_24_1136,TMTAstop-A,2021.2.3,59.92706873222702,
24,['3'],TMTstop-A_1_5linestimulus21.png,TMTstop-A_1_5greenlinestimulus21.png,TMTstop-A_1_5redlinestimulus21.png,None,TMTstop-A_1_5.xlsx,104:130,,,,,,,,,,0,4,4,4,0,23,23,23,,,,,,,,,,,,,,,,,,,,,,,70.53626920003444,None,['3'],1,[-0.005511599942110479],70.53626920003444,None,,001,2022_Jan_24_1136,TMTAstop-A,2021.2.3,59.92706873222702,
25,['2'],TMTstop-A_1_5linestimulus22.png,TMTstop-A_1_5greenlinestimulus22.png,TMTstop-A_1_5redlinestimulus22.png,None,TMTstop-A_1_5.xlsx,104:130,,,,,,,,,,0,4,4,4,0,24,24,24,,,,,,,,,,,,,,,,,,,,,,,70.61946980003268,None,"['1', '2']",1,"[0.04374600003939122, 0.11911339999642223]",70.61946980003268,None,,001,2022_Jan_24_1136,TMTAstop-A,2021.2.3,59.92706873222702,
None,None,TMTstop-A_1_5linestimulus23.png,TMTstop-A_1_5greenlinestimulus23.png,TMTstop-A_1_5redlinestimulus23.png,None,TMTstop-A_1_5.xlsx,104:130,,,,,,,,,,0,4,4,4,0,25,25,25,,,,,,,,,,,,,,,,,,,,,,,70.85275049996562,None,"['3', '1', '2']",0,"[-0.01305730000603944, 0.1063473999965936, 0.17428939999081194]",70.85275049996562,None,,001,2022_Jan_24_1136,TMTAstop-A,2021.2.3,59.92706873222702,
,,,,,,TMTstop-A_1_5.xlsx,104:130,,,,,,,,,,0,4,4,4,,,,,,,,,,,,,71.9849542999873,None,,,,,,,,,,,,,,,,,,,,,001,2022_Jan_24_1136,TMTAstop-A,2021.2.3,59.92706873222702,
1,['1'],TMTstop-A_1_6.png,TMTstop-A_1_6.png,TMTstop-A_1_6.png,10,TMTstop-A_1_6.xlsx,130:156,1,,,,,,,,,0,5,5,5,0,0,0,0,,,,,,,,,,,,,,,,,,,,,,,74.93788069998845,None,['1'],1,[0.3150277999229729],74.93788069998845,None,,001,2022_Jan_24_1136,TMTAstop-A,2021.2.3,59.92706873222702,
2,['2'],TMTstop-A_1_6.png,TMTstop-A_1_6firstgreen.png,TMTstop-A_1_6firstred.png,10,TMTstop-A_1_6.xlsx,130:156,2,,,,,,,,,0,5,5,5,0,1,1,1,,,,,,,,,,,,,,,,,,,,,,,75.33822509995662,None,['2'],1,[0.03919529996346682],75.33822509995662,None,,001,2022_Jan_24_1136,TMTAstop-A,2021.2.3,59.92706873222702,
3,['3'],TMTstop-A_1_6linestimulus0.png,TMTstop-A_1_6greenlinestimulus0.png,TMTstop-A_1_6redlinestimulus0.png,10,TMTstop-A_1_6.xlsx,130:156,3,,,,,,,,,0,5,5,5,0,2,2,2,,,,,,,,,,,,,,,,,,,,,,,75.47169859998394,None,['3'],1,[-0.03446690004784614],75.47169859998394,None,,001,2022_Jan_24_1136,TMTAstop-A,2021.2.3,59.92706873222702,
4,['1'],TMTstop-A_1_6linestimulus1.png,TMTstop-A_1_6greenlinestimulus1.png,TMTstop-A_1_6redlinestimulus1.png,10,TMTstop-A_1_6.xlsx,130:156,1,,,,,,,,,0,5,5,5,0,3,3,3,,,,,,,,,,,,,,,,,,,,,,,75.55494120006915,None,['1'],1,[0.03819829993881285],75.55494120006915,None,,001,2022_Jan_24_1136,TMTAstop-A,2021.2.3,59.92706873222702,
5,['3'],TMTstop-A_1_6linestimulus2.png,TMTstop-A_1_6greenlinestimulus2.png,TMTstop-A_1_6redlinestimulus2.png,10,TMTstop-A_1_6.xlsx,130:156,3,,,,,,,,,0,5,5,5,0,4,4,4,,,,,,,,,,,,,,,,,,,,,,,75.68832459999248,None,"['2', '3']",1,"[-0.009259000071324408, 0.04157089989166707]",75.68832459999248,None,,001,2022_Jan_24_1136,TMTAstop-A,2021.2.3,59.92706873222702,
6,['1'],TMTstop-A_1_6linestimulus3.png,TMTstop-A_1_6greenlinestimulus3.png,TMTstop-A_1_6redlinestimulus3.png,10,TMTstop-A_1_6.xlsx,130:156,1,,,,,,,,,0,5,5,5,0,5,5,5,,,,,,,,,,,,,,,,,,,,,,,75.82161370001268,None,['1'],1,[0.04338990000542253],75.82161370001268,None,,001,2022_Jan_24_1136,TMTAstop-A,2021.2.3,59.92706873222702,
7,['3'],TMTstop-A_1_6linestimulus4.png,TMTstop-A_1_6greenlinestimulus4.png,TMTstop-A_1_6redlinestimulus4.png,10,TMTstop-A_1_6.xlsx,130:156,3,,,,,,,,,0,5,5,5,0,6,6,6,,,,,,,,,,,,,,,,,,,,,,,75.95512289996259,None,"['2', '3']",1,"[-0.06364499998744577, 0.05247839994262904]",75.95512289996259,None,,001,2022_Jan_24_1136,TMTAstop-A,2021.2.3,59.92706873222702,
8,['1'],TMTstop-A_1_6linestimulus5.png,TMTstop-A_1_6greenlinestimulus5.png,TMTstop-A_1_6redlinestimulus5.png,10,TMTstop-A_1_6.xlsx,130:156,1,,,,,,,,,0,5,5,5,0,7,7,7,,,,,,,,,,,,,,,,,,,,,,,76.13848850002978,None,['1'],1,[0.00685400003567338],76.13848850002978,None,,001,2022_Jan_24_1136,TMTAstop-A,2021.2.3,59.92706873222702,
9,['2'],TMTstop-A_1_6linestimulus6.png,TMTstop-A_1_6greenlinestimulus6.png,TMTstop-A_1_6redlinestimulus6.png,10,TMTstop-A_1_6.xlsx,130:156,2,,,,,,,,,0,5,5,5,0,8,8,8,,,,,,,,,,,,,,,,,,,,,,,76.23855790006928,None,['2'],1,[-0.043617699993774295],76.23855790006928,None,,001,2022_Jan_24_1136,TMTAstop-A,2021.2.3,59.92706873222702,
10,['3'],TMTstop-A_1_6linestimulus7.png,TMTstop-A_1_6greenlinestimulus7.png,TMTstop-A_1_6redlinestimulus7.png,10,TMTstop-A_1_6.xlsx,130:156,3,,,,,,,,,0,5,5,5,0,9,9,9,,,,,,,,,,,,,,,,,,,,,,,76.32191010005772,None,['3'],1,[-0.026015999959781766],76.32191010005772,None,,001,2022_Jan_24_1136,TMTAstop-A,2021.2.3,59.92706873222702,
11,['1'],TMTstop-A_1_6linestimulus8.png,TMTstop-A_1_6greenlinestimulus8.png,TMTstop-A_1_6redlinestimulus8.png,10,TMTstop-A_1_6.xlsx,130:156,1,,,,,,,,,0,5,5,5,0,10,10,10,,,,,,,,,,,,,,,,,,,,,,,76.40675890003331,None,['1'],1,[0.01493040006607771],76.40675890003331,None,,001,2022_Jan_24_1136,TMTAstop-A,2021.2.3,59.92706873222702,
12,['3'],TMTstop-A_1_6linestimulus9.png,TMTstop-A_1_6greenlinestimulus9.png,TMTstop-A_1_6redlinestimulus9.png,10,TMTstop-A_1_6.xlsx,130:156,3,,,,,,,,,0,5,5,5,0,11,11,11,,,,,,,,,,,,,,,,,,,,,,,76.50527580000926,None,"['2', '3']",1,"[-0.01914240000769496, 0.07307309994939715]",76.50527580000926,None,,001,2022_Jan_24_1136,TMTAstop-A,2021.2.3,59.92706873222702,
13,['2'],TMTstop-A_1_6linestimulus10.png,TMTstop-A_1_6greenlinestimulus10.png,TMTstop-A_1_6redlinestimulus10.png,1,TMTstop-A_1_6.xlsx,130:156,2,,,,,,,,,0,5,5,5,0,12,12,12,,,,,,,,,,,,,,,,,,,,,,,76.68886049999855,None,"['1', '2']",1,"[0.01864729996304959, 0.09099099994637072]",76.68886049999855,None,,001,2022_Jan_24_1136,TMTAstop-A,2021.2.3,59.92706873222702,
14,['3'],TMTstop-A_1_6linestimulus11.png,TMTstop-A_1_6greenlinestimulus11.png,TMTstop-A_1_6redlinestimulus11.png,None,TMTstop-A_1_6.xlsx,130:156,3,,,,,,,,,0,5,5,5,0,13,13,13,,,,,,,,,,,,,,,,,,,,,,,76.90552410006057,None,['3'],1,[-0.03927539999131113],76.90552410006057,None,,001,2022_Jan_24_1136,TMTAstop-A,2021.2.3,59.92706873222702,
15,['2'],TMTstop-A_1_6linestimulus12.png,TMTstop-A_1_6greenlinestimulus12.png,TMTstop-A_1_6redlinestimulus12.png,None,TMTstop-A_1_6.xlsx,130:156,2,,,,,,,,,0,5,5,5,0,14,14,14,,,,,,,,,,,,,,,,,,,,,,,76.97286179999355,None,"['1', '2']",1,"[0.025569799938239157, 0.12365919991862029]",76.97286179999355,None,,001,2022_Jan_24_1136,TMTAstop-A,2021.2.3,59.92706873222702,
16,['1'],TMTstop-A_1_6linestimulus13.png,TMTstop-A_1_6greenlinestimulus13.png,TMTstop-A_1_6redlinestimulus13.png,None,TMTstop-A_1_6.xlsx,130:156,1,,,,,,,,,0,5,5,5,0,15,15,15,,,,,,,,,,,,,,,,,,,,,,,77.18900750007015,None,"['3', '1']",1,"[-0.03159380005672574, 0.13011429994367063]",77.18900750007015,None,,001,2022_Jan_24_1136,TMTAstop-A,2021.2.3,59.92706873222702,
17,['3'],TMTstop-A_1_6linestimulus14.png,TMTstop-A_1_6greenlinestimulus14.png,TMTstop-A_1_6redlinestimulus14.png,None,TMTstop-A_1_6.xlsx,130:156,3,,,,,,,,,0,5,5,5,0,16,16,16,,,,,,,,,,,,,,,,,,,,,,,77.42400170001201,None,"['2', '3']",1,"[-0.0004681999562308192, 0.08425329998135567]",77.42400170001201,None,,001,2022_Jan_24_1136,TMTAstop-A,2021.2.3,59.92706873222702,
18,['1'],TMTstop-A_1_6linestimulus15.png,TMTstop-A_1_6greenlinestimulus15.png,TMTstop-A_1_6redlinestimulus15.png,None,TMTstop-A_1_6.xlsx,130:156,1,,,,,,,,,0,5,5,5,0,17,17,17,,,,,,,,,,,,,,,,,,,,,,,77.60584630002268,None,['1'],1,[0.046335100079886615],77.60584630002268,None,,001,2022_Jan_24_1136,TMTAstop-A,2021.2.3,59.92706873222702,
19,['2'],TMTstop-A_1_6linestimulus16.png,TMTstop-A_1_6greenlinestimulus16.png,TMTstop-A_1_6redlinestimulus16.png,None,TMTstop-A_1_6.xlsx,130:156,2,,,,,,,,,0,5,5,5,0,18,18,18,,,,,,,,,,,,,,,,,,,,,,,77.73939410003368,None,['2'],1,[-0.024422299931757152],77.73939410003368,None,,001,2022_Jan_24_1136,TMTAstop-A,2021.2.3,59.92706873222702,
20,['3'],TMTstop-A_1_6linestimulus17.png,TMTstop-A_1_6greenlinestimulus17.png,TMTstop-A_1_6redlinestimulus17.png,None,TMTstop-A_1_6.xlsx,130:156,3,,,,,,,,,0,5,5,5,0,19,19,19,,,,,,,,,,,,,,,,,,,,,,,77.82268390001263,None,['3'],1,[0.00730579998344183],77.82268390001263,None,,001,2022_Jan_24_1136,TMTAstop-A,2021.2.3,59.92706873222702,
21,['2'],TMTstop-A_1_6linestimulus18.png,TMTstop-A_1_6greenlinestimulus18.png,TMTstop-A_1_6redlinestimulus18.png,None,TMTstop-A_1_6.xlsx,130:156,2,,,,,,,,,0,5,5,5,0,20,20,20,,,,,,,,,,,,,,,,,,,,,,,77.92312659998424,None,"['1', '2']",1,"[0.0748199000954628, 0.13747760001569986]",77.92312659998424,None,,001,2022_Jan_24_1136,TMTAstop-A,2021.2.3,59.92706873222702,
22,['3'],TMTstop-A_1_6linestimulus19.png,TMTstop-A_1_6greenlinestimulus19.png,TMTstop-A_1_6redlinestimulus19.png,None,TMTstop-A_1_6.xlsx,130:156,3,,,,,,,,,0,5,5,5,0,21,21,21,,,,,,,,,,,,,,,,,,,,,,,78.18940030003432,None,['3'],1,[-0.02681990002747625],78.18940030003432,None,,001,2022_Jan_24_1136,TMTAstop-A,2021.2.3,59.92706873222702,
23,['1'],TMTstop-A_1_6linestimulus20.png,TMTstop-A_1_6greenlinestimulus20.png,TMTstop-A_1_6redlinestimulus20.png,None,TMTstop-A_1_6.xlsx,130:156,1,,,,,,,,,0,5,5,5,0,22,22,22,,,,,,,,,,,,,,,,,,,,,,,78.25649539998267,None,['1'],1,[0.0353567999554798],78.25649539998267,None,,001,2022_Jan_24_1136,TMTAstop-A,2021.2.3,59.92706873222702,
24,['2'],TMTstop-A_1_6linestimulus21.png,TMTstop-A_1_6greenlinestimulus21.png,TMTstop-A_1_6redlinestimulus21.png,None,TMTstop-A_1_6.xlsx,130:156,2,,,,,,,,,0,5,5,5,0,23,23,23,,,,,,,,,,,,,,,,,,,,,,,78.38963260001037,None,['2'],1,[-0.03071079996880144],78.38963260001037,None,,001,2022_Jan_24_1136,TMTAstop-A,2021.2.3,59.92706873222702,
25,['3'],TMTstop-A_1_6linestimulus22.png,TMTstop-A_1_6greenlinestimulus22.png,TMTstop-A_1_6redlinestimulus22.png,None,TMTstop-A_1_6.xlsx,130:156,3,,,,,,,,,0,5,5,5,0,24,24,24,,,,,,,,,,,,,,,,,,,,,,,78.47291170002427,None,['3'],1,[-0.009030699962750077],78.47291170002427,None,,001,2022_Jan_24_1136,TMTAstop-A,2021.2.3,59.92706873222702,
None,None,TMTstop-A_1_6linestimulus23.png,TMTstop-A_1_6greenlinestimulus23.png,TMTstop-A_1_6redlinestimulus23.png,None,TMTstop-A_1_6.xlsx,130:156,None,,,,,,,,,0,5,5,5,0,25,25,25,,,,,,,,,,,,,,,,,,,,,,,78.55630299996119,None,"['1', '2', '3', '1', '2', '3']",0,"[0.027256099972873926, 0.10473120003007352, 0.21543470001779497, 0.3534131000051275, 0.4221071000210941, 0.5521776999812573]",78.55630299996119,None,,001,2022_Jan_24_1136,TMTAstop-A,2021.2.3,59.92706873222702,
,,,,,,TMTstop-A_1_6.xlsx,130:156,,,,,,,,,,0,5,5,5,,,,,,,,,,,,,79.72162850003224,None,,,,,,,,,,,,,,,,,,,,,001,2022_Jan_24_1136,TMTAstop-A,2021.2.3,59.92706873222702,
