NumberLetter,corrAns,Correct,StimFile,Correct_StimFile,False_StimFile,Version,Paper,TrialNumber_Version,Round,Block,n,Stim_2.started_mean,Stim_2.started_raw,Stim_2.started_std,Stim_2.stopped_raw,key_resp_8.corr_mean,key_resp_8.corr_raw,key_resp_8.corr_std,key_resp_8.keys_raw,key_resp_8.rt_raw,key_resp_8.started_mean,key_resp_8.started_raw,key_resp_8.started_std,key_resp_8.stopped_raw,order
1,['2'],2,TMTstop-control_1_3.png,TMTstop-control_1_3.png,TMTstop-control_1_3.png,TMT_Control,C3,51,2,1,1.0,82.9557876586914,82.9557876586914,0.0,,1.0,1.0,0.0,2,24.205611299999873,82.9557876586914,82.9557876586914,0.0,,0.0
2,['1'],1,TMTstop-control_1_3.png,TMTstop-control_1_3firstgreen.png,TMTstop-control_1_3firstred.png,TMT_Control,C3,52,None,1,1.0,107.22456359863281,107.22456359863281,0.0,,1.0,1.0,0.0,3,1,0.3871130000043195,2.1801198000030126,107.22456359863281,107.22456359863281,0.0,,1.0
3,['2'],2,TMTstop-control_1_3linestimulus0.png,TMTstop-control_1_3greenlinestimulus0.png,TMTstop-control_1_3redlinestimulus0.png,TMT_Control,C3,53,None,1,1.0,109.47712707519531,109.47712707519531,0.0,,0.0,0.0,0.0,,'--',109.47712707519531,109.47712707519531,0.0,,2.0
4,['1'],1,TMTstop-control_1_3linestimulus1.png,TMTstop-control_1_3greenlinestimulus1.png,TMTstop-control_1_3redlinestimulus1.png,TMT_Control,C3,54,None,1,0.0,,,,'--',,,,'--','--',,,,'--',
5,['3'],3,TMTstop-control_1_3linestimulus2.png,TMTstop-control_1_3greenlinestimulus2.png,TMTstop-control_1_3redlinestimulus2.png,TMT_Control,C3,55,None,1,0.0,,,,'--',,,,'--','--',,,,'--',
6,['1'],1,TMTstop-control_1_3linestimulus3.png,TMTstop-control_1_3greenlinestimulus3.png,TMTstop-control_1_3redlinestimulus3.png,TMT_Control,C3,56,None,1,0.0,,,,'--',,,,'--','--',,,,'--',
7,['2'],2,TMTstop-control_1_3linestimulus4.png,TMTstop-control_1_3greenlinestimulus4.png,TMTstop-control_1_3redlinestimulus4.png,TMT_Control,C3,57,None,1,0.0,,,,'--',,,,'--','--',,,,'--',
8,['3'],3,TMTstop-control_1_3linestimulus4.png,TMTstop-control_1_3greenlinestimulus5.png,TMTstop-control_1_3redlinestimulus5.png,TMT_Control,C3,58,None,1,0.0,,,,'--',,,,'--','--',,,,'--',
9,['1'],1,TMTstop-control_1_3linestimulus6.png,TMTstop-control_1_3greenlinestimulus6.png,TMTstop-control_1_3redlinestimulus6.png,TMT_Control,C3,59,None,1,0.0,,,,'--',,,,'--','--',,,,'--',
10,['2'],2,TMTstop-control_1_3linestimulus7.png,TMTstop-control_1_3greenlinestimulus7.png,TMTstop-control_1_3redlinestimulus7.png,TMT_Control,C3,60,None,1,0.0,,,,'--',,,,'--','--',,,,'--',
11,['1'],1,TMTstop-control_1_3linestimulus8.png,TMTstop-control_1_3greenlinestimulus8.png,TMTstop-control_1_3redlinestimulus8.png,TMT_Control,C3,61,None,1,0.0,,,,'--',,,,'--','--',,,,'--',
12,['2'],2,TMTstop-control_1_3linestimulus9.png,TMTstop-control_1_3greenlinestimulus9.png,TMTstop-control_1_3redlinestimulus9.png,TMT_Control,C3,62,None,1,0.0,,,,'--',,,,'--','--',,,,'--',
13,['3'],3,TMTstop-control_1_3linestimulus10.png,TMTstop-control_1_3greenlinestimulus10.png,TMTstop-control_1_3redlinestimulus10.png,TMT_Control,C3,63,None,1,0.0,,,,'--',,,,'--','--',,,,'--',
14,['2'],2,TMTstop-control_1_3linestimulus11.png,TMTstop-control_1_3greenlinestimulus11.png,TMTstop-control_1_3redlinestimulus11.png,TMT_Control,C3,64,None,1,0.0,,,,'--',,,,'--','--',,,,'--',
15,['1'],1,TMTstop-control_1_3linestimulus12.png,TMTstop-control_1_3greenlinestimulus12.png,TMTstop-control_1_3redlinestimulus12.png,TMT_Control,C3,65,None,1,0.0,,,,'--',,,,'--','--',,,,'--',
16,['3'],3,TMTstop-control_1_3linestimulus13.png,TMTstop-control_1_3greenlinestimulus13.png,TMTstop-control_1_3redlinestimulus13.png,TMT_Control,C3,66,None,1,0.0,,,,'--',,,,'--','--',,,,'--',
17,['1'],1,TMTstop-control_1_3linestimulus14.png,TMTstop-control_1_3greenlinestimulus14.png,TMTstop-control_1_3redlinestimulus14.png,TMT_Control,C3,67,None,1,0.0,,,,'--',,,,'--','--',,,,'--',
18,['3'],3,TMTstop-control_1_3linestimulus15.png,TMTstop-control_1_3greenlinestimulus15.png,TMTstop-control_1_3redlinestimulus15.png,TMT_Control,C3,68,None,1,0.0,,,,'--',,,,'--','--',,,,'--',
19,['2'],2,TMTstop-control_1_3linestimulus16.png,TMTstop-control_1_3greenlinestimulus16.png,TMTstop-control_1_3redlinestimulus16.png,TMT_Control,C3,69,None,1,0.0,,,,'--',,,,'--','--',,,,'--',
20,['1'],1,TMTstop-control_1_3linestimulus17.png,TMTstop-control_1_3greenlinestimulus17.png,TMTstop-control_1_3redlinestimulus17.png,TMT_Control,C3,70,None,1,0.0,,,,'--',,,,'--','--',,,,'--',
21,['3'],3,TMTstop-control_1_3linestimulus18.png,TMTstop-control_1_3greenlinestimulus18.png,TMTstop-control_1_3redlinestimulus18.png,TMT_Control,C3,71,None,1,0.0,,,,'--',,,,'--','--',,,,'--',
22,['2'],2,TMTstop-control_1_3linestimulus19.png,TMTstop-control_1_3greenlinestimulus19.png,TMTstop-control_1_3redlinestimulus19.png,TMT_Control,C3,72,None,1,0.0,,,,'--',,,,'--','--',,,,'--',
23,['3'],3,TMTstop-control_1_3linestimulus20.png,TMTstop-control_1_3greenlinestimulus20.png,TMTstop-control_1_3redlinestimulus20.png,TMT_Control,C3,73,None,1,0.0,,,,'--',,,,'--','--',,,,'--',
24,['1'],1,TMTstop-control_1_3linestimulus21.png,TMTstop-control_1_3greenlinestimulus21.png,TMTstop-control_1_3redlinestimulus21.png,TMT_Control,C3,74,None,1,0.0,,,,'--',,,,'--','--',,,,'--',
25,['2'],2,TMTstop-control_1_3linestimulus22.png,TMTstop-control_1_3greenlinestimulus22.png,TMTstop-control_1_3redlinestimulus22.png,TMT_Control,C3,75,None,1,0.0,,,,'--',,,,'--','--',,,,'--',
None,None,None,TMTstop-control_1_3linestimulus23.png,TMTstop-control_1_3greenlinestimulus23.png,TMTstop-control_1_3redlinestimulus23.png,TMT_Control,C3,Feedback_last,None,1,0.0,,,,'--',,,,'--','--',,,,'--',

extraInfo
participant,
session,001
date,2022_Nov_17_2116
expName,TMT_fmri
psychopyVersion,2021.2.3
frameRate,59.916907235084444
