Block_file,Condition_rows,NumberLetter,corrAns,Correct,StimFile,Correct_StimFile,False_StimFile,Block,TrialNumber_session,restartpractice.thisRepN,restartpractice.thisTrialN,restartpractice.thisN,restartpractice.thisIndex,trials_practice.thisRepN,trials_practice.thisTrialN,trials_practice.thisN,trials_practice.thisIndex,Blocks_loop.thisRepN,Blocks_loop.thisTrialN,Blocks_loop.thisN,Blocks_loop.thisIndex,trials.thisRepN,trials.thisTrialN,trials.thisN,trials.thisIndex,Attempts,First_attempt,Stim.started,Stim.stopped,key_resp_2.keys,key_resp_2.corr,key_resp_2.rt,key_resp_2.started,key_resp_2.stopped,participant,session,date,expName,psychopyVersion,frameRate,
TMTstop-A_1_1.xlsx,0:26,1,['2'],2,TMTstop-A_1_1.png,TMTstop-A_1_1.png,TMTstop-A_1_1.png,1,1,,,,,,,,,0,0,0,0,0,0,0,0,2,1,17.389060799963772,None,"['1', '2']",1,"[0.36031640018336475, 0.44242970016784966]",17.389060799963772,None,,001,2022_Feb_02_1454,TMTAstop-A,2021.2.3,144.09491863231804,
TMTstop-A_1_1.xlsx,0:26,2,['1'],1,TMTstop-A_1_1.png,TMTstop-A_1_1firstgreen.png,TMTstop-A_1_1firstred.png,1,2,,,,,,,,,0,0,0,0,0,1,1,1,2,1,17.93947310000658,None,"['3', '1']",1,"[-0.02888550003990531, 0.12034540018066764]",17.93947310000658,None,,001,2022_Feb_02_1454,TMTAstop-A,2021.2.3,144.09491863231804,
TMTstop-A_1_1.xlsx,0:26,3,['2'],2,TMTstop-A_1_1linestimulus0.png,TMTstop-A_1_1greenlinestimulus0.png,TMTstop-A_1_1redlinestimulus0.png,1,3,,,,,,,,,0,0,0,0,0,2,2,2,1,1,18.168177800020203,None,['2'],1,[-0.05761229991912842],18.168177800020203,None,,001,2022_Feb_02_1454,TMTAstop-A,2021.2.3,144.09491863231804,
TMTstop-A_1_1.xlsx,0:26,4,['3'],3,TMTstop-A_1_1linestimulus1.png,TMTstop-A_1_1greenlinestimulus1.png,TMTstop-A_1_1redlinestimulus1.png,1,4,,,,,,,,,0,0,0,0,0,3,3,3,1,1,18.251151399919763,None,['3'],1,[-0.053308699978515506],18.251151399919763,None,,001,2022_Feb_02_1454,TMTAstop-A,2021.2.3,144.09491863231804,
TMTstop-A_1_1.xlsx,0:26,5,['2'],2,TMTstop-A_1_1linestimulus2.png,TMTstop-A_1_1greenlinestimulus2.png,TMTstop-A_1_1redlinestimulus2.png,1,5,,,,,,,,,0,0,0,0,0,4,4,4,2,1,18.326682899845764,None,"['1', '2']",1,"[-0.00874839979223907, 0.03469810006208718]",18.326682899845764,None,,001,2022_Feb_02_1454,TMTAstop-A,2021.2.3,144.09491863231804,
TMTstop-A_1_1.xlsx,0:26,6,['3'],3,TMTstop-A_1_1linestimulus3.png,TMTstop-A_1_1greenlinestimulus3.png,TMTstop-A_1_1redlinestimulus3.png,1,6,,,,,,,,,0,0,0,0,0,5,5,5,1,1,18.44723409996368,None,['3'],1,[0.006473500048741698],18.44723409996368,None,,001,2022_Feb_02_1454,TMTAstop-A,2021.2.3,144.09491863231804,
TMTstop-A_1_1.xlsx,0:26,7,['2'],2,TMTstop-A_1_1linestimulus4.png,TMTstop-A_1_1greenlinestimulus4.png,TMTstop-A_1_1redlinestimulus4.png,1,7,,,,,,,,,0,0,0,0,0,6,6,6,2,1,18.529420499922708,None,"['1', '2']",1,"[0.04923629993572831, 0.11027009994722903]",18.529420499922708,None,,001,2022_Feb_02_1454,TMTAstop-A,2021.2.3,144.09491863231804,
TMTstop-A_1_1.xlsx,0:26,8,['1'],1,TMTstop-A_1_1linestimulus5.png,TMTstop-A_1_1greenlinestimulus5.png,TMTstop-A_1_1redlinestimulus5.png,1,8,,,,,,,,,0,0,0,0,0,7,7,7,2,1,18.744467000011355,None,"['3', '1']",1,"[-0.009457099949941039, 0.10741619998589158]",18.744467000011355,None,,001,2022_Feb_02_1454,TMTAstop-A,2021.2.3,144.09491863231804,
TMTstop-A_1_1.xlsx,0:26,9,['2'],2,TMTstop-A_1_1linestimulus6.png,TMTstop-A_1_1greenlinestimulus6.png,TMTstop-A_1_1redlinestimulus6.png,1,9,,,,,,,,,0,0,0,0,0,8,8,8,1,1,18.946816300041974,None,['2'],1,[-0.015585599932819605],18.946816300041974,None,,001,2022_Feb_02_1454,TMTAstop-A,2021.2.3,144.09491863231804,
TMTstop-A_1_1.xlsx,0:26,10,['1'],1,TMTstop-A_1_1linestimulus7.png,TMTstop-A_1_1greenlinestimulus7.png,TMTstop-A_1_1redlinestimulus7.png,1,10,,,,,,,,,0,0,0,0,0,9,9,9,2,1,19.021521999966353,None,"['3', '1']",1,"[0.010197700001299381, 0.13329380005598068]",19.021521999966353,None,,001,2022_Feb_02_1454,TMTAstop-A,2021.2.3,144.09491863231804,
TMTstop-A_1_1.xlsx,0:26,11,['2'],2,TMTstop-A_1_1linestimulus8.png,TMTstop-A_1_1greenlinestimulus8.png,TMTstop-A_1_1redlinestimulus8.png,1,11,,,,,,,,,0,0,0,0,0,10,10,10,1,1,19.2434197999537,None,['2'],1,[-0.01829579984769225],19.2434197999537,None,,001,2022_Feb_02_1454,TMTAstop-A,2021.2.3,144.09491863231804,
TMTstop-A_1_1.xlsx,0:26,12,['3'],3,TMTstop-A_1_1linestimulus9.png,TMTstop-A_1_1greenlinestimulus9.png,TMTstop-A_1_1redlinestimulus9.png,1,12,,,,,,,,,0,0,0,0,0,11,11,11,1,1,19.319636199856177,None,['3'],1,[0.004874400096014142],19.319636199856177,None,,001,2022_Feb_02_1454,TMTAstop-A,2021.2.3,144.09491863231804,
TMTstop-A_1_1.xlsx,0:26,13,['2'],2,TMTstop-A_1_1linestimulus10.png,TMTstop-A_1_1greenlinestimulus10.png,TMTstop-A_1_1redlinestimulus10.png,1,13,,,,,,,,,0,0,0,0,0,12,12,12,2,1,19.409972599940374,None,"['1', '2']",1,"[0.04781689983792603, 0.13960389979183674]",19.409972599940374,None,,001,2022_Feb_02_1454,TMTAstop-A,2021.2.3,144.09491863231804,
TMTstop-A_1_1.xlsx,0:26,14,['3'],3,TMTstop-A_1_1linestimulus11.png,TMTstop-A_1_1greenlinestimulus11.png,TMTstop-A_1_1redlinestimulus11.png,1,14,,,,,,,,,0,0,0,0,0,13,13,13,1,1,19.625264700036496,None,['3'],1,[-0.0017429001163691282],19.625264700036496,None,,001,2022_Feb_02_1454,TMTAstop-A,2021.2.3,144.09491863231804,
TMTstop-A_1_1.xlsx,0:26,15,['1'],1,TMTstop-A_1_1linestimulus12.png,TMTstop-A_1_1greenlinestimulus12.png,TMTstop-A_1_1redlinestimulus12.png,1,15,,,,,,,,,0,0,0,0,0,14,14,14,1,1,19.701718399999663,None,['1'],1,[0.049406199948862195],19.701718399999663,None,,001,2022_Feb_02_1454,TMTAstop-A,2021.2.3,144.09491863231804,
TMTstop-A_1_1.xlsx,0:26,16,['3'],3,TMTstop-A_1_1linestimulus13.png,TMTstop-A_1_1greenlinestimulus13.png,TMTstop-A_1_1redlinestimulus13.png,1,16,,,,,,,,,0,0,0,0,0,15,15,15,2,1,19.827296199975535,None,"['2', '3']",1,"[0.018091199919581413, 0.08713050000369549]",19.827296199975535,None,,001,2022_Feb_02_1454,TMTAstop-A,2021.2.3,144.09491863231804,
TMTstop-A_1_1.xlsx,0:26,17,['2'],2,TMTstop-A_1_1linestimulus14.png,TMTstop-A_1_1greenlinestimulus14.png,TMTstop-A_1_1redlinestimulus14.png,1,17,,,,,,,,,0,0,0,0,0,16,16,16,2,1,20.007257199846208,None,"['1', '2']",1,"[0.0540762001182884, 0.12302260007709265]",20.007257199846208,None,,001,2022_Feb_02_1454,TMTAstop-A,2021.2.3,144.09491863231804,
TMTstop-A_1_1.xlsx,0:26,18,['3'],3,TMTstop-A_1_1linestimulus15.png,TMTstop-A_1_1greenlinestimulus15.png,TMTstop-A_1_1redlinestimulus15.png,1,18,,,,,,,,,0,0,0,0,0,17,17,17,1,1,20.22292499989271,None,['3'],1,[0.0073639999609440565],20.22292499989271,None,,001,2022_Feb_02_1454,TMTAstop-A,2021.2.3,144.09491863231804,
TMTstop-A_1_1.xlsx,0:26,19,['1'],1,TMTstop-A_1_1linestimulus16.png,TMTstop-A_1_1greenlinestimulus16.png,TMTstop-A_1_1redlinestimulus16.png,1,19,,,,,,,,,0,0,0,0,0,18,18,18,1,1,20.313828099984676,None,['1'],1,[0.04175329999998212],20.313828099984676,None,,001,2022_Feb_02_1454,TMTAstop-A,2021.2.3,144.09491863231804,
TMTstop-A_1_1.xlsx,0:26,20,['3'],3,TMTstop-A_1_1linestimulus17.png,TMTstop-A_1_1greenlinestimulus17.png,TMTstop-A_1_1redlinestimulus17.png,1,20,,,,,,,,,0,0,0,0,0,19,19,19,2,1,20.43853980000131,None,"['2', '3']",1,"[-0.019853799836710095, 0.06313040014356375]",20.43853980000131,None,,001,2022_Feb_02_1454,TMTAstop-A,2021.2.3,144.09491863231804,
TMTstop-A_1_1.xlsx,0:26,21,['1'],1,TMTstop-A_1_1linestimulus18.png,TMTstop-A_1_1greenlinestimulus18.png,TMTstop-A_1_1redlinestimulus18.png,1,21,,,,,,,,,0,0,0,0,0,20,20,20,1,1,20.618663899833336,None,['1'],1,[0.01292110001668334],20.618663899833336,None,,001,2022_Feb_02_1454,TMTAstop-A,2021.2.3,144.09491863231804,
TMTstop-A_1_1.xlsx,0:26,22,['3'],3,TMTstop-A_1_1linestimulus19.png,TMTstop-A_1_1greenlinestimulus19.png,TMTstop-A_1_1redlinestimulus19.png,1,22,,,,,,,,,0,0,0,0,0,21,21,21,2,1,20.71566169988364,None,"['2', '3']",1,"[-0.013589899986982346, 0.07008489989675581]",20.71566169988364,None,,001,2022_Feb_02_1454,TMTAstop-A,2021.2.3,144.09491863231804,
TMTstop-A_1_1.xlsx,0:26,23,['1'],1,TMTstop-A_1_1linestimulus20.png,TMTstop-A_1_1greenlinestimulus20.png,TMTstop-A_1_1redlinestimulus20.png,1,23,,,,,,,,,0,0,0,0,0,22,22,22,1,1,20.883721799822524,None,['1'],1,[0.035590199986472726],20.883721799822524,None,,001,2022_Feb_02_1454,TMTAstop-A,2021.2.3,144.09491863231804,
TMTstop-A_1_1.xlsx,0:26,24,['2'],2,TMTstop-A_1_1linestimulus21.png,TMTstop-A_1_1greenlinestimulus21.png,TMTstop-A_1_1redlinestimulus21.png,1,24,,,,,,,,,0,0,0,0,0,23,23,23,1,1,21.01406729989685,None,['2'],1,[-0.01231530006043613],21.01406729989685,None,,001,2022_Feb_02_1454,TMTAstop-A,2021.2.3,144.09491863231804,
TMTstop-A_1_1.xlsx,0:26,25,['3'],3,TMTstop-A_1_1linestimulus22.png,TMTstop-A_1_1greenlinestimulus22.png,TMTstop-A_1_1redlinestimulus22.png,1,25,,,,,,,,,0,0,0,0,0,24,24,24,1,1,21.097948199836537,None,['3'],1,[-0.02728100004605949],21.097948199836537,None,,001,2022_Feb_02_1454,TMTAstop-A,2021.2.3,144.09491863231804,
TMTstop-A_1_1.xlsx,0:26,None,None,None,TMTstop-A_1_1linestimulus23.png,TMTstop-A_1_1greenlinestimulus23.png,TMTstop-A_1_1redlinestimulus23.png,1,None,,,,,,,,,0,0,0,0,0,25,25,25,3,1,21.174188300035894,None,"['1', '2', '3']",0,"[0.019026099937036633, 0.1374134998768568, 0.23513969988562167]",21.174188300035894,None,,001,2022_Feb_02_1454,TMTAstop-A,2021.2.3,144.09491863231804,
TMTstop-A_1_2.xlsx,26:52,1,['3'],3,TMTstop-A_1_2.png,TMTstop-A_1_2.png,TMTstop-A_1_2.png,2,26,,,,,,,,,0,1,1,1,0,0,0,0,3,1,25.321234500035644,None,"['2', '1', '3']",1,"[0.8066031998023391, 1.292931899894029, 1.7413950997870415]",25.321234500035644,None,,001,2022_Feb_02_1454,TMTAstop-A,2021.2.3,144.09491863231804,
TMTstop-A_1_2.xlsx,26:52,2,['2'],2,TMTstop-A_1_2.png,TMTstop-A_1_2firstgreen.png,TMTstop-A_1_2firstred.png,2,27,,,,,,,,,0,1,1,1,0,1,1,1,0,1,27.155692899832502,None,None,0,,27.155692899832502,None,,001,2022_Feb_02_1454,TMTAstop-A,2021.2.3,144.09491863231804,
TMTstop-A_1_3.xlsx,52:78,1,['2'],2,TMTstop-A_1_3.png,TMTstop-A_1_3.png,TMTstop-A_1_3.png,3,51,,,,,,,,,0,2,2,2,0,0,0,0,0,1,30.45572909011971,None,None,0,,30.45572909011971,None,,001,2022_Feb_02_1454,TMTAstop-A,2021.2.3,144.09491863231804,
TMTstop-A_1_4.xlsx,78:104,1,['3'],3,TMTstop-A_1_4.png,TMTstop-A_1_4.png,TMTstop-A_1_4.png,4,76,,,,,,,,,0,3,3,3,0,0,0,0,0,1,33.5247049999889,None,None,0,,33.5247049999889,None,,001,2022_Feb_02_1454,TMTAstop-A,2021.2.3,144.09491863231804,
TMTstop-A_1_5.xlsx,104:130,1,['2'],2,TMTstop-A_1_5.png,TMTstop-A_1_5.png,TMTstop-A_1_5.png,5,101,,,,,,,,,0,4,4,4,0,0,0,0,0,1,36.59408099995926,None,None,0,,36.59408099995926,None,,001,2022_Feb_02_1454,TMTAstop-A,2021.2.3,144.09491863231804,
