NumberLetter,corrAns,StimFile,Correct_StimFile,False_StimFile,DurationTrial,restartpractice.thisRepN,restartpractice.thisTrialN,restartpractice.thisN,restartpractice.thisIndex,trials_practice.thisRepN,trials_practice.thisTrialN,trials_practice.thisN,trials_practice.thisIndex,trials.thisRepN,trials.thisTrialN,trials.thisN,trials.thisIndex,trials_2.thisRepN,trials_2.thisTrialN,trials_2.thisN,trials_2.thisIndex,Instruct.started,Instruct.stopped,text_2.started,text_2.stopped,polygon.started,polygon.stopped,Stim_practice.started,Stim_practice.stopped,key_resp_practice.keys,key_resp_practice.rt,key_resp_practice.started,key_resp_practice.stopped,text_5.started,text_5.stopped,key_resp_5.keys,key_resp_5.rt,key_resp_5.started,key_resp_5.stopped,Stim.started,Stim.stopped,key_resp_2.keys,key_resp_2.corr,key_resp_2.rt,key_resp_2.started,key_resp_2.stopped,participant,session,date,expName,psychopyVersion,frameRate,
1,['1'],TMTstop-A_1_practice.png,TMTstop-A_1_practice.png,TMTstop-A_1_practice.png,10,0,0,0,0,0,0,0,0,,,,,,,,,6.704031200000827,None,6.704031200000827,None,7.660675099999935,None,10.76335619999918,None,1,0.6986206999990827,10.76335619999918,None,,,,,,,,,,,,,,,001,2021_Nov_16_1805,TMTAB,2021.2.3,60.042714387014925,
2,['2'],TMTstop-A_1_practice.png,TMTstop-A_1_practicefirstgreen.png,TMTstop-A_1_practicefirstred.png,10,0,0,0,0,0,1,1,1,,,,,,,,,,,,,,,11.548020700000052,None,2,0.284827999999834,11.548020700000052,None,,,,,,,,,,,,,,,001,2021_Nov_16_1805,TMTAB,2021.2.3,60.042714387014925,
3,['3'],TMTstop-A_1_practicelinestimulus0.png,TMTstop-A_1_practicegreenlinestimulus0.png,TMTstop-A_1_practiceredlinestimulus0.png,10,0,0,0,0,0,2,2,2,,,,,,,,,,,,,,,11.964166199999454,None,3,0.2625761999988754,11.964166199999454,None,,,,,,,,,,,,,,,001,2021_Nov_16_1805,TMTAB,2021.2.3,60.042714387014925,
4,['1'],TMTstop-A_1_practicelinestimulus1.png,TMTstop-A_1_practicegreenlinestimulus1.png,TMTstop-A_1_practiceredlinestimulus1.png,10,0,0,0,0,0,3,3,3,,,,,,,,,,,,,,,12.347761700000774,None,1,0.011834599999929196,12.347761700000774,None,,,,,,,,,,,,,,,001,2021_Nov_16_1805,TMTAB,2021.2.3,60.042714387014925,
5,['2'],TMTstop-A_1_practicelinestimulus2.png,TMTstop-A_1_practicegreenlinestimulus2.png,TMTstop-A_1_practiceredlinestimulus2.png,10,0,0,0,0,0,4,4,4,,,,,,,,,,,,,,,12.44773030000033,None,2,0.30223949999890465,12.44773030000033,None,,,,,,,,,,,,,,,001,2021_Nov_16_1805,TMTAB,2021.2.3,60.042714387014925,
6,['3'],TMTstop-A_1_practicelinestimulus3.png,TMTstop-A_1_practicegreenlinestimulus3.png,TMTstop-A_1_practiceredlinestimulus3.png,10,0,0,0,0,0,5,5,5,,,,,,,,,,,,,,,12.864650800000163,None,3,0.26322930000060296,12.864650800000163,None,,,,,,,,,,,,,,,001,2021_Nov_16_1805,TMTAB,2021.2.3,60.042714387014925,
7,['1'],TMTstop-A_1_practicelinestimulus4.png,TMTstop-A_1_practicegreenlinestimulus4.png,TMTstop-A_1_practiceredlinestimulus4.png,10,0,0,0,0,0,6,6,6,,,,,,,,,,,,,,,13.248149499999272,None,1,0.0123976999984734,13.248149499999272,None,,,,,,,,,,,,,,,001,2021_Nov_16_1805,TMTAB,2021.2.3,60.042714387014925,
8,['3'],TMTstop-A_1_practicelinestimulus5.png,TMTstop-A_1_practicegreenlinestimulus5.png,TMTstop-A_1_practiceredlinestimulus5.png,10,0,0,0,0,0,7,7,7,,,,,,,,,,,,,,,13.348292799999399,None,3,0.12728939999942668,13.348292799999399,None,,,,,,,,,,,,,,,001,2021_Nov_16_1805,TMTAB,2021.2.3,60.042714387014925,
9,['2'],TMTstop-A_1_practicelinestimulus6.png,TMTstop-A_1_practicegreenlinestimulus6.png,TMTstop-A_1_practiceredlinestimulus6.png,10,0,0,0,0,0,8,8,8,,,,,,,,,,,,,,,13.598262400000749,None,2,0.10563299999921583,13.598262400000749,None,,,,,,,,,,,,,,,001,2021_Nov_16_1805,TMTAB,2021.2.3,60.042714387014925,
10,['3'],TMTstop-A_1_practicelinestimulus7.png,TMTstop-A_1_practicegreenlinestimulus7.png,TMTstop-A_1_practiceredlinestimulus7.png,10,0,0,0,0,0,9,9,9,,,,,,,,,,,,,,,13.798412399999506,None,3,0.012706299999990733,13.798412399999506,None,,,,,,,,,,,,,,,001,2021_Nov_16_1805,TMTAB,2021.2.3,60.042714387014925,
11,['1'],TMTstop-A_1_practicelinestimulus8.png,TMTstop-A_1_practicegreenlinestimulus8.png,TMTstop-A_1_practiceredlinestimulus8.png,10,0,0,0,0,0,10,10,10,,,,,,,,,,,,,,,13.898586200000864,None,1,0.041933200000130455,13.898586200000864,None,,,,,,,,,,,,,,,001,2021_Nov_16_1805,TMTAB,2021.2.3,60.042714387014925,
12,['2'],TMTstop-A_1_practicelinestimulus9.png,TMTstop-A_1_practicegreenlinestimulus9.png,TMTstop-A_1_practiceredlinestimulus9.png,10,0,0,0,0,0,11,11,11,,,,,,,,,,,,,,,14.031983700000637,None,2,0.6775281000009272,14.031983700000637,None,,,,,,,,,,,,,,,001,2021_Nov_16_1805,TMTAB,2021.2.3,60.042714387014925,
None,None,TMTstop-A_1_practicelinestimulus10.png,TMTstop-A_1_practicegreenlinestimulus10.png,TMTstop-A_1_practiceredlinestimulus10.png,None,0,0,0,0,0,12,12,12,,,,,,,,,,,,,,,14.799269400000412,None,None,,14.799269400000412,None,,,,,,,,,,,,,,,001,2021_Nov_16_1805,TMTAB,2021.2.3,60.042714387014925,
,,,,,,0,0,0,0,,,,,,,,,,,,,,,,,,,,,,,,,15.846293900000092,None,x,6.138548700000683,15.846293900000092,None,,,,,,,,,001,2021_Nov_16_1805,TMTAB,2021.2.3,60.042714387014925,
1,['2'],TMTstop-A_1_1.png,TMTstop-A_1_1.png,TMTstop-A_1_1.png,10,,,,,,,,,0,0,0,0,,,,,,,,,22.017241400000785,None,,,,,,,,,,,,,25.119820899999468,None,"['1', '2']",1,"[0.8888460999987728, 0.9884355999984109]",25.119820899999468,None,,001,2021_Nov_16_1805,TMTAB,2021.2.3,60.042714387014925,
2,['1'],TMTstop-A_1_1.png,TMTstop-A_1_1firstgreen.png,TMTstop-A_1_1firstred.png,10,,,,,,,,,0,1,1,1,,,,,,,,,,,,,,,,,,,,,,,26.204165700000885,None,"['3', '1']",1,"[0.0846149000008154, 0.23128060000090045]",26.204165700000885,None,,001,2021_Nov_16_1805,TMTAB,2021.2.3,60.042714387014925,
3,['2'],TMTstop-A_1_1linestimulus0.png,TMTstop-A_1_1greenlinestimulus0.png,TMTstop-A_1_1redlinestimulus0.png,10,,,,,,,,,0,2,2,2,,,,,,,,,,,,,,,,,,,,,,,26.52097590000085,None,['2'],1,[6.779999966965988e-05],26.52097590000085,None,,001,2021_Nov_16_1805,TMTAB,2021.2.3,60.042714387014925,
4,['3'],TMTstop-A_1_1linestimulus1.png,TMTstop-A_1_1greenlinestimulus1.png,TMTstop-A_1_1redlinestimulus1.png,10,,,,,,,,,0,3,3,3,,,,,,,,,,,,,,,,,,,,,,,26.604249800000616,None,['3'],1,[0.008721599999262253],26.604249800000616,None,,001,2021_Nov_16_1805,TMTAB,2021.2.3,60.042714387014925,
5,['2'],TMTstop-A_1_1linestimulus2.png,TMTstop-A_1_1greenlinestimulus2.png,TMTstop-A_1_1redlinestimulus2.png,10,,,,,,,,,0,4,4,4,,,,,,,,,,,,,,,,,,,,,,,26.704535799999576,None,"['1', '2']",1,"[0.08190699999977369, 0.14551729999948293]",26.704535799999576,None,,001,2021_Nov_16_1805,TMTAB,2021.2.3,60.042714387014925,
6,['3'],TMTstop-A_1_1linestimulus3.png,TMTstop-A_1_1greenlinestimulus3.png,TMTstop-A_1_1redlinestimulus3.png,10,,,,,,,,,0,5,5,5,,,,,,,,,,,,,,,,,,,,,,,26.971290999999837,None,['3'],1,[-0.019181299998308532],26.971290999999837,None,,001,2021_Nov_16_1805,TMTAB,2021.2.3,60.042714387014925,
7,['2'],TMTstop-A_1_1linestimulus4.png,TMTstop-A_1_1greenlinestimulus4.png,TMTstop-A_1_1redlinestimulus4.png,10,,,,,,,,,0,6,6,6,,,,,,,,,,,,,,,,,,,,,,,27.054644499999995,None,"['1', '2']",1,"[0.0740763000012521, 0.12547900000026857]",27.054644499999995,None,,001,2021_Nov_16_1805,TMTAB,2021.2.3,60.042714387014925,
8,['1'],TMTstop-A_1_1linestimulus5.png,TMTstop-A_1_1greenlinestimulus5.png,TMTstop-A_1_1redlinestimulus5.png,10,,,,,,,,,0,7,7,7,,,,,,,,,,,,,,,,,,,,,,,27.271284399999786,None,"['3', '1']",1,"[0.02231510000092385, 0.1740791000011086]",27.271284399999786,None,,001,2021_Nov_16_1805,TMTAB,2021.2.3,60.042714387014925,
9,['2'],TMTstop-A_1_1linestimulus6.png,TMTstop-A_1_1greenlinestimulus6.png,TMTstop-A_1_1redlinestimulus6.png,10,,,,,,,,,0,8,8,8,,,,,,,,,,,,,,,,,,,,,,,27.53813380000065,None,['2'],1,[-0.0305607999998756],27.53813380000065,None,,001,2021_Nov_16_1805,TMTAB,2021.2.3,60.042714387014925,
10,['1'],TMTstop-A_1_1linestimulus7.png,TMTstop-A_1_1greenlinestimulus7.png,TMTstop-A_1_1redlinestimulus7.png,10,,,,,,,,,0,9,9,9,,,,,,,,,,,,,,,,,,,,,,,27.621607200000653,None,"['3', '1']",1,"[0.01060440000037488, 0.14242290000038338]",27.621607200000653,None,,001,2021_Nov_16_1805,TMTAB,2021.2.3,60.042714387014925,
11,['2'],TMTstop-A_1_1linestimulus8.png,TMTstop-A_1_1greenlinestimulus8.png,TMTstop-A_1_1redlinestimulus8.png,10,,,,,,,,,0,10,10,10,,,,,,,,,,,,,,,,,,,,,,,27.87170639999931,None,['2'],1,[-0.04210410000086995],27.87170639999931,None,,001,2021_Nov_16_1805,TMTAB,2021.2.3,60.042714387014925,
12,['3'],TMTstop-A_1_1linestimulus9.png,TMTstop-A_1_1greenlinestimulus9.png,TMTstop-A_1_1redlinestimulus9.png,10,,,,,,,,,0,11,11,11,,,,,,,,,,,,,,,,,,,,,,,27.95512769999914,None,['3'],1,[-0.01965559999916877],27.95512769999914,None,,001,2021_Nov_16_1805,TMTAB,2021.2.3,60.042714387014925,
13,['2'],TMTstop-A_1_1linestimulus10.png,TMTstop-A_1_1greenlinestimulus10.png,TMTstop-A_1_1redlinestimulus10.png,1,,,,,,,,,0,12,12,12,,,,,,,,,,,,,,,,,,,,,,,28.03842099999929,None,"['1', '2']",1,"[0.06468560000030266, 0.10859239999990677]",28.03842099999929,None,,001,2021_Nov_16_1805,TMTAB,2021.2.3,60.042714387014925,
14,['3'],TMTstop-A_1_1linestimulus11.png,TMTstop-A_1_1greenlinestimulus11.png,TMTstop-A_1_1redlinestimulus11.png,None,,,,,,,,,0,13,13,13,,,,,,,,,,,,,,,,,,,,,,,28.23938420000013,None,['3'],1,[0.029758399999991525],28.23938420000013,None,,001,2021_Nov_16_1805,TMTAB,2021.2.3,60.042714387014925,
15,['1'],TMTstop-A_1_1linestimulus12.png,TMTstop-A_1_1greenlinestimulus12.png,TMTstop-A_1_1redlinestimulus12.png,None,,,,,,,,,0,14,14,14,,,,,,,,,,,,,,,,,,,,,,,28.355156499999794,None,['1'],1,[0.072983000000022],28.355156499999794,None,,001,2021_Nov_16_1805,TMTAB,2021.2.3,60.042714387014925,
16,['3'],TMTstop-A_1_1linestimulus13.png,TMTstop-A_1_1greenlinestimulus13.png,TMTstop-A_1_1redlinestimulus13.png,None,,,,,,,,,0,15,15,15,,,,,,,,,,,,,,,,,,,,,,,28.52181759999985,None,"['2', '3']",1,"[-0.03536600000006729, 0.08798190000015893]",28.52181759999985,None,,001,2021_Nov_16_1805,TMTAB,2021.2.3,60.042714387014925,
17,['2'],TMTstop-A_1_1linestimulus14.png,TMTstop-A_1_1greenlinestimulus14.png,TMTstop-A_1_1redlinestimulus14.png,None,,,,,,,,,0,16,16,16,,,,,,,,,,,,,,,,,,,,,,,28.705555799999274,None,"['1', '2']",1,"[0.02947209999911138, 0.10284489999867219]",28.705555799999274,None,,001,2021_Nov_16_1805,TMTAB,2021.2.3,60.042714387014925,
18,['3'],TMTstop-A_1_1linestimulus15.png,TMTstop-A_1_1greenlinestimulus15.png,TMTstop-A_1_1redlinestimulus15.png,None,,,,,,,,,0,17,17,17,,,,,,,,,,,,,,,,,,,,,,,28.922247000000425,None,['3'],1,[0.014334299999973155],28.922247000000425,None,,001,2021_Nov_16_1805,TMTAB,2021.2.3,60.042714387014925,
19,['1'],TMTstop-A_1_1linestimulus16.png,TMTstop-A_1_1greenlinestimulus16.png,TMTstop-A_1_1redlinestimulus16.png,None,,,,,,,,,0,18,18,18,,,,,,,,,,,,,,,,,,,,,,,29.022179600000527,None,['1'],1,[0.02648149999913585],29.022179600000527,None,,001,2021_Nov_16_1805,TMTAB,2021.2.3,60.042714387014925,
20,['3'],TMTstop-A_1_1linestimulus17.png,TMTstop-A_1_1greenlinestimulus17.png,TMTstop-A_1_1redlinestimulus17.png,None,,,,,,,,,0,19,19,19,,,,,,,,,,,,,,,,,,,,,,,29.138983999999255,None,"['2', '3']",1,"[-0.006976499998927466, 0.10227870000016992]",29.138983999999255,None,,001,2021_Nov_16_1805,TMTAB,2021.2.3,60.042714387014925,
21,['1'],TMTstop-A_1_1linestimulus18.png,TMTstop-A_1_1greenlinestimulus18.png,TMTstop-A_1_1redlinestimulus18.png,None,,,,,,,,,0,20,20,20,,,,,,,,,,,,,,,,,,,,,,,29.372435499999483,None,['1'],1,[-0.0029267999998410232],29.372435499999483,None,,001,2021_Nov_16_1805,TMTAB,2021.2.3,60.042714387014925,
22,['3'],TMTstop-A_1_1linestimulus19.png,TMTstop-A_1_1greenlinestimulus19.png,TMTstop-A_1_1redlinestimulus19.png,None,,,,,,,,,0,21,21,21,,,,,,,,,,,,,,,,,,,,,,,29.455948400000125,None,"['2', '3']",1,"[-0.02639369999997143, 0.10106739999901038]",29.455948400000125,None,,001,2021_Nov_16_1805,TMTAB,2021.2.3,60.042714387014925,
23,['1'],TMTstop-A_1_1linestimulus20.png,TMTstop-A_1_1greenlinestimulus20.png,TMTstop-A_1_1redlinestimulus20.png,None,,,,,,,,,0,22,22,22,,,,,,,,,,,,,,,,,,,,,,,29.639194600000337,None,['1'],1,[0.04255360000024666],29.639194600000337,None,,001,2021_Nov_16_1805,TMTAB,2021.2.3,60.042714387014925,
24,['2'],TMTstop-A_1_1linestimulus21.png,TMTstop-A_1_1greenlinestimulus21.png,TMTstop-A_1_1redlinestimulus21.png,None,,,,,,,,,0,23,23,23,,,,,,,,,,,,,,,,,,,,,,,29.772736000000805,None,"['3', '1', '3', '1', '2']",1,"[0.09185419999994338, 0.21565470000132336, 0.40272879999974975, 0.5310172999998031, 0.6023127999997087]",29.772736000000805,None,,001,2021_Nov_16_1805,TMTAB,2021.2.3,60.042714387014925,
25,['3'],TMTstop-A_1_1linestimulus22.png,TMTstop-A_1_1greenlinestimulus22.png,TMTstop-A_1_1redlinestimulus22.png,None,,,,,,,,,0,24,24,24,,,,,,,,,,,,,,,,,,,,,,,30.506287899999734,None,['3'],1,[-0.014725999999427586],30.506287899999734,None,,001,2021_Nov_16_1805,TMTAB,2021.2.3,60.042714387014925,
None,None,TMTstop-A_1_1linestimulus23.png,TMTstop-A_1_1greenlinestimulus23.png,TMTstop-A_1_1redlinestimulus23.png,None,,,,,,,,,0,25,25,25,,,,,,,,,,,,,,,,,,,,,,,30.58968470000036,None,"['1', '2', '3']",0,"[0.03198820000034175, 0.09694900000067719, 0.2105731999999989]",30.58968470000036,None,,001,2021_Nov_16_1805,TMTAB,2021.2.3,60.042714387014925,
,,,,,,,,,,,,,,,,,,,,,,,,,,31.621697099999437,None,,,,,,,,,,,,,,,,,,,,,,,,,,
