Block_file,Condition_rows,NumberLetter,corrAns,Correct,StimFile,Correct_StimFile,False_StimFile,Version,Paper,TrialNumber_Version,Round,Block,Blocks_TMTControl.thisRepN,Blocks_TMTControl.thisTrialN,Blocks_TMTControl.thisN,Blocks_TMTControl.thisIndex,trials_baseline1.thisRepN,trials_baseline1.thisTrialN,trials_baseline1.thisN,trials_baseline1.thisIndex,Blocks_TMTA.thisRepN,Blocks_TMTA.thisTrialN,Blocks_TMTA.thisN,Blocks_TMTA.thisIndex,trials_TMTA.thisRepN,trials_TMTA.thisTrialN,trials_TMTA.thisN,trials_TMTA.thisIndex,Blocks_baseline2.thisRepN,Blocks_baseline2.thisTrialN,Blocks_baseline2.thisN,Blocks_baseline2.thisIndex,trials_baseline2.thisRepN,trials_baseline2.thisTrialN,trials_baseline2.thisN,trials_baseline2.thisIndex,Blocks_TMTB.thisRepN,Blocks_TMTB.thisTrialN,Blocks_TMTB.thisN,Blocks_TMTB.thisIndex,trials_TMTB.thisRepN,trials_TMTB.thisTrialN,trials_TMTB.thisN,trials_TMTB.thisIndex,Blocks_baseline3.thisRepN,Blocks_baseline3.thisTrialN,Blocks_baseline3.thisN,Blocks_baseline3.thisIndex,trials_baseline3.thisRepN,trials_baseline3.thisTrialN,trials_baseline3.thisN,trials_baseline3.thisIndex,Blocks_TMTA_2.thisRepN,Blocks_TMTA_2.thisTrialN,Blocks_TMTA_2.thisN,Blocks_TMTA_2.thisIndex,trials_TMTA_2.thisRepN,trials_TMTA_2.thisTrialN,trials_TMTA_2.thisN,trials_TMTA_2.thisIndex,trials_2.thisRepN,trials_2.thisTrialN,trials_2.thisN,trials_2.thisIndex,trials_baseline4.thisRepN,trials_baseline4.thisTrialN,trials_baseline4.thisN,trials_baseline4.thisIndex,Blocks_TMTB_2.thisRepN,Blocks_TMTB_2.thisTrialN,Blocks_TMTB_2.thisN,Blocks_TMTB_2.thisIndex,trials_TMTB_2.thisRepN,trials_TMTB_2.thisTrialN,trials_TMTB_2.thisN,trials_TMTB_2.thisIndex,key_resp_7.keys,key_resp_7.rt,key_resp_7.started,key_resp_7.stopped,polygon_2.started,polygon_2.stopped,Attempts,First_attempt,ResponseClock,Stim_2.started,Stim_2.stopped,key_resp_8.keys,key_resp_8.corr,key_resp_8.rt,key_resp_8.started,key_resp_8.stopped,Stim.started,Stim.stopped,key_resp_2.keys,key_resp_2.corr,key_resp_2.rt,key_resp_2.started,key_resp_2.stopped,participant,session,date,expName,psychopyVersion,frameRate,
,,,,,,,,,,,,,,,,,,,,,,,,,,,,,,,,,,,,,,,,,,,,,,,,,,,,,,,,,,,,,,,,,,,,,,,,,,,,,s,1.1784833000056096,13.02099630000157,None,,,,,,,,,,,,,,,,,,,,,001,2022_May_23_1222,TMT_fmri,2021.2.3,59.98821831237917,
TMTstop-Control_1_1.xlsx,0:26,1,['2'],2,TMTstop-control_1_1.png,TMTstop-control_1_1.png,TMTstop-control_1_1.png,TMT_Control,1,1,1,1,0,0,0,0,0,0,0,0,,,,,,,,,,,,,,,,,,,,,,,,,,,,,,,,,,,,,,,,,,,,,,,,,,,,,,,,,,,,,13.02099630000157,None,1,1,1.7339811000056216,27.88973779999651,None,['2'],1,[1.5532458999950904],27.88973779999651,None,,,,,,,,,001,2022_May_23_1222,TMT_fmri,2021.2.3,59.98821831237917,
TMTstop-Control_1_1.xlsx,0:26,2,['1'],1,TMTstop-control_1_1.png,TMTstop-control_1_1firstgreen.png,TMTstop-control_1_1firstred.png,TMT_Control,1,2,None,1,0,0,0,0,0,1,1,1,,,,,,,,,,,,,,,,,,,,,,,,,,,,,,,,,,,,,,,,,,,,,,,,,,,,,,,,,,,,,,,1,1,2.8263511000041035,29.499838899995666,None,['1'],1,[1.0284522000001743],29.499838899995666,None,,,,,,,,,001,2022_May_23_1222,TMT_fmri,2021.2.3,59.98821831237917,
TMTstop-Control_1_1.xlsx,0:26,3,['3'],3,TMTstop-control_1_1linestimulus0.png,TMTstop-control_1_1greenlinestimulus0.png,TMTstop-control_1_1redlinestimulus0.png,TMT_Control,1,3,None,1,0,0,0,0,0,2,2,2,,,,,,,,,,,,,,,,,,,,,,,,,,,,,,,,,,,,,,,,,,,,,,,,,,,,,,,,,,,,,,,1,1,3.688726200001838,30.592186100002436,None,['3'],1,[0.8024588999978732],30.592186100002436,None,,,,,,,,,001,2022_May_23_1222,TMT_fmri,2021.2.3,59.98821831237917,
TMTstop-Control_1_1.xlsx,0:26,4,['1'],1,TMTstop-control_1_1linestimulus1.png,TMTstop-control_1_1greenlinestimulus1.png,TMTstop-control_1_1redlinestimulus1.png,TMT_Control,1,4,None,1,0,0,0,0,0,3,3,3,,,,,,,,,,,,,,,,,,,,,,,,,,,,,,,,,,,,,,,,,,,,,,,,,,,,,,,,,,,,,,,1,1,4.39720070000476,31.45439929999702,None,['1'],1,[0.6453644000066561],31.45439929999702,None,,,,,,,,,001,2022_May_23_1222,TMT_fmri,2021.2.3,59.98821831237917,
TMTstop-Control_1_1.xlsx,0:26,5,['3'],3,TMTstop-control_1_1linestimulus2.png,TMTstop-control_1_1greenlinestimulus2.png,TMTstop-control_1_1redlinestimulus2.png,TMT_Control,1,5,None,1,0,0,0,0,0,4,4,4,,,,,,,,,,,,,,,,,,,,,,,,,,,,,,,,,,,,,,,,,,,,,,,,,,,,,,,,,,,,,,,1,1,4.8551196000044,32.16294090000156,None,['3'],1,[0.39455639999505365],32.16294090000156,None,,,,,,,,,001,2022_May_23_1222,TMT_fmri,2021.2.3,59.98821831237917,
TMTstop-Control_1_1.xlsx,0:26,6,['1'],1,TMTstop-control_1_1linestimulus3.png,TMTstop-control_1_1greenlinestimulus3.png,TMTstop-control_1_1redlinestimulus3.png,TMT_Control,1,6,None,1,0,0,0,0,0,5,5,5,,,,,,,,,,,,,,,,,,,,,,,,,,,,,,,,,,,,,,,,,,,,,,,,,,,,,,,,,,,,,,,1,1,5.163113300004625,32.62107020000258,None,['1'],1,[0.24265910000394797],32.62107020000258,None,,,,,,,,,001,2022_May_23_1222,TMT_fmri,2021.2.3,59.98821831237917,
TMTstop-Control_1_1.xlsx,0:26,7,['2'],2,TMTstop-control_1_1linestimulus4.png,TMTstop-control_1_1greenlinestimulus4.png,TMTstop-control_1_1redlinestimulus4.png,TMT_Control,1,7,None,1,0,0,0,0,0,6,6,6,,,,,,,,,,,,,,,,,,,,,,,,,,,,,,,,,,,,,,,,,,,,,,,,,,,,,,,,,,,,,,,1,1,5.55496470000071,32.929396699997596,None,['2'],1,[0.3201580999957514],32.929396699997596,None,,,,,,,,,001,2022_May_23_1222,TMT_fmri,2021.2.3,59.98821831237917,
TMTstop-Control_1_1.xlsx,0:26,8,['1'],1,TMTstop-control_1_1linestimulus4.png,TMTstop-control_1_1greenlinestimulus5.png,TMTstop-control_1_1redlinestimulus5.png,TMT_Control,1,8,None,1,0,0,0,0,0,7,7,7,,,,,,,,,,,,,,,,,,,,,,,,,,,,,,,,,,,,,,,,,,,,,,,,,,,,,,,,,,,,,,,1,1,5.963109600001189,33.32061429999885,None,['1'],1,[0.34576360000210116],33.32061429999885,None,,,,,,,,,001,2022_May_23_1222,TMT_fmri,2021.2.3,59.98821831237917,
TMTstop-Control_1_1.xlsx,0:26,9,['3'],3,TMTstop-control_1_1linestimulus6.png,TMTstop-control_1_1greenlinestimulus6.png,TMTstop-control_1_1redlinestimulus6.png,TMT_Control,1,9,None,1,0,0,0,0,0,8,8,8,,,,,,,,,,,,,,,,,,,,,,,,,,,,,,,,,,,,,,,,,,,,,,,,,,,,,,,,,,,,,,,1,1,6.5880519000056665,33.72903280000173,None,['3'],1,[0.5548374999998487],33.72903280000173,None,,,,,,,,,001,2022_May_23_1222,TMT_fmri,2021.2.3,59.98821831237917,
TMTstop-Control_1_1.xlsx,0:26,10,['2'],2,TMTstop-control_1_1linestimulus7.png,TMTstop-control_1_1greenlinestimulus7.png,TMTstop-control_1_1redlinestimulus7.png,TMT_Control,1,10,None,1,0,0,0,0,0,9,9,9,,,,,,,,,,,,,,,,,,,,,,,,,,,,,,,,,,,,,,,,,,,,,,,,,,,,,,,,,,,,,,,1,1,7.012715100005153,34.35419669999828,None,['2'],1,[0.36100810000061756],34.35419669999828,None,,,,,,,,,001,2022_May_23_1222,TMT_fmri,2021.2.3,59.98821831237917,
TMTstop-Control_1_1.xlsx,0:26,11,['1'],1,TMTstop-control_1_1linestimulus8.png,TMTstop-control_1_1greenlinestimulus8.png,TMTstop-control_1_1redlinestimulus8.png,TMT_Control,1,11,None,1,0,0,0,0,0,10,10,10,,,,,,,,,,,,,,,,,,,,,,,,,,,,,,,,,,,,,,,,,,,,,,,,,,,,,,,,,,,,,,,1,1,7.5377148000043235,34.77860669999791,None,['1'],1,[0.463210000001709],34.77860669999791,None,,,,,,,,,001,2022_May_23_1222,TMT_fmri,2021.2.3,59.98821831237917,
TMTstop-Control_1_1.xlsx,0:26,12,['2'],2,TMTstop-control_1_1linestimulus9.png,TMTstop-control_1_1greenlinestimulus9.png,TMTstop-control_1_1redlinestimulus9.png,TMT_Control,1,12,None,1,0,0,0,0,0,11,11,11,,,,,,,,,,,,,,,,,,,,,,,,,,,,,,,,,,,,,,,,,,,,,,,,,,,,,,,,,,,,,,,1,1,8.229712799999106,35.30417540000053,None,['2'],1,[0.6246336999975028],35.30417540000053,None,,,,,,,,,001,2022_May_23_1222,TMT_fmri,2021.2.3,59.98821831237917,
TMTstop-Control_1_1.xlsx,0:26,13,['3'],3,TMTstop-control_1_1linestimulus10.png,TMTstop-control_1_1greenlinestimulus10.png,TMTstop-control_1_1redlinestimulus10.png,TMT_Control,1,13,None,1,0,0,0,0,0,12,12,12,,,,,,,,,,,,,,,,,,,,,,,,,,,,,,,,,,,,,,,,,,,,,,,,,,,,,,,,,,,,,,,1,1,8.737798699999985,35.995734700001776,None,['3'],1,[0.4491548000005423],35.995734700001776,None,,,,,,,,,001,2022_May_23_1222,TMT_fmri,2021.2.3,59.98821831237917,
TMTstop-Control_1_1.xlsx,0:26,14,['2'],2,TMTstop-control_1_1linestimulus11.png,TMTstop-control_1_1greenlinestimulus11.png,TMTstop-control_1_1redlinestimulus11.png,TMT_Control,1,14,None,1,0,0,0,0,0,13,13,13,,,,,,,,,,,,,,,,,,,,,,,,,,,,,,,,,,,,,,,,,,,,,,,,,,,,,,,,,,,,,,,1,1,9.179241400001047,36.504309199997806,None,['2'],1,[0.37733619999926304],36.504309199997806,None,,,,,,,,,001,2022_May_23_1222,TMT_fmri,2021.2.3,59.98821831237917,
TMTstop-Control_1_1.xlsx,0:26,15,['3'],3,TMTstop-control_1_1linestimulus12.png,TMTstop-control_1_1greenlinestimulus12.png,TMTstop-control_1_1redlinestimulus12.png,TMT_Control,1,15,None,1,0,0,0,0,0,14,14,14,,,,,,,,,,,,,,,,,,,,,,,,,,,,,,,,,,,,,,,,,,,,,,,,,,,,,,,,,,,,,,,1,1,9.938009700003022,36.945672699999704,None,['3'],1,[0.6880136999971],36.945672699999704,None,,,,,,,,,001,2022_May_23_1222,TMT_fmri,2021.2.3,59.98821831237917,
TMTstop-Control_1_1.xlsx,0:26,16,['2'],2,TMTstop-control_1_1linestimulus13.png,TMTstop-control_1_1greenlinestimulus13.png,TMTstop-control_1_1redlinestimulus13.png,TMT_Control,1,16,None,1,0,0,0,0,0,15,15,15,,,,,,,,,,,,,,,,,,,,,,,,,,,,,,,,,,,,,,,,,,,,,,,,,,,,,,,,,,,,,,,1,1,10.51402390000294,37.70457239999814,None,['2'],1,[0.5150919999941834],37.70457239999814,None,,,,,,,,,001,2022_May_23_1222,TMT_fmri,2021.2.3,59.98821831237917,
TMTstop-Control_1_1.xlsx,0:26,17,['3'],3,TMTstop-control_1_1linestimulus14.png,TMTstop-control_1_1greenlinestimulus14.png,TMTstop-control_1_1redlinestimulus14.png,TMT_Control,1,17,None,1,0,0,0,0,0,16,16,16,,,,,,,,,,,,,,,,,,,,,,,,,,,,,,,,,,,,,,,,,,,,,,,,,,,,,,,,,,,,,,,1,1,11.105006600002525,38.27933569999732,None,['3'],1,[0.5342590999935055],38.27933569999732,None,,,,,,,,,001,2022_May_23_1222,TMT_fmri,2021.2.3,59.98821831237917,
TMTstop-Control_1_1.xlsx,0:26,18,['2'],2,TMTstop-control_1_1linestimulus15.png,TMTstop-control_1_1greenlinestimulus15.png,TMTstop-control_1_1redlinestimulus15.png,TMT_Control,1,18,None,1,0,0,0,0,0,17,17,17,,,,,,,,,,,,,,,,,,,,,,,,,,,,,,,,,,,,,,,,,,,,,,,,,,,,,,,,,,,,,,,2,0,12.017985500002396,38.87133899999753,None,"['1', '2']",1,"[0.47723299999779556, 0.8199706000013975]",38.87133899999753,None,,,,,,,,,001,2022_May_23_1222,TMT_fmri,2021.2.3,59.98821831237917,
TMTstop-Control_1_1.xlsx,0:26,19,['1'],1,TMTstop-control_1_1linestimulus16.png,TMTstop-control_1_1greenlinestimulus16.png,TMTstop-control_1_1redlinestimulus16.png,TMT_Control,1,19,None,1,0,0,0,0,0,18,18,18,,,,,,,,,,,,,,,,,,,,,,,,,,,,,,,,,,,,,,,,,,,,,,,,,,,,,,,,,,,,,,,1,1,12.40186040000117,39.776230399998894,None,['1'],1,[0.32107080000423593],39.776230399998894,None,,,,,,,,,001,2022_May_23_1222,TMT_fmri,2021.2.3,59.98821831237917,
TMTstop-Control_1_1.xlsx,0:26,20,['3'],3,TMTstop-control_1_1linestimulus17.png,TMTstop-control_1_1greenlinestimulus17.png,TMTstop-control_1_1redlinestimulus17.png,TMT_Control,1,20,None,1,0,0,0,0,0,19,19,19,,,,,,,,,,,,,,,,,,,,,,,,,,,,,,,,,,,,,,,,,,,,,,,,,,,,,,,,,,,,,,,1,1,12.910200300000724,40.16823719999957,None,['3'],1,[0.4485437999974238],40.16823719999957,None,,,,,,,,,001,2022_May_23_1222,TMT_fmri,2021.2.3,59.98821831237917,
TMTstop-Control_1_1.xlsx,0:26,21,['1'],1,TMTstop-control_1_1linestimulus18.png,TMTstop-control_1_1greenlinestimulus18.png,TMTstop-control_1_1redlinestimulus18.png,TMT_Control,1,21,None,1,0,0,0,0,0,20,20,20,,,,,,,,,,,,,,,,,,,,,,,,,,,,,,,,,,,,,,,,,,,,,,,,,,,,,,,,,,,,,,,1,1,13.587250299999141,40.676314999996976,None,['1'],1,[0.6035345000054804],40.676314999996976,None,,,,,,,,,001,2022_May_23_1222,TMT_fmri,2021.2.3,59.98821831237917,
TMTstop-Control_1_1.xlsx,0:26,22,['2'],2,TMTstop-control_1_1linestimulus19.png,TMTstop-control_1_1greenlinestimulus19.png,TMTstop-control_1_1redlinestimulus19.png,TMT_Control,1,22,None,1,0,0,0,0,0,21,21,21,,,,,,,,,,,,,,,,,,,,,,,,,,,,,,,,,,,,,,,,,,,,,,,,,,,,,,,,,,,,,,,1,1,14.211883900003158,41.353240199998254,None,['2'],1,[0.5538712999987183],41.353240199998254,None,,,,,,,,,001,2022_May_23_1222,TMT_fmri,2021.2.3,59.98821831237917,
TMTstop-Control_1_1.xlsx,0:26,23,['3'],3,TMTstop-control_1_1linestimulus20.png,TMTstop-control_1_1greenlinestimulus20.png,TMTstop-control_1_1redlinestimulus20.png,TMT_Control,1,23,None,1,0,0,0,0,0,22,22,22,,,,,,,,,,,,,,,,,,,,,,,,,,,,,,,,,,,,,,,,,,,,,,,,,,,,,,,,,,,,,,,1,1,14.80377650000446,41.97777330000099,None,['3'],1,[0.5220444000005955],41.97777330000099,None,,,,,,,,,001,2022_May_23_1222,TMT_fmri,2021.2.3,59.98821831237917,
TMTstop-Control_1_1.xlsx,0:26,24,['2'],2,TMTstop-control_1_1linestimulus21.png,TMTstop-control_1_1greenlinestimulus21.png,TMTstop-control_1_1redlinestimulus21.png,TMT_Control,1,24,None,1,0,0,0,0,0,23,23,23,,,,,,,,,,,,,,,,,,,,,,,,,,,,,,,,,,,,,,,,,,,,,,,,,,,,,,,,,,,,,,,1,1,15.428915100004815,42.57008990000031,None,['2'],1,[0.5568628999972134],42.57008990000031,None,,,,,,,,,001,2022_May_23_1222,TMT_fmri,2021.2.3,59.98821831237917,
TMTstop-Control_1_1.xlsx,0:26,25,['1'],1,TMTstop-control_1_1linestimulus22.png,TMTstop-control_1_1greenlinestimulus22.png,TMTstop-control_1_1redlinestimulus22.png,TMT_Control,1,25,None,1,0,0,0,0,0,24,24,24,,,,,,,,,,,,,,,,,,,,,,,,,,,,,,,,,,,,,,,,,,,,,,,,,,,,,,,,,,,,,,,1,1,16.070906799999648,43.1952633999972,None,['1'],1,[0.5839833999998518],43.1952633999972,None,,,,,,,,,001,2022_May_23_1222,TMT_fmri,2021.2.3,59.98821831237917,
TMTstop-Control_1_1.xlsx,0:26,None,None,None,TMTstop-control_1_1linestimulus23.png,TMTstop-control_1_1greenlinestimulus23.png,TMTstop-control_1_1redlinestimulus23.png,TMT_Control,1,Feedback_last,None,1,0,0,0,0,0,25,25,25,,,,,,,,,,,,,,,,,,,,,,,,,,,,,,,,,,,,,,,,,,,,,,,,,,,,,,,,,,,,,,,1,1,,43.836428499998874,None,['2'],0,[0.5893758000020171],43.836428499998874,None,,,,,,,,,001,2022_May_23_1222,TMT_fmri,2021.2.3,59.98821831237917,
TMTstop-Control_1_2.xlsx,26:52,1,['2'],2,TMTstop-control_1_2.png,TMTstop-control_1_2.png,TMTstop-control_1_2.png,TMT_Control,2,26,None,1,0,1,1,1,0,0,0,0,,,,,,,,,,,,,,,,,,,,,,,,,,,,,,,,,,,,,,,,,,,,,,,,,,,,,,,,,,,,,,,1,1,20.92082990000199,48.06221820000064,None,['2'],1,[0.5600638999967487],48.06221820000064,None,,,,,,,,,001,2022_May_23_1222,TMT_fmri,2021.2.3,59.98821831237917,
TMTstop-Control_1_2.xlsx,26:52,2,['3'],3,TMTstop-control_1_2.png,TMTstop-control_1_2firstgreen.png,TMTstop-control_1_2firstred.png,TMT_Control,2,27,None,1,0,1,1,1,0,1,1,1,,,,,,,,,,,,,,,,,,,,,,,,,,,,,,,,,,,,,,,,,,,,,,,,,,,,,,,,,,,,,,,1,1,21.412783700005093,48.687344799996936,None,['3'],1,[0.4200397999957204],48.687344799996936,None,,,,,,,,,001,2022_May_23_1222,TMT_fmri,2021.2.3,59.98821831237917,
TMTstop-Control_1_2.xlsx,26:52,3,['2'],2,TMTstop-control_1_2linestimulus0.png,TMTstop-control_1_2greenlinestimulus0.png,TMTstop-control_1_2redlinestimulus0.png,TMT_Control,2,28,None,1,0,1,1,1,0,2,2,2,,,,,,,,,,,,,,,,,,,,,,,,,,,,,,,,,,,,,,,,,,,,,,,,,,,,,,,,,,,,,,,1,1,21.95482230000198,49.17893909999839,None,['2'],1,[0.4787228999994113],49.17893909999839,None,,,,,,,,,001,2022_May_23_1222,TMT_fmri,2021.2.3,59.98821831237917,
TMTstop-Control_1_2.xlsx,26:52,4,['3'],3,TMTstop-control_1_2linestimulus1.png,TMTstop-control_1_2greenlinestimulus1.png,TMTstop-control_1_2redlinestimulus1.png,TMT_Control,2,29,None,1,0,1,1,1,0,3,3,3,,,,,,,,,,,,,,,,,,,,,,,,,,,,,,,,,,,,,,,,,,,,,,,,,,,,,,,,,,,,,,,1,1,22.378782700005104,49.720638200000394,None,['3'],1,[0.35311840000213124],49.720638200000394,None,,,,,,,,,001,2022_May_23_1222,TMT_fmri,2021.2.3,59.98821831237917,
TMTstop-Control_1_2.xlsx,26:52,5,['2'],2,TMTstop-control_1_2linestimulus2.png,TMTstop-control_1_2greenlinestimulus2.png,TMTstop-control_1_2redlinestimulus2.png,TMT_Control,2,30,None,1,0,1,1,1,0,4,4,4,,,,,,,,,,,,,,,,,,,,,,,,,,,,,,,,,,,,,,,,,,,,,,,,,,,,,,,,,,,,,,,1,1,22.737817900000664,50.14544069999829,None,['2'],1,[0.28839069999958156],50.14544069999829,None,,,,,,,,,001,2022_May_23_1222,TMT_fmri,2021.2.3,59.98821831237917,
TMTstop-Control_1_2.xlsx,26:52,6,['3'],3,TMTstop-control_1_2linestimulus3.png,TMTstop-control_1_2greenlinestimulus3.png,TMTstop-control_1_2redlinestimulus3.png,TMT_Control,2,31,None,1,0,1,1,1,0,5,5,5,,,,,,,,,,,,,,,,,,,,,,,,,,,,,,,,,,,,,,,,,,,,,,,,,,,,,,,,,,,,,,,1,1,23.111784100001387,50.50369639999553,None,['3'],1,[0.3036162000062177],50.50369639999553,None,,,,,,,,,001,2022_May_23_1222,TMT_fmri,2021.2.3,59.98821831237917,
TMTstop-Control_1_2.xlsx,26:52,7,['2'],2,TMTstop-control_1_2linestimulus4.png,TMTstop-control_1_2greenlinestimulus4.png,TMTstop-control_1_2redlinestimulus4.png,TMT_Control,2,32,None,1,0,1,1,1,0,6,6,6,,,,,,,,,,,,,,,,,,,,,,,,,,,,,,,,,,,,,,,,,,,,,,,,,,,,,,,,,,,,,,,1,1,23.45393139999942,50.87848490000033,None,['2'],1,[0.284673300004215],50.87848490000033,None,,,,,,,,,001,2022_May_23_1222,TMT_fmri,2021.2.3,59.98821831237917,
TMTstop-Control_1_2.xlsx,26:52,8,['1'],1,TMTstop-control_1_2linestimulus4.png,TMTstop-control_1_2greenlinestimulus5.png,TMTstop-control_1_2redlinestimulus5.png,TMT_Control,2,33,None,1,0,1,1,1,0,7,7,7,,,,,,,,,,,,,,,,,,,,,,,,,,,,,,,,,,,,,,,,,,,,,,,,,,,,,,,,,,,,,,,1,1,24.062501799999154,51.220625299996755,None,['1'],1,[0.5384386000005179],51.220625299996755,None,,,,,,,,,001,2022_May_23_1222,TMT_fmri,2021.2.3,59.98821831237917,
TMTstop-Control_1_2.xlsx,26:52,9,['3'],3,TMTstop-control_1_2linestimulus6.png,TMTstop-control_1_2greenlinestimulus6.png,TMTstop-control_1_2redlinestimulus6.png,TMT_Control,2,34,None,1,0,1,1,1,0,8,8,8,,,,,,,,,,,,,,,,,,,,,,,,,,,,,,,,,,,,,,,,,,,,,,,,,,,,,,,,,,,,,,,1,1,24.504500499999267,51.829027899999346,None,['3'],1,[0.37664280000171857],51.829027899999346,None,,,,,,,,,001,2022_May_23_1222,TMT_fmri,2021.2.3,59.98821831237917,
TMTstop-Control_1_2.xlsx,26:52,10,['2'],2,TMTstop-control_1_2linestimulus7.png,TMTstop-control_1_2greenlinestimulus7.png,TMTstop-control_1_2redlinestimulus7.png,TMT_Control,2,35,None,1,0,1,1,1,0,9,9,9,,,,,,,,,,,,,,,,,,,,,,,,,,,,,,,,,,,,,,,,,,,,,,,,,,,,,,,,,,,,,,,1,1,24.89854980000382,52.270620399998734,None,['2'],1,[0.3329623999961768],52.270620399998734,None,,,,,,,,,001,2022_May_23_1222,TMT_fmri,2021.2.3,59.98821831237917,
TMTstop-Control_1_2.xlsx,26:52,11,['3'],3,TMTstop-control_1_2linestimulus8.png,TMTstop-control_1_2greenlinestimulus8.png,TMTstop-control_1_2redlinestimulus8.png,TMT_Control,2,36,None,1,0,1,1,1,0,10,10,10,,,,,,,,,,,,,,,,,,,,,,,,,,,,,,,,,,,,,,,,,,,,,,,,,,,,,,,,,,,,,,,1,1,25.323501800005033,52.666273900002125,None,['3'],1,[0.3540084000051138],52.666273900002125,None,,,,,,,,,001,2022_May_23_1222,TMT_fmri,2021.2.3,59.98821831237917,
TMTstop-Control_1_2.xlsx,26:52,12,['2'],2,TMTstop-control_1_2linestimulus9.png,TMTstop-control_1_2greenlinestimulus9.png,TMTstop-control_1_2redlinestimulus9.png,TMT_Control,2,37,None,1,0,1,1,1,0,11,11,11,,,,,,,,,,,,,,,,,,,,,,,,,,,,,,,,,,,,,,,,,,,,,,,,,,,,,,,,,,,,,,,1,1,25.765501500005485,53.08981219999987,None,['2'],1,[0.37170130000595236],53.08981219999987,None,,,,,,,,,001,2022_May_23_1222,TMT_fmri,2021.2.3,59.98821831237917,
TMTstop-Control_1_2.xlsx,26:52,13,['3'],3,TMTstop-control_1_2linestimulus10.png,TMTstop-control_1_2greenlinestimulus10.png,TMTstop-control_1_2redlinestimulus10.png,TMT_Control,2,38,None,1,0,1,1,1,0,12,12,12,,,,,,,,,,,,,,,,,,,,,,,,,,,,,,,,,,,,,,,,,,,,,,,,,,,,,,,,,,,,,,,1,1,26.172911000001477,53.53141170000163,None,['3'],1,[0.345151800000167],53.53141170000163,None,,,,,,,,,001,2022_May_23_1222,TMT_fmri,2021.2.3,59.98821831237917,
TMTstop-Control_1_2.xlsx,26:52,14,['2'],2,TMTstop-control_1_2linestimulus11.png,TMTstop-control_1_2greenlinestimulus11.png,TMTstop-control_1_2redlinestimulus11.png,TMT_Control,2,39,None,1,0,1,1,1,0,13,13,13,,,,,,,,,,,,,,,,,,,,,,,,,,,,,,,,,,,,,,,,,,,,,,,,,,,,,,,,,,,,,,,1,1,26.59785450000345,53.93960779999907,None,['2'],1,[0.3598213000004762],53.93960779999907,None,,,,,,,,,001,2022_May_23_1222,TMT_fmri,2021.2.3,59.98821831237917,
TMTstop-Control_1_2.xlsx,26:52,15,['3'],3,TMTstop-control_1_2linestimulus12.png,TMTstop-control_1_2greenlinestimulus12.png,TMTstop-control_1_2redlinestimulus12.png,TMT_Control,2,40,None,1,0,1,1,1,0,14,14,14,,,,,,,,,,,,,,,,,,,,,,,,,,,,,,,,,,,,,,,,,,,,,,,,,,,,,,,,,,,,,,,1,1,27.10666019999917,54.36451410000154,None,['3'],1,[0.4436215000023367],54.36451410000154,None,,,,,,,,,001,2022_May_23_1222,TMT_fmri,2021.2.3,59.98821831237917,
TMTstop-Control_1_2.xlsx,26:52,16,['1'],1,TMTstop-control_1_2linestimulus13.png,TMTstop-control_1_2greenlinestimulus13.png,TMTstop-control_1_2redlinestimulus13.png,TMT_Control,2,41,None,1,0,1,1,1,0,15,15,15,,,,,,,,,,,,,,,,,,,,,,,,,,,,,,,,,,,,,,,,,,,,,,,,,,,,,,,,,,,,,,,1,1,27.581851700000698,54.87283429999661,None,['1'],1,[0.4106149999934132],54.87283429999661,None,,,,,,,,,001,2022_May_23_1222,TMT_fmri,2021.2.3,59.98821831237917,
TMTstop-Control_1_2.xlsx,26:52,17,['2'],2,TMTstop-control_1_2linestimulus14.png,TMTstop-control_1_2greenlinestimulus14.png,TMTstop-control_1_2redlinestimulus14.png,TMT_Control,2,42,None,1,0,1,1,1,0,16,16,16,,,,,,,,,,,,,,,,,,,,,,,,,,,,,,,,,,,,,,,,,,,,,,,,,,,,,,,,,,,,,,,1,1,28.022877499999595,55.347732299997006,None,['2'],1,[0.3752690000037546],55.347732299997006,None,,,,,,,,,001,2022_May_23_1222,TMT_fmri,2021.2.3,59.98821831237917,
TMTstop-Control_1_2.xlsx,26:52,18,['1'],1,TMTstop-control_1_2linestimulus15.png,TMTstop-control_1_2greenlinestimulus15.png,TMTstop-control_1_2redlinestimulus15.png,TMT_Control,2,43,None,1,0,1,1,1,0,17,17,17,,,,,,,,,,,,,,,,,,,,,,,,,,,,,,,,,,,,,,,,,,,,,,,,,,,,,,,,,,,,,,,1,1,28.614934700002777,55.78945859999658,None,['1'],1,[0.5284828000003472],55.78945859999658,None,,,,,,,,,001,2022_May_23_1222,TMT_fmri,2021.2.3,59.98821831237917,
TMTstop-Control_1_2.xlsx,26:52,19,['2'],2,TMTstop-control_1_2linestimulus16.png,TMTstop-control_1_2greenlinestimulus16.png,TMTstop-control_1_2redlinestimulus16.png,TMT_Control,2,44,None,1,0,1,1,1,0,18,18,18,,,,,,,,,,,,,,,,,,,,,,,,,,,,,,,,,,,,,,,,,,,,,,,,,,,,,,,,,,,,,,,1,1,29.006778900002246,56.38052559999778,None,['2'],1,[0.32451250000303844],56.38052559999778,None,,,,,,,,,001,2022_May_23_1222,TMT_fmri,2021.2.3,59.98821831237917,
TMTstop-Control_1_2.xlsx,26:52,20,['3'],3,TMTstop-control_1_2linestimulus17.png,TMTstop-control_1_2greenlinestimulus17.png,TMTstop-control_1_2redlinestimulus17.png,TMT_Control,2,45,None,1,0,1,1,1,0,19,19,19,,,,,,,,,,,,,,,,,,,,,,,,,,,,,,,,,,,,,,,,,,,,,,,,,,,,,,,,,,,,,,,1,1,29.48175489999994,56.77268609999737,None,['3'],1,[0.4122318000008818],56.77268609999737,None,,,,,,,,,001,2022_May_23_1222,TMT_fmri,2021.2.3,59.98821831237917,
TMTstop-Control_1_2.xlsx,26:52,21,['1'],1,TMTstop-control_1_2linestimulus18.png,TMTstop-control_1_2greenlinestimulus18.png,TMTstop-control_1_2redlinestimulus18.png,TMT_Control,2,46,None,1,0,1,1,1,0,20,20,20,,,,,,,,,,,,,,,,,,,,,,,,,,,,,,,,,,,,,,,,,,,,,,,,,,,,,,,,,,,,,,,1,1,29.939612000001944,57.24760149999929,None,['1'],1,[0.4010217000031844],57.24760149999929,None,,,,,,,,,001,2022_May_23_1222,TMT_fmri,2021.2.3,59.98821831237917,
TMTstop-Control_1_2.xlsx,26:52,22,['3'],3,TMTstop-control_1_2linestimulus19.png,TMTstop-control_1_2greenlinestimulus19.png,TMTstop-control_1_2redlinestimulus19.png,TMT_Control,2,47,None,1,0,1,1,1,0,21,21,21,,,,,,,,,,,,,,,,,,,,,,,,,,,,,,,,,,,,,,,,,,,,,,,,,,,,,,,,,,,,,,,1,1,30.38175020000199,57.70587069999601,None,['3'],1,[0.373798300002818],57.70587069999601,None,,,,,,,,,001,2022_May_23_1222,TMT_fmri,2021.2.3,59.98821831237917,
TMTstop-Control_1_2.xlsx,26:52,23,['2'],2,TMTstop-control_1_2linestimulus20.png,TMTstop-control_1_2greenlinestimulus20.png,TMTstop-control_1_2redlinestimulus20.png,TMT_Control,2,48,None,1,0,1,1,1,0,22,22,22,,,,,,,,,,,,,,,,,,,,,,,,,,,,,,,,,,,,,,,,,,,,,,,,,,,,,,,,,,,,,,,1,1,30.82262040000205,58.14745379999658,None,['2'],1,[0.3708914000017103],58.14745379999658,None,,,,,,,,,001,2022_May_23_1222,TMT_fmri,2021.2.3,59.98821831237917,
TMTstop-Control_1_2.xlsx,26:52,24,['3'],3,TMTstop-control_1_2linestimulus21.png,TMTstop-control_1_2greenlinestimulus21.png,TMTstop-control_1_2redlinestimulus21.png,TMT_Control,2,49,None,1,0,1,1,1,0,23,23,23,,,,,,,,,,,,,,,,,,,,,,,,,,,,,,,,,,,,,,,,,,,,,,,,,,,,,,,,,,,,,,,1,1,31.280753900005948,58.589927799999714,None,['3'],1,[0.3992441000009421],58.589927799999714,None,,,,,,,,,001,2022_May_23_1222,TMT_fmri,2021.2.3,59.98821831237917,
TMTstop-Control_1_2.xlsx,26:52,25,['1'],1,TMTstop-control_1_2linestimulus22.png,TMTstop-control_1_2greenlinestimulus22.png,TMTstop-control_1_2redlinestimulus22.png,TMT_Control,2,50,None,1,0,1,1,1,0,24,24,24,,,,,,,,,,,,,,,,,,,,,,,,,,,,,,,,,,,,,,,,,,,,,,,,,,,,,,,,,,,,,,,1,1,31.805749500003003,59.04729689999658,None,['1'],1,[0.46460059999662917],59.04729689999658,None,,,,,,,,,001,2022_May_23_1222,TMT_fmri,2021.2.3,59.98821831237917,
TMTstop-Control_1_2.xlsx,26:52,None,None,None,TMTstop-control_1_2linestimulus23.png,TMTstop-control_1_2greenlinestimulus23.png,TMTstop-control_1_2redlinestimulus23.png,TMT_Control,2,Feedback_last,None,1,0,1,1,1,0,25,25,25,,,,,,,,,,,,,,,,,,,,,,,,,,,,,,,,,,,,,,,,,,,,,,,,,,,,,,,,,,,,,,,0,0,,59.57227399999829,None,None,1,,59.57227399999829,None,,,,,,,,,001,2022_May_23_1222,TMT_fmri,2021.2.3,59.98821831237917,
TMTstop-A_1_1.xlsx,0:26,1,['1'],1,TMTstop-A_1_1.png,TMTstop-A_1_1.png,TMTstop-A_1_1.png,TMT_A,1,1,1,2,,,,,,,,,0,0,0,0,0,0,0,0,,,,,,,,,,,,,,,,,,,,,,,,,,,,,,,,,,,,,,,,,,,,,,,,,,,,,,,1,1,46.93742470000143,,,,,,,,73.6616303999981,None,['1'],1,[0.9854221999994479],73.6616303999981,None,,001,2022_May_23_1222,TMT_fmri,2021.2.3,59.98821831237917,
TMTstop-A_1_1.xlsx,0:26,2,['3'],3,TMTstop-A_1_1.png,TMTstop-A_1_1firstgreen.png,TMTstop-A_1_1firstred.png,TMT_A,1,2,None,2,,,,,,,,,0,0,0,0,0,1,1,1,,,,,,,,,,,,,,,,,,,,,,,,,,,,,,,,,,,,,,,,,,,,,,,,,,,,,,,1,1,47.245529600004375,,,,,,,,74.70400159999554,None,['3'],1,[0.23708590000023833],74.70400159999554,None,,001,2022_May_23_1222,TMT_fmri,2021.2.3,59.98821831237917,
TMTstop-A_1_1.xlsx,0:26,3,['1'],1,TMTstop-A_1_1linestimulus0.png,TMTstop-A_1_1greenlinestimulus0.png,TMTstop-A_1_1redlinestimulus0.png,TMT_A,1,3,None,2,,,,,,,,,0,0,0,0,0,2,2,2,,,,,,,,,,,,,,,,,,,,,,,,,,,,,,,,,,,,,,,,,,,,,,,,,,,,,,,1,1,47.420554000003904,,,,,,,,75.01184320000175,None,['1'],1,[0.10843670000031125],75.01184320000175,None,,001,2022_May_23_1222,TMT_fmri,2021.2.3,59.98821831237917,
TMTstop-A_1_1.xlsx,0:26,4,['3'],3,TMTstop-A_1_1linestimulus1.png,TMTstop-A_1_1greenlinestimulus1.png,TMTstop-A_1_1redlinestimulus1.png,TMT_A,1,4,None,2,,,,,,,,,0,0,0,0,0,3,3,3,,,,,,,,,,,,,,,,,,,,,,,,,,,,,,,,,,,,,,,,,,,,,,,,,,,,,,,2,0,47.66857820000587,,,,,,,,75.18667160000041,None,"['2', '3']",1,"[0.027294500003335997, 0.18395260000397684]",75.18667160000041,None,,001,2022_May_23_1222,TMT_fmri,2021.2.3,59.98821831237917,
TMTstop-A_1_1.xlsx,0:26,5,['1'],1,TMTstop-A_1_1linestimulus2.png,TMTstop-A_1_1greenlinestimulus2.png,TMTstop-A_1_1redlinestimulus2.png,TMT_A,1,5,None,2,,,,,,,,,0,0,0,0,0,4,4,4,,,,,,,,,,,,,,,,,,,,,,,,,,,,,,,,,,,,,,,,,,,,,,,,,,,,,,,1,1,48.69414740000502,,,,,,,,75.43337800000154,None,['1'],1,[0.9590967999974964],75.43337800000154,None,,001,2022_May_23_1222,TMT_fmri,2021.2.3,59.98821831237917,
TMTstop-A_1_1.xlsx,0:26,6,['3'],3,TMTstop-A_1_1linestimulus3.png,TMTstop-A_1_1greenlinestimulus3.png,TMTstop-A_1_1redlinestimulus3.png,TMT_A,1,6,None,2,,,,,,,,,0,0,0,0,0,5,5,5,,,,,,,,,,,,,,,,,,,,,,,,,,,,,,,,,,,,,,,,,,,,,,,,,,,,,,,2,0,48.941557800004375,,,,,,,,76.46074219999718,None,"['2', '3']",1,"[0.031101200002012774, 0.14557980000245152]",76.46074219999718,None,,001,2022_May_23_1222,TMT_fmri,2021.2.3,59.98821831237917,
TMTstop-A_1_1.xlsx,0:26,7,['1'],1,TMTstop-A_1_1linestimulus4.png,TMTstop-A_1_1greenlinestimulus4.png,TMTstop-A_1_1redlinestimulus4.png,TMT_A,1,7,None,2,,,,,,,,,0,0,0,0,0,6,6,6,,,,,,,,,,,,,,,,,,,,,,,,,,,,,,,,,,,,,,,,,,,,,,,,,,,,,,,1,1,49.0655998000002,,,,,,,,76.70720630000142,None,['1'],1,[0.061765600003127474],76.70720630000142,None,,001,2022_May_23_1222,TMT_fmri,2021.2.3,59.98821831237917,
TMTstop-A_1_1.xlsx,0:26,8,['2'],2,TMTstop-A_1_1linestimulus5.png,TMTstop-A_1_1greenlinestimulus5.png,TMTstop-A_1_1redlinestimulus5.png,TMT_A,1,8,None,2,,,,,,,,,0,0,0,0,0,7,7,7,,,,,,,,,,,,,,,,,,,,,,,,,,,,,,,,,,,,,,,,,,,,,,,,,,,,,,,1,1,49.116054500002065,,,,,,,,76.82446540000092,None,['2'],1,[-0.014382800000021234],76.82446540000092,None,,001,2022_May_23_1222,TMT_fmri,2021.2.3,59.98821831237917,
TMTstop-A_1_1.xlsx,0:26,9,['3'],3,TMTstop-A_1_1linestimulus6.png,TMTstop-A_1_1greenlinestimulus6.png,TMTstop-A_1_1redlinestimulus6.png,TMT_A,1,9,None,2,,,,,,,,,0,0,0,0,0,8,8,8,,,,,,,,,,,,,,,,,,,,,,,,,,,,,,,,,,,,,,,,,,,,,,,,,,,,,,,1,1,49.23953220000112,,,,,,,,76.88142499999958,None,['3'],1,[0.06426530000317143],76.88142499999958,None,,001,2022_May_23_1222,TMT_fmri,2021.2.3,59.98821831237917,
TMTstop-A_1_1.xlsx,0:26,10,['1'],1,TMTstop-A_1_1linestimulus7.png,TMTstop-A_1_1greenlinestimulus7.png,TMTstop-A_1_1redlinestimulus7.png,TMT_A,1,10,None,2,,,,,,,,,0,0,0,0,0,9,9,9,,,,,,,,,,,,,,,,,,,,,,,,,,,,,,,,,,,,,,,,,,,,,,,,,,,,,,,1,1,49.38965490000555,,,,,,,,76.9981786999997,None,['1'],1,[0.09109059999900637],76.9981786999997,None,,001,2022_May_23_1222,TMT_fmri,2021.2.3,59.98821831237917,
TMTstop-A_1_1.xlsx,0:26,11,['3'],3,TMTstop-A_1_1linestimulus8.png,TMTstop-A_1_1greenlinestimulus8.png,TMTstop-A_1_1redlinestimulus8.png,TMT_A,1,11,None,2,,,,,,,,,0,0,0,0,0,10,10,10,,,,,,,,,,,,,,,,,,,,,,,,,,,,,,,,,,,,,,,,,,,,,,,,,,,,,,,2,0,49.602656100003514,,,,,,,,77.1478158999962,None,"['2', '3']",1,"[-0.007675600005313754, 0.11334669999632752]",77.1478158999962,None,,001,2022_May_23_1222,TMT_fmri,2021.2.3,59.98821831237917,
TMTstop-A_1_1.xlsx,0:26,12,['2'],2,TMTstop-A_1_1linestimulus9.png,TMTstop-A_1_1greenlinestimulus9.png,TMTstop-A_1_1redlinestimulus9.png,TMT_A,1,12,None,2,,,,,,,,,0,0,0,0,0,11,11,11,,,,,,,,,,,,,,,,,,,,,,,,,,,,,,,,,,,,,,,,,,,,,,,,,,,,,,,2,0,49.80263550000382,,,,,,,,77.36066230000142,None,"['1', '2']",1,"[0.04709200000070268, 0.10625839999556774]",77.36066230000142,None,,001,2022_May_23_1222,TMT_fmri,2021.2.3,59.98821831237917,
TMTstop-A_1_1.xlsx,0:26,13,['1'],1,TMTstop-A_1_1linestimulus10.png,TMTstop-A_1_1greenlinestimulus10.png,TMTstop-A_1_1redlinestimulus10.png,TMT_A,1,13,None,2,,,,,,,,,0,0,0,0,0,12,12,12,,,,,,,,,,,,,,,,,,,,,,,,,,,,,,,,,,,,,,,,,,,,,,,,,,,,,,,2,0,50.05277560000104,,,,,,,,77.56092239999998,None,"['3', '1']",1,"[0.02666519999911543, 0.1877424999984214]",77.56092239999998,None,,001,2022_May_23_1222,TMT_fmri,2021.2.3,59.98821831237917,
TMTstop-A_1_1.xlsx,0:26,14,['2'],2,TMTstop-A_1_1linestimulus11.png,TMTstop-A_1_1greenlinestimulus11.png,TMTstop-A_1_1redlinestimulus11.png,TMT_A,1,14,None,2,,,,,,,,,0,0,0,0,0,13,13,13,,,,,,,,,,,,,,,,,,,,,,,,,,,,,,,,,,,,,,,,,,,,,,,,,,,,,,,1,1,50.102632000001904,,,,,,,,77.81101179999678,None,['2'],1,[-0.02227189999393886],77.81101179999678,None,,001,2022_May_23_1222,TMT_fmri,2021.2.3,59.98821831237917,
TMTstop-A_1_1.xlsx,0:26,15,['1'],1,TMTstop-A_1_1linestimulus12.png,TMTstop-A_1_1greenlinestimulus12.png,TMTstop-A_1_1redlinestimulus12.png,TMT_A,1,15,None,2,,,,,,,,,0,0,0,0,0,14,14,14,,,,,,,,,,,,,,,,,,,,,,,,,,,,,,,,,,,,,,,,,,,,,,,,,,,,,,,2,0,50.39663730000029,,,,,,,,77.8612348999959,None,"['3', '1']",1,"[0.0697063999978127, 0.2205277999964892]",77.8612348999959,None,,001,2022_May_23_1222,TMT_fmri,2021.2.3,59.98821831237917,
TMTstop-A_1_1.xlsx,0:26,16,['2'],2,TMTstop-A_1_1linestimulus13.png,TMTstop-A_1_1greenlinestimulus13.png,TMTstop-A_1_1redlinestimulus13.png,TMT_A,1,16,None,2,,,,,,,,,0,0,0,0,0,15,15,15,,,,,,,,,,,,,,,,,,,,,,,,,,,,,,,,,,,,,,,,,,,,,,,,,,,,,,,1,1,50.44773200000054,,,,,,,,78.15572889999748,None,['2'],1,[-0.009190600001602434],78.15572889999748,None,,001,2022_May_23_1222,TMT_fmri,2021.2.3,59.98821831237917,
TMTstop-A_1_1.xlsx,0:26,17,['1'],1,TMTstop-A_1_1linestimulus14.png,TMTstop-A_1_1greenlinestimulus14.png,TMTstop-A_1_1redlinestimulus14.png,TMT_A,1,17,None,2,,,,,,,,,0,0,0,0,0,16,16,16,,,,,,,,,,,,,,,,,,,,,,,,,,,,,,,,,,,,,,,,,,,,,,,,,,,,,,,2,0,50.69765929999994,,,,,,,,78.20572729999549,None,"['3', '1']",1,"[0.04518890000326792, 0.19501570000284119]",78.20572729999549,None,,001,2022_May_23_1222,TMT_fmri,2021.2.3,59.98821831237917,
TMTstop-A_1_1.xlsx,0:26,18,['3'],3,TMTstop-A_1_1linestimulus15.png,TMTstop-A_1_1greenlinestimulus15.png,TMTstop-A_1_1redlinestimulus15.png,TMT_A,1,18,None,2,,,,,,,,,0,0,0,0,0,17,17,17,,,,,,,,,,,,,,,,,,,,,,,,,,,,,,,,,,,,,,,,,,,,,,,,,,,,,,,2,0,50.92121930000576,,,,,,,,78.45613059999596,None,"['2', '3']",1,"[0.01795480000146199, 0.14616220000607427]",78.45613059999596,None,,001,2022_May_23_1222,TMT_fmri,2021.2.3,59.98821831237917,
TMTstop-A_1_1.xlsx,0:26,19,['2'],2,TMTstop-A_1_1linestimulus16.png,TMTstop-A_1_1greenlinestimulus16.png,TMTstop-A_1_1redlinestimulus16.png,TMT_A,1,19,None,2,,,,,,,,,0,0,0,0,0,18,18,18,,,,,,,,,,,,,,,,,,,,,,,,,,,,,,,,,,,,,,,,,,,,,,,,,,,,,,,2,0,51.10526840000239,,,,,,,,78.67951319999702,None,"['1', '2']",1,"[0.07083979999879375, 0.12014620000263676]",78.67951319999702,None,,001,2022_May_23_1222,TMT_fmri,2021.2.3,59.98821831237917,
TMTstop-A_1_1.xlsx,0:26,20,['3'],3,TMTstop-A_1_1linestimulus17.png,TMTstop-A_1_1greenlinestimulus17.png,TMTstop-A_1_1redlinestimulus17.png,TMT_A,1,20,None,2,,,,,,,,,0,0,0,0,0,19,19,19,,,,,,,,,,,,,,,,,,,,,,,,,,,,,,,,,,,,,,,,,,,,,,,,,,,,,,,1,1,51.23813570000493,,,,,,,,78.86308570000256,None,['3'],1,[0.0847769000029075],78.86308570000256,None,,001,2022_May_23_1222,TMT_fmri,2021.2.3,59.98821831237917,
TMTstop-A_1_1.xlsx,0:26,21,['1'],1,TMTstop-A_1_1linestimulus18.png,TMTstop-A_1_1greenlinestimulus18.png,TMTstop-A_1_1redlinestimulus18.png,TMT_A,1,21,None,2,,,,,,,,,0,0,0,0,0,20,20,20,,,,,,,,,,,,,,,,,,,,,,,,,,,,,,,,,,,,,,,,,,,,,,,,,,,,,,,1,1,51.371389500003716,,,,,,,,78.9965508000023,None,['1'],1,[0.0817691999982344],78.9965508000023,None,,001,2022_May_23_1222,TMT_fmri,2021.2.3,59.98821831237917,
TMTstop-A_1_1.xlsx,0:26,22,['3'],3,TMTstop-A_1_1linestimulus19.png,TMTstop-A_1_1greenlinestimulus19.png,TMTstop-A_1_1redlinestimulus19.png,TMT_A,1,22,None,2,,,,,,,,,0,0,0,0,0,21,21,21,,,,,,,,,,,,,,,,,,,,,,,,,,,,,,,,,,,,,,,,,,,,,,,,,,,,,,,2,0,51.59280860000581,,,,,,,,79.13791099999798,None,"['2', '3']",1,"[-0.0004562999965855852, 0.13442200000281446]",79.13791099999798,None,,001,2022_May_23_1222,TMT_fmri,2021.2.3,59.98821831237917,
TMTstop-A_1_1.xlsx,0:26,23,['1'],1,TMTstop-A_1_1linestimulus20.png,TMTstop-A_1_1greenlinestimulus20.png,TMTstop-A_1_1redlinestimulus20.png,TMT_A,1,23,None,2,,,,,,,,,0,0,0,0,0,22,22,22,,,,,,,,,,,,,,,,,,,,,,,,,,,,,,,,,,,,,,,,,,,,,,,,,,,,,,,1,1,51.7266896000001,,,,,,,,79.35079229999974,None,['1'],1,[0.08123650000197813],79.35079229999974,None,,001,2022_May_23_1222,TMT_fmri,2021.2.3,59.98821831237917,
TMTstop-A_1_1.xlsx,0:26,24,['3'],3,TMTstop-A_1_1linestimulus21.png,TMTstop-A_1_1greenlinestimulus21.png,TMTstop-A_1_1redlinestimulus21.png,TMT_A,1,24,None,2,,,,,,,,,0,0,0,0,0,23,23,23,,,,,,,,,,,,,,,,,,,,,,,,,,,,,,,,,,,,,,,,,,,,,,,,,,,,,,,2,0,51.93838279999909,,,,,,,,79.48464769999555,None,"['2', '3']",1,"[-0.009549499998684041, 0.14056669999990845]",79.48464769999555,None,,001,2022_May_23_1222,TMT_fmri,2021.2.3,59.98821831237917,
TMTstop-A_1_1.xlsx,0:26,25,['1'],1,TMTstop-A_1_1linestimulus22.png,TMTstop-A_1_1greenlinestimulus22.png,TMTstop-A_1_1redlinestimulus22.png,TMT_A,1,25,None,2,,,,,,,,,0,0,0,0,0,24,24,24,,,,,,,,,,,,,,,,,,,,,,,,,,,,,,,,,,,,,,,,,,,,,,,,,,,,,,,1,1,52.07138500000292,,,,,,,,79.69643930000166,None,['1'],1,[0.0689903000020422],79.69643930000166,None,,001,2022_May_23_1222,TMT_fmri,2021.2.3,59.98821831237917,
TMTstop-A_1_1.xlsx,0:26,None,None,None,TMTstop-A_1_1linestimulus23.png,TMTstop-A_1_1greenlinestimulus23.png,TMTstop-A_1_1redlinestimulus23.png,TMT_A,1,Feedback_last,None,2,,,,,,,,,0,0,0,0,0,25,25,25,,,,,,,,,,,,,,,,,,,,,,,,,,,,,,,,,,,,,,,,,,,,,,,,,,,,,,,7,0,,,,,,,,,79.82951630000025,None,"['2', '3', '1', '2', '3', '1', '2']",0,"[-0.01801770000020042, 0.12098369999876013, 0.273878700005298, 0.31540469999890774, 0.4838302999996813, 0.6385092999989865, 0.6959770000030403]",79.82951630000025,None,,001,2022_May_23_1222,TMT_fmri,2021.2.3,59.98821831237917,
TMTstop-A_1_2.xlsx,26:52,1,['1'],1,TMTstop-A_1_2.png,TMTstop-A_1_2.png,TMTstop-A_1_2.png,TMT_A,2,26,None,2,,,,,,,,,0,1,1,1,0,0,0,0,,,,,,,,,,,,,,,,,,,,,,,,,,,,,,,,,,,,,,,,,,,,,,,,,,,,,,,1,1,61.924304400003166,,,,,,,,83.99221029999899,None,['1'],1,[5.632891900000686],83.99221029999899,None,,001,2022_May_23_1222,TMT_fmri,2021.2.3,59.98821831237917,
TMTstop-A_1_2.xlsx,26:52,2,['3'],3,TMTstop-A_1_2.png,TMTstop-A_1_2firstgreen.png,TMTstop-A_1_2firstred.png,TMT_A,2,27,None,2,,,,,,,,,0,1,1,1,0,1,1,1,,,,,,,,,,,,,,,,,,,,,,,,,,,,,,,,,,,,,,,,,,,,,,,,,,,,,,,2,0,62.17138410000189,,,,,,,,89.68998750000173,None,"['2', '3']",1,"[0.10122820000106003, 0.1808493999997154]",89.68998750000173,None,,001,2022_May_23_1222,TMT_fmri,2021.2.3,59.98821831237917,
TMTstop-A_1_2.xlsx,26:52,3,['1'],1,TMTstop-A_1_2linestimulus0.png,TMTstop-A_1_2greenlinestimulus0.png,TMTstop-A_1_2redlinestimulus0.png,TMT_A,2,28,None,2,,,,,,,,,0,1,1,1,0,2,2,2,,,,,,,,,,,,,,,,,,,,,,,,,,,,,,,,,,,,,,,,,,,,,,,,,,,,,,,1,1,62.40529690000403,,,,,,,,89.9298073999962,None,['1'],1,[0.17469019999407465],89.9298073999962,None,,001,2022_May_23_1222,TMT_fmri,2021.2.3,59.98821831237917,
TMTstop-A_1_2.xlsx,26:52,4,['2'],2,TMTstop-A_1_2linestimulus1.png,TMTstop-A_1_2greenlinestimulus1.png,TMTstop-A_1_2redlinestimulus1.png,TMT_A,2,29,None,2,,,,,,,,,0,1,1,1,0,3,3,3,,,,,,,,,,,,,,,,,,,,,,,,,,,,,,,,,,,,,,,,,,,,,,,,,,,,,,,1,1,62.47942719999992,,,,,,,,90.17120889999933,None,['2'],1,[0.006613500001549255],90.17120889999933,None,,001,2022_May_23_1222,TMT_fmri,2021.2.3,59.98821831237917,
TMTstop-A_1_2.xlsx,26:52,5,['1'],1,TMTstop-A_1_2linestimulus2.png,TMTstop-A_1_2greenlinestimulus2.png,TMTstop-A_1_2redlinestimulus2.png,TMT_A,2,30,None,2,,,,,,,,,0,1,1,1,0,4,4,4,,,,,,,,,,,,,,,,,,,,,,,,,,,,,,,,,,,,,,,,,,,,,,,,,,,,,,,5,0,63.13302500000282,,,,,,,,90.23786680000194,None,"['3', '1', '2', '3', '1']",1,"[0.07027519999974174, 0.25255769999785116, 0.28783760000078473, 0.4265783000009833, 0.5956701999966754]",90.23786680000194,None,,001,2022_May_23_1222,TMT_fmri,2021.2.3,59.98821831237917,
TMTstop-A_1_2.xlsx,26:52,6,['3'],3,TMTstop-A_1_2linestimulus3.png,TMTstop-A_1_2greenlinestimulus3.png,TMTstop-A_1_2redlinestimulus3.png,TMT_A,2,31,None,2,,,,,,,,,0,1,1,1,0,5,5,5,,,,,,,,,,,,,,,,,,,,,,,,,,,,,,,,,,,,,,,,,,,,,,,,,,,,,,,2,0,63.334861200004525,,,,,,,,90.89119389999541,None,"['2', '3']",1,"[-0.0301952000008896, 0.1065290999977151]",90.89119389999541,None,,001,2022_May_23_1222,TMT_fmri,2021.2.3,59.98821831237917,
TMTstop-A_1_2.xlsx,26:52,7,['2'],2,TMTstop-A_1_2linestimulus4.png,TMTstop-A_1_2greenlinestimulus4.png,TMTstop-A_1_2redlinestimulus4.png,TMT_A,2,32,None,2,,,,,,,,,0,1,1,1,0,6,6,6,,,,,,,,,,,,,,,,,,,,,,,,,,,,,,,,,,,,,,,,,,,,,,,,,,,,,,,2,0,63.518915200002084,,,,,,,,91.09348209999735,None,"['1', '2']",1,"[0.0757242000036058, 0.10768839999946067]",91.09348209999735,None,,001,2022_May_23_1222,TMT_fmri,2021.2.3,59.98821831237917,
TMTstop-A_1_2.xlsx,26:52,8,['1'],1,TMTstop-A_1_2linestimulus5.png,TMTstop-A_1_2greenlinestimulus5.png,TMTstop-A_1_2redlinestimulus5.png,TMT_A,2,33,None,2,,,,,,,,,0,1,1,1,0,7,7,7,,,,,,,,,,,,,,,,,,,,,,,,,,,,,,,,,,,,,,,,,,,,,,,,,,,,,,,2,0,63.83151650000218,,,,,,,,91.2775146999993,None,"['3', '1']",1,"[0.05442800000309944, 0.2244420999995782]",91.2775146999993,None,,001,2022_May_23_1222,TMT_fmri,2021.2.3,59.98821831237917,
TMTstop-A_1_2.xlsx,26:52,9,['3'],3,TMTstop-A_1_2linestimulus6.png,TMTstop-A_1_2greenlinestimulus6.png,TMTstop-A_1_2redlinestimulus6.png,TMT_A,2,34,None,2,,,,,,,,,0,1,1,1,0,8,8,8,,,,,,,,,,,,,,,,,,,,,,,,,,,,,,,,,,,,,,,,,,,,,,,,,,,,,,,2,0,64.03216239999892,,,,,,,,91.58955759999662,None,"['2', '3']",1,"[-0.01797719999740366, 0.12045840000064345]",91.58955759999662,None,,001,2022_May_23_1222,TMT_fmri,2021.2.3,59.98821831237917,
TMTstop-A_1_2.xlsx,26:52,10,['2'],2,TMTstop-A_1_2linestimulus7.png,TMTstop-A_1_2greenlinestimulus7.png,TMTstop-A_1_2redlinestimulus7.png,TMT_A,2,35,None,2,,,,,,,,,0,1,1,1,0,9,9,9,,,,,,,,,,,,,,,,,,,,,,,,,,,,,,,,,,,,,,,,,,,,,,,,,,,,,,,2,0,64.23213470000337,,,,,,,,91.78995779999968,None,"['1', '2']",1,"[0.09143210000183899, 0.12911570000142092]",91.78995779999968,None,,001,2022_May_23_1222,TMT_fmri,2021.2.3,59.98821831237917,
TMTstop-A_1_2.xlsx,26:52,11,['1'],1,TMTstop-A_1_2linestimulus8.png,TMTstop-A_1_2greenlinestimulus8.png,TMTstop-A_1_2redlinestimulus8.png,TMT_A,2,36,None,2,,,,,,,,,0,1,1,1,0,10,10,10,,,,,,,,,,,,,,,,,,,,,,,,,,,,,,,,,,,,,,,,,,,,,,,,,,,,,,,2,0,64.53715799999918,,,,,,,,91.99027429999842,None,"['3', '1']",1,"[0.08540389999689069, 0.24904989999777172]",91.99027429999842,None,,001,2022_May_23_1222,TMT_fmri,2021.2.3,59.98821831237917,
TMTstop-A_1_2.xlsx,26:52,12,['2'],2,TMTstop-A_1_2linestimulus9.png,TMTstop-A_1_2greenlinestimulus9.png,TMTstop-A_1_2redlinestimulus9.png,TMT_A,2,37,None,2,,,,,,,,,0,1,1,1,0,11,11,11,,,,,,,,,,,,,,,,,,,,,,,,,,,,,,,,,,,,,,,,,,,,,,,,,,,,,,,1,1,64.59513440000592,,,,,,,,92.30296649999946,None,['2'],1,[-0.027151800000865478],92.30296649999946,None,,001,2022_May_23_1222,TMT_fmri,2021.2.3,59.98821831237917,
TMTstop-A_1_2.xlsx,26:52,13,['1'],1,TMTstop-A_1_2linestimulus10.png,TMTstop-A_1_2greenlinestimulus10.png,TMTstop-A_1_2redlinestimulus10.png,TMT_A,2,38,None,2,,,,,,,,,0,1,1,1,0,12,12,12,,,,,,,,,,,,,,,,,,,,,,,,,,,,,,,,,,,,,,,,,,,,,,,,,,,,,,,2,0,68.27422550000483,,,,,,,,92.35315899999841,None,"['3', '1']",1,"[0.05126750000636093, 3.5987700000041514]",92.35315899999841,None,,001,2022_May_23_1222,TMT_fmri,2021.2.3,59.98821831237917,
TMTstop-A_1_2.xlsx,26:52,14,['3'],3,TMTstop-A_1_2linestimulus11.png,TMTstop-A_1_2greenlinestimulus11.png,TMTstop-A_1_2redlinestimulus11.png,TMT_A,2,39,None,2,,,,,,,,,0,1,1,1,0,13,13,13,,,,,,,,,,,,,,,,,,,,,,,,,,,,,,,,,,,,,,,,,,,,,,,,,,,,,,,2,0,68.42817550000473,,,,,,,,96.03301819999615,None,"['2', '3']",1,"[-0.038724999998521525, 0.10164020000229357]",96.03301819999615,None,,001,2022_May_23_1222,TMT_fmri,2021.2.3,59.98821831237917,
TMTstop-A_1_2.xlsx,26:52,15,['1'],1,TMTstop-A_1_2linestimulus12.png,TMTstop-A_1_2greenlinestimulus12.png,TMTstop-A_1_2redlinestimulus12.png,TMT_A,2,40,None,2,,,,,,,,,0,1,1,1,0,14,14,14,,,,,,,,,,,,,,,,,,,,,,,,,,,,,,,,,,,,,,,,,,,,,,,,,,,,,,,1,1,68.56207590000122,,,,,,,,96.18682059999992,None,['1'],1,[0.07100160000118194],96.18682059999992,None,,001,2022_May_23_1222,TMT_fmri,2021.2.3,59.98821831237917,
TMTstop-A_1_2.xlsx,26:52,16,['3'],3,TMTstop-A_1_2linestimulus13.png,TMTstop-A_1_2greenlinestimulus13.png,TMTstop-A_1_2redlinestimulus13.png,TMT_A,2,41,None,2,,,,,,,,,0,1,1,1,0,15,15,15,,,,,,,,,,,,,,,,,,,,,,,,,,,,,,,,,,,,,,,,,,,,,,,,,,,,,,,2,0,68.72411110000394,,,,,,,,96.32560250000097,None,"['2', '3']",1,"[-0.035149000003002584, 0.1062579999997979]",96.32560250000097,None,,001,2022_May_23_1222,TMT_fmri,2021.2.3,59.98821831237917,
TMTstop-A_1_2.xlsx,26:52,17,['1'],1,TMTstop-A_1_2linestimulus14.png,TMTstop-A_1_2greenlinestimulus14.png,TMTstop-A_1_2redlinestimulus14.png,TMT_A,2,42,None,2,,,,,,,,,0,1,1,1,0,16,16,16,,,,,,,,,,,,,,,,,,,,,,,,,,,,,,,,,,,,,,,,,,,,,,,,,,,,,,,1,1,68.85752490000596,,,,,,,,96.48260339999979,None,['1'],1,[0.0700416999970912],96.48260339999979,None,,001,2022_May_23_1222,TMT_fmri,2021.2.3,59.98821831237917,
TMTstop-A_1_2.xlsx,26:52,18,['2'],2,TMTstop-A_1_2linestimulus15.png,TMTstop-A_1_2greenlinestimulus15.png,TMTstop-A_1_2redlinestimulus15.png,TMT_A,2,43,None,2,,,,,,,,,0,1,1,1,0,17,17,17,,,,,,,,,,,,,,,,,,,,,,,,,,,,,,,,,,,,,,,,,,,,,,,,,,,,,,,1,1,68.9077180000022,,,,,,,,96.61624029999803,None,['2'],1,[-0.024174300000595395],96.61624029999803,None,,001,2022_May_23_1222,TMT_fmri,2021.2.3,59.98821831237917,
TMTstop-A_1_2.xlsx,26:52,19,['1'],1,TMTstop-A_1_2linestimulus16.png,TMTstop-A_1_2greenlinestimulus16.png,TMTstop-A_1_2redlinestimulus16.png,TMT_A,2,44,None,2,,,,,,,,,0,1,1,1,0,18,18,18,,,,,,,,,,,,,,,,,,,,,,,,,,,,,,,,,,,,,,,,,,,,,,,,,,,,,,,2,0,69.15368740000122,,,,,,,,96.67260240000178,None,"['3', '1']",1,"[0.059505200006242376, 0.17554540000128327]",96.67260240000178,None,,001,2022_May_23_1222,TMT_fmri,2021.2.3,59.98821831237917,
TMTstop-A_1_2.xlsx,26:52,20,['2'],2,TMTstop-A_1_2linestimulus17.png,TMTstop-A_1_2greenlinestimulus17.png,TMTstop-A_1_2redlinestimulus17.png,TMT_A,2,45,None,2,,,,,,,,,0,1,1,1,0,19,19,19,,,,,,,,,,,,,,,,,,,,,,,,,,,,,,,,,,,,,,,,,,,,,,,,,,,,,,,1,1,69.20368180000514,,,,,,,,96.91238750000048,None,['2'],1,[-0.03547740000067279],96.91238750000048,None,,001,2022_May_23_1222,TMT_fmri,2021.2.3,59.98821831237917,
TMTstop-A_1_2.xlsx,26:52,21,['3'],3,TMTstop-A_1_2linestimulus18.png,TMTstop-A_1_2greenlinestimulus18.png,TMTstop-A_1_2redlinestimulus18.png,TMT_A,2,46,None,2,,,,,,,,,0,1,1,1,0,20,20,20,,,,,,,,,,,,,,,,,,,,,,,,,,,,,,,,,,,,,,,,,,,,,,,,,,,,,,,1,1,69.3373391999994,,,,,,,,96.96229060000041,None,['3'],1,[0.079334200003359],96.96229060000041,None,,001,2022_May_23_1222,TMT_fmri,2021.2.3,59.98821831237917,
TMTstop-A_1_2.xlsx,26:52,22,['2'],2,TMTstop-A_1_2linestimulus19.png,TMTstop-A_1_2greenlinestimulus19.png,TMTstop-A_1_2redlinestimulus19.png,TMT_A,2,47,None,2,,,,,,,,,0,1,1,1,0,21,21,21,,,,,,,,,,,,,,,,,,,,,,,,,,,,,,,,,,,,,,,,,,,,,,,,,,,,,,,2,0,69.52119160000439,,,,,,,,97.09596310000052,None,"['1', '2']",1,"[0.07329129999561701, 0.1295555999968201]",97.09596310000052,None,,001,2022_May_23_1222,TMT_fmri,2021.2.3,59.98821831237917,
TMTstop-A_1_2.xlsx,26:52,23,['3'],3,TMTstop-A_1_2linestimulus20.png,TMTstop-A_1_2greenlinestimulus20.png,TMTstop-A_1_2redlinestimulus20.png,TMT_A,2,48,None,2,,,,,,,,,0,1,1,1,0,22,22,22,,,,,,,,,,,,,,,,,,,,,,,,,,,,,,,,,,,,,,,,,,,,,,,,,,,,,,,1,1,69.7043135999993,,,,,,,,97.27947409999615,None,['3'],1,[0.12901620000047842],97.27947409999615,None,,001,2022_May_23_1222,TMT_fmri,2021.2.3,59.98821831237917,
TMTstop-A_1_2.xlsx,26:52,24,['2'],2,TMTstop-A_1_2linestimulus21.png,TMTstop-A_1_2greenlinestimulus21.png,TMTstop-A_1_2redlinestimulus21.png,TMT_A,2,49,None,2,,,,,,,,,0,1,1,1,0,23,23,23,,,,,,,,,,,,,,,,,,,,,,,,,,,,,,,,,,,,,,,,,,,,,,,,,,,,,,,2,0,69.90331620000507,,,,,,,,97.47083150000253,None,"['1', '2']",1,"[0.0715353999985382, 0.10300629999983357]",97.47083150000253,None,,001,2022_May_23_1222,TMT_fmri,2021.2.3,59.98821831237917,
TMTstop-A_1_2.xlsx,26:52,25,['3'],3,TMTstop-A_1_2linestimulus22.png,TMTstop-A_1_2greenlinestimulus22.png,TMTstop-A_1_2redlinestimulus22.png,TMT_A,2,50,None,2,,,,,,,,,0,1,1,1,0,24,24,24,,,,,,,,,,,,,,,,,,,,,,,,,,,,,,,,,,,,,,,,,,,,,,,,,,,,,,,1,1,70.10418240000581,,,,,,,,97.66222779999953,None,['3'],1,[0.14589840000553522],97.66222779999953,None,,001,2022_May_23_1222,TMT_fmri,2021.2.3,59.98821831237917,
TMTstop-A_1_2.xlsx,26:52,None,None,None,TMTstop-A_1_2linestimulus23.png,TMTstop-A_1_2greenlinestimulus23.png,TMTstop-A_1_2redlinestimulus23.png,TMT_A,2,Feedback_last,None,2,,,,,,,,,0,1,1,1,0,25,25,25,,,,,,,,,,,,,,,,,,,,,,,,,,,,,,,,,,,,,,,,,,,,,,,,,,,,,,,5,0,,,,,,,,,97.87018250000256,None,"['1', '2', '3', '2', '3']",0,"[0.0710592999967048, 0.10616440000012517, 0.3343631000025198, 0.5861729999960517, 0.6233389999979408]",97.87018250000256,None,,001,2022_May_23_1222,TMT_fmri,2021.2.3,59.98821831237917,
TMTstop-A_1_3.xlsx,52:78,1,['1'],1,TMTstop-A_1_3.png,TMTstop-A_1_3.png,TMTstop-A_1_3.png,TMT_A,3,51,None,2,,,,,,,,,0,2,2,2,0,0,0,0,,,,,,,,,,,,,,,,,,,,,,,,,,,,,,,,,,,,,,,,,,,,,,,,,,,,,,,1,1,74.78701230000297,,,,,,,,102.02826069999719,None,['1'],1,[0.4665912000054959],102.02826069999719,None,,001,2022_May_23_1222,TMT_fmri,2021.2.3,59.98821831237917,
TMTstop-A_1_3.xlsx,52:78,2,['3'],3,TMTstop-A_1_3.png,TMTstop-A_1_3firstgreen.png,TMTstop-A_1_3firstred.png,TMT_A,3,52,None,2,,,,,,,,,0,2,2,2,0,1,1,1,,,,,,,,,,,,,,,,,,,,,,,,,,,,,,,,,,,,,,,,,,,,,,,,,,,,,,,2,0,75.00701330000447,,,,,,,,102.55320850000135,None,"['2', '3']",1,"[-0.016219299999647774, 0.13010380000196164]",102.55320850000135,None,,001,2022_May_23_1222,TMT_fmri,2021.2.3,59.98821831237917,
TMTstop-A_1_3.xlsx,52:78,3,['2'],2,TMTstop-A_1_3linestimulus0.png,TMTstop-A_1_3greenlinestimulus0.png,TMTstop-A_1_3redlinestimulus0.png,TMT_A,3,53,None,2,,,,,,,,,0,2,2,2,0,2,2,2,,,,,,,,,,,,,,,,,,,,,,,,,,,,,,,,,,,,,,,,,,,,,,,,,,,,,,,2,0,75.15702360000432,,,,,,,,102.7656463999956,None,"['1', '2']",1,"[0.08820770000602352, 0.09563540000090143]",102.7656463999956,None,,001,2022_May_23_1222,TMT_fmri,2021.2.3,59.98821831237917,
TMTstop-A_1_3.xlsx,52:78,4,['3'],3,TMTstop-A_1_3linestimulus1.png,TMTstop-A_1_3greenlinestimulus1.png,TMTstop-A_1_3redlinestimulus1.png,TMT_A,3,54,None,2,,,,,,,,,0,2,2,2,0,3,3,3,,,,,,,,,,,,,,,,,,,,,,,,,,,,,,,,,,,,,,,,,,,,,,,,,,,,,,,1,1,75.30801350000547,,,,,,,,102.91579089999868,None,['3'],1,[0.09706809999624966],102.91579089999868,None,,001,2022_May_23_1222,TMT_fmri,2021.2.3,59.98821831237917,
TMTstop-A_1_3.xlsx,52:78,5,['2'],2,TMTstop-A_1_3linestimulus2.png,TMTstop-A_1_3greenlinestimulus2.png,TMTstop-A_1_3redlinestimulus2.png,TMT_A,3,55,None,2,,,,,,,,,0,2,2,2,0,4,4,4,,,,,,,,,,,,,,,,,,,,,,,,,,,,,,,,,,,,,,,,,,,,,,,,,,,,,,,2,0,75.5320309000017,,,,,,,,103.07375049999973,None,"['1', '2']",1,"[0.15349129999958677, 0.15730959999928018]",103.07375049999973,None,,001,2022_May_23_1222,TMT_fmri,2021.2.3,59.98821831237917,
TMTstop-A_1_3.xlsx,52:78,6,['1'],1,TMTstop-A_1_3linestimulus3.png,TMTstop-A_1_3greenlinestimulus3.png,TMTstop-A_1_3redlinestimulus3.png,TMT_A,3,56,None,2,,,,,,,,,0,2,2,2,0,5,5,5,,,,,,,,,,,,,,,,,,,,,,,,,,,,,,,,,,,,,,,,,,,,,,,,,,,,,,,13,0,77.91299060000165,,,,,,,,103.29839389999688,None,"['3', '1', '2', '1', '2', '3', '1', '2', '3', '1', '2', '3', '1']",1,"[0.07622950000222772, 0.26289050000195857, 0.29555270000128075, 0.6349856000015279, 0.6380805000007967, 0.8199228000012226, 1.0120136000041384, 1.04420029999892, 1.1865055000016582, 1.8642249000040465, 1.8673254000023007, 2.0464862000007997, 2.3038248000011663]",103.29839389999688,None,,001,2022_May_23_1222,TMT_fmri,2021.2.3,59.98821831237917,
TMTstop-A_1_3.xlsx,52:78,7,['3'],3,TMTstop-A_1_3linestimulus4.png,TMTstop-A_1_3greenlinestimulus4.png,TMTstop-A_1_3redlinestimulus4.png,TMT_A,3,57,None,2,,,,,,,,,0,2,2,2,0,6,6,6,,,,,,,,,,,,,,,,,,,,,,,,,,,,,,,,,,,,,,,,,,,,,,,,,,,,,,,2,0,78.11557300000277,,,,,,,,105.67201319999731,None,"['2', '3']",1,"[-0.03847220000170637, 0.11664849999942817]",105.67201319999731,None,,001,2022_May_23_1222,TMT_fmri,2021.2.3,59.98821831237917,
TMTstop-A_1_3.xlsx,52:78,8,['1'],1,TMTstop-A_1_3linestimulus5.png,TMTstop-A_1_3greenlinestimulus5.png,TMTstop-A_1_3redlinestimulus5.png,TMT_A,3,58,None,2,,,,,,,,,0,2,2,2,0,7,7,7,,,,,,,,,,,,,,,,,,,,,,,,,,,,,,,,,,,,,,,,,,,,,,,,,,,,,,,1,1,78.29965420000372,,,,,,,,105.87423439999839,None,['1'],1,[0.12724969999544555],105.87423439999839,None,,001,2022_May_23_1222,TMT_fmri,2021.2.3,59.98821831237917,
TMTstop-A_1_3.xlsx,52:78,9,['3'],3,TMTstop-A_1_3linestimulus6.png,TMTstop-A_1_3greenlinestimulus6.png,TMTstop-A_1_3redlinestimulus6.png,TMT_A,3,59,None,2,,,,,,,,,0,2,2,2,0,8,8,8,,,,,,,,,,,,,,,,,,,,,,,,,,,,,,,,,,,,,,,,,,,,,,,,,,,,,,,2,0,78.4965771000061,,,,,,,,106.05824430000212,None,"['2', '3']",1,"[-0.03529329999582842, 0.11256710000452586]",106.05824430000212,None,,001,2022_May_23_1222,TMT_fmri,2021.2.3,59.98821831237917,
TMTstop-A_1_3.xlsx,52:78,10,['2'],2,TMTstop-A_1_3linestimulus7.png,TMTstop-A_1_3greenlinestimulus7.png,TMTstop-A_1_3redlinestimulus7.png,TMT_A,3,60,None,2,,,,,,,,,0,2,2,2,0,9,9,9,,,,,,,,,,,,,,,,,,,,,,,,,,,,,,,,,,,,,,,,,,,,,,,,,,,,,,,2,0,78.69717800000217,,,,,,,,106.25490619999619,None,"['1', '2']",1,"[0.09201889999530977, 0.12747429999581072]",106.25490619999619,None,,001,2022_May_23_1222,TMT_fmri,2021.2.3,59.98821831237917,
TMTstop-A_1_3.xlsx,52:78,11,['3'],3,TMTstop-A_1_3linestimulus8.png,TMTstop-A_1_3greenlinestimulus8.png,TMTstop-A_1_3redlinestimulus8.png,TMT_A,3,61,None,2,,,,,,,,,0,2,2,2,0,10,10,10,,,,,,,,,,,,,,,,,,,,,,,,,,,,,,,,,,,,,,,,,,,,,,,,,,,,,,,1,1,78.81390570000076,,,,,,,,106.4552246999956,None,['3'],1,[0.058225799999490846],106.4552246999956,None,,001,2022_May_23_1222,TMT_fmri,2021.2.3,59.98821831237917,
TMTstop-A_1_3.xlsx,52:78,12,['2'],2,TMTstop-A_1_3linestimulus9.png,TMTstop-A_1_3greenlinestimulus9.png,TMTstop-A_1_3redlinestimulus9.png,TMT_A,3,62,None,2,,,,,,,,,0,2,2,2,0,11,11,11,,,,,,,,,,,,,,,,,,,,,,,,,,,,,,,,,,,,,,,,,,,,,,,,,,,,,,,2,0,78.996590499999,,,,,,,,106.5719575999974,None,"['1', '2']",1,"[0.12304779999976745, 0.12713739999890095]",106.5719575999974,None,,001,2022_May_23_1222,TMT_fmri,2021.2.3,59.98821831237917,
TMTstop-A_1_3.xlsx,52:78,13,['1'],1,TMTstop-A_1_3linestimulus10.png,TMTstop-A_1_3greenlinestimulus10.png,TMTstop-A_1_3redlinestimulus10.png,TMT_A,3,63,None,2,,,,,,,,,0,2,2,2,0,12,12,12,,,,,,,,,,,,,,,,,,,,,,,,,,,,,,,,,,,,,,,,,,,,,,,,,,,,,,,8,0,81.14769420000084,,,,,,,,106.76311500000156,None,"['3', '1', '2', '3', '1', '2', '3', '1']",1,"[0.08341010000003735, 0.25905909999710275, 0.280694000000949, 0.4994670000014594, 0.6423379999978351, 0.6641588999991654, 0.8113921999974991, 2.0497040999980527]",106.76311500000156,None,,001,2022_May_23_1222,TMT_fmri,2021.2.3,59.98821831237917,
TMTstop-A_1_3.xlsx,52:78,14,['2'],2,TMTstop-A_1_3linestimulus11.png,TMTstop-A_1_3greenlinestimulus11.png,TMTstop-A_1_3redlinestimulus11.png,TMT_A,3,64,None,2,,,,,,,,,0,2,2,2,0,13,13,13,,,,,,,,,,,,,,,,,,,,,,,,,,,,,,,,,,,,,,,,,,,,,,,,,,,,,,,3,0,81.95269160000316,,,,,,,,108.90706890000001,None,"['3', '1', '2']",1,"[0.4811028999974951, 0.6325419999993755, 0.7320513000013307]",108.90706890000001,None,,001,2022_May_23_1222,TMT_fmri,2021.2.3,59.98821831237917,
TMTstop-A_1_3.xlsx,52:78,15,['3'],3,TMTstop-A_1_3linestimulus12.png,TMTstop-A_1_3greenlinestimulus12.png,TMTstop-A_1_3redlinestimulus12.png,TMT_A,3,65,None,2,,,,,,,,,0,2,2,2,0,14,14,14,,,,,,,,,,,,,,,,,,,,,,,,,,,,,,,,,,,,,,,,,,,,,,,,,,,,,,,1,1,82.06972020000103,,,,,,,,109.71112529999664,None,['3'],1,[0.06011420000140788],109.71112529999664,None,,001,2022_May_23_1222,TMT_fmri,2021.2.3,59.98821831237917,
TMTstop-A_1_3.xlsx,52:78,16,['2'],2,TMTstop-A_1_3linestimulus13.png,TMTstop-A_1_3greenlinestimulus13.png,TMTstop-A_1_3redlinestimulus13.png,TMT_A,3,66,None,2,,,,,,,,,0,2,2,2,0,15,15,15,,,,,,,,,,,,,,,,,,,,,,,,,,,,,,,,,,,,,,,,,,,,,,,,,,,,,,,2,0,82.27049040000566,,,,,,,,109.82795030000125,None,"['1', '2']",1,"[0.09689710000384366, 0.13651470000331756]",109.82795030000125,None,,001,2022_May_23_1222,TMT_fmri,2021.2.3,59.98821831237917,
TMTstop-A_1_3.xlsx,52:78,17,['3'],3,TMTstop-A_1_3linestimulus14.png,TMTstop-A_1_3greenlinestimulus14.png,TMTstop-A_1_3redlinestimulus14.png,TMT_A,3,67,None,2,,,,,,,,,0,2,2,2,0,16,16,16,,,,,,,,,,,,,,,,,,,,,,,,,,,,,,,,,,,,,,,,,,,,,,,,,,,,,,,1,1,82.38662010000553,,,,,,,,110.02828169999702,None,['3'],1,[0.06469969999307068],110.02828169999702,None,,001,2022_May_23_1222,TMT_fmri,2021.2.3,59.98821831237917,
TMTstop-A_1_3.xlsx,52:78,18,['2'],2,TMTstop-A_1_3linestimulus15.png,TMTstop-A_1_3greenlinestimulus15.png,TMTstop-A_1_3redlinestimulus15.png,TMT_A,3,68,None,2,,,,,,,,,0,2,2,2,0,17,17,17,,,,,,,,,,,,,,,,,,,,,,,,,,,,,,,,,,,,,,,,,,,,,,,,,,,,,,,2,0,82.587225700001,,,,,,,,110.14503980000154,None,"['1', '2']",1,"[0.08504749999701744, 0.13595809999969788]",110.14503980000154,None,,001,2022_May_23_1222,TMT_fmri,2021.2.3,59.98821831237917,
TMTstop-A_1_3.xlsx,52:78,19,['3'],3,TMTstop-A_1_3linestimulus16.png,TMTstop-A_1_3greenlinestimulus16.png,TMTstop-A_1_3redlinestimulus16.png,TMT_A,3,69,None,2,,,,,,,,,0,2,2,2,0,18,18,18,,,,,,,,,,,,,,,,,,,,,,,,,,,,,,,,,,,,,,,,,,,,,,,,,,,,,,,1,1,82.68740870000329,,,,,,,,110.34528829999908,None,['3'],1,[0.04957219999778317],110.34528829999908,None,,001,2022_May_23_1222,TMT_fmri,2021.2.3,59.98821831237917,
TMTstop-A_1_3.xlsx,52:78,20,['1'],1,TMTstop-A_1_3linestimulus17.png,TMTstop-A_1_3greenlinestimulus17.png,TMTstop-A_1_3redlinestimulus17.png,TMT_A,3,70,None,2,,,,,,,,,0,2,2,2,0,19,19,19,,,,,,,,,,,,,,,,,,,,,,,,,,,,,,,,,,,,,,,,,,,,,,,,,,,,,,,1,1,82.83731860000262,,,,,,,,110.44536099999823,None,['1'],1,[0.09663629999704426],110.44536099999823,None,,001,2022_May_23_1222,TMT_fmri,2021.2.3,59.98821831237917,
TMTstop-A_1_3.xlsx,52:78,21,['2'],2,TMTstop-A_1_3linestimulus18.png,TMTstop-A_1_3greenlinestimulus18.png,TMTstop-A_1_3redlinestimulus18.png,TMT_A,3,71,None,2,,,,,,,,,0,2,2,2,0,20,20,20,,,,,,,,,,,,,,,,,,,,,,,,,,,,,,,,,,,,,,,,,,,,,,,,,,,,,,,1,1,82.88629900000524,,,,,,,,110.59503609999956,None,['2'],1,[-0.026177499996265396],110.59503609999956,None,,001,2022_May_23_1222,TMT_fmri,2021.2.3,59.98821831237917,
TMTstop-A_1_3.xlsx,52:78,22,['3'],3,TMTstop-A_1_3linestimulus19.png,TMTstop-A_1_3greenlinestimulus19.png,TMTstop-A_1_3redlinestimulus19.png,TMT_A,3,72,None,2,,,,,,,,,0,2,2,2,0,21,21,21,,,,,,,,,,,,,,,,,,,,,,,,,,,,,,,,,,,,,,,,,,,,,,,,,,,,,,,1,1,83.00444380000408,,,,,,,,110.64569169999595,None,['3'],1,[0.055046900000888854],110.64569169999595,None,,001,2022_May_23_1222,TMT_fmri,2021.2.3,59.98821831237917,
TMTstop-A_1_3.xlsx,52:78,23,['2'],2,TMTstop-A_1_3linestimulus20.png,TMTstop-A_1_3greenlinestimulus20.png,TMTstop-A_1_3redlinestimulus20.png,TMT_A,3,73,None,2,,,,,,,,,0,2,2,2,0,22,22,22,,,,,,,,,,,,,,,,,,,,,,,,,,,,,,,,,,,,,,,,,,,,,,,,,,,,,,,2,0,83.19537169999967,,,,,,,,110.76242590000038,None,"['1', '2']",1,"[0.08575140000175452, 0.13059439999778988]",110.76242590000038,None,,001,2022_May_23_1222,TMT_fmri,2021.2.3,59.98821831237917,
TMTstop-A_1_3.xlsx,52:78,24,['1'],1,TMTstop-A_1_3linestimulus21.png,TMTstop-A_1_3greenlinestimulus21.png,TMTstop-A_1_3redlinestimulus21.png,TMT_A,3,74,None,2,,,,,,,,,0,2,2,2,0,23,23,23,,,,,,,,,,,,,,,,,,,,,,,,,,,,,,,,,,,,,,,,,,,,,,,,,,,,,,,2,0,83.46858880000218,,,,,,,,110.95363240000006,None,"['3', '1']",1,"[0.06732180000108201, 0.20957910000288393]",110.95363240000006,None,,001,2022_May_23_1222,TMT_fmri,2021.2.3,59.98821831237917,
TMTstop-A_1_3.xlsx,52:78,25,['2'],2,TMTstop-A_1_3linestimulus22.png,TMTstop-A_1_3greenlinestimulus22.png,TMTstop-A_1_3redlinestimulus22.png,TMT_A,3,75,None,2,,,,,,,,,0,2,2,2,0,24,24,24,,,,,,,,,,,,,,,,,,,,,,,,,,,,,,,,,,,,,,,,,,,,,,,,,,,,,,,1,1,83.52446320000308,,,,,,,,111.23231220000162,None,['2'],1,[-0.03510759999335278],111.23231220000162,None,,001,2022_May_23_1222,TMT_fmri,2021.2.3,59.98821831237917,
TMTstop-A_1_3.xlsx,52:78,None,None,None,TMTstop-A_1_3linestimulus23.png,TMTstop-A_1_3greenlinestimulus23.png,TMTstop-A_1_3redlinestimulus23.png,TMT_A,3,Feedback_last,None,2,,,,,,,,,0,2,2,2,0,25,25,25,,,,,,,,,,,,,,,,,,,,,,,,,,,,,,,,,,,,,,,,,,,,,,,,,,,,,,,2,0,,,,,,,,,111.28204939999705,None,"['3', '1']",0,"[0.047870799993688706, 0.20727529999567196]",111.28204939999705,None,,001,2022_May_23_1222,TMT_fmri,2021.2.3,59.98821831237917,
TMTstop-Control_1_3.xlsx,52:78,1,['2'],2,TMTstop-control_1_3.png,TMTstop-control_1_3.png,TMTstop-control_1_3.png,TMT_Control,3,51,None,1,,,,,,,,,,,,,,,,,0,0,0,0,0,0,0,0,,,,,,,,,,,,,,,,,,,,,,,,,,,,,,,,,,,,,,,,,,,,,,,2,0,98.42030530000193,125.42336749999959,None,"['1', '2']",1,"[0.6558132999998634, 0.693584100001317]",125.42336749999959,None,,,,,,,,,001,2022_May_23_1222,TMT_fmri,2021.2.3,59.98821831237917,
TMTstop-Control_1_3.xlsx,52:78,2,['1'],1,TMTstop-control_1_3.png,TMTstop-control_1_3firstgreen.png,TMTstop-control_1_3firstred.png,TMT_Control,3,52,None,1,,,,,,,,,,,,,,,,,0,0,0,0,0,1,1,1,,,,,,,,,,,,,,,,,,,,,,,,,,,,,,,,,,,,,,,,,,,,,,,2,0,98.87242630000401,126.1783357999957,None,"['3', '1']",1,"[0.10917079999489943, 0.37749889999395236]",126.1783357999957,None,,,,,,,,,001,2022_May_23_1222,TMT_fmri,2021.2.3,59.98821831237917,
TMTstop-Control_1_3.xlsx,52:78,3,['2'],2,TMTstop-control_1_3linestimulus0.png,TMTstop-control_1_3greenlinestimulus0.png,TMTstop-control_1_3redlinestimulus0.png,TMT_Control,3,53,None,1,,,,,,,,,,,,,,,,,0,0,0,0,0,2,2,2,,,,,,,,,,,,,,,,,,,,,,,,,,,,,,,,,,,,,,,,,,,,,,,1,1,98.92251640000177,126.63082729999587,None,['2'],1,[-0.03738390000216896],126.63082729999587,None,,,,,,,,,001,2022_May_23_1222,TMT_fmri,2021.2.3,59.98821831237917,
TMTstop-Control_1_3.xlsx,52:78,4,['1'],1,TMTstop-control_1_3linestimulus1.png,TMTstop-control_1_3greenlinestimulus1.png,TMTstop-control_1_3redlinestimulus1.png,TMT_Control,3,54,None,1,,,,,,,,,,,,,,,,,0,0,0,0,0,3,3,3,,,,,,,,,,,,,,,,,,,,,,,,,,,,,,,,,,,,,,,,,,,,,,,2,0,99.28343600000517,126.68097059999855,None,"['3', '1']",1,"[0.06628099999943515, 0.2771830999990925]",126.68097059999855,None,,,,,,,,,001,2022_May_23_1222,TMT_fmri,2021.2.3,59.98821831237917,
TMTstop-Control_1_3.xlsx,52:78,5,['3'],3,TMTstop-control_1_3linestimulus2.png,TMTstop-control_1_3greenlinestimulus2.png,TMTstop-control_1_3redlinestimulus2.png,TMT_Control,3,55,None,1,,,,,,,,,,,,,,,,,0,0,0,0,0,4,4,4,,,,,,,,,,,,,,,,,,,,,,,,,,,,,,,,,,,,,,,,,,,,,,,2,0,99.49841970000125,127.04959360000066,None,"['2', '3']",1,"[-0.05240300000150455, 0.11380159999680473]",127.04959360000066,None,,,,,,,,,001,2022_May_23_1222,TMT_fmri,2021.2.3,59.98821831237917,
TMTstop-Control_1_3.xlsx,52:78,6,['1'],1,TMTstop-control_1_3linestimulus3.png,TMTstop-control_1_3greenlinestimulus3.png,TMTstop-control_1_3redlinestimulus3.png,TMT_Control,3,56,None,1,,,,,,,,,,,,,,,,,0,0,0,0,0,5,5,5,,,,,,,,,,,,,,,,,,,,,,,,,,,,,,,,,,,,,,,,,,,,,,,1,1,100.23344660000294,127.25681520000217,None,['1'],1,[0.6736767000038526],127.25681520000217,None,,,,,,,,,001,2022_May_23_1222,TMT_fmri,2021.2.3,59.98821831237917,
TMTstop-Control_1_3.xlsx,52:78,7,['2'],2,TMTstop-control_1_3linestimulus4.png,TMTstop-control_1_3greenlinestimulus4.png,TMTstop-control_1_3redlinestimulus4.png,TMT_Control,3,57,None,1,,,,,,,,,,,,,,,,,0,0,0,0,0,6,6,6,,,,,,,,,,,,,,,,,,,,,,,,,,,,,,,,,,,,,,,,,,,,,,,1,1,100.2904297999994,127.99875459999748,None,['2'],1,[-0.02641629999561701],127.99875459999748,None,,,,,,,,,001,2022_May_23_1222,TMT_fmri,2021.2.3,59.98821831237917,
TMTstop-Control_1_3.xlsx,52:78,8,['3'],3,TMTstop-control_1_3linestimulus4.png,TMTstop-control_1_3greenlinestimulus5.png,TMTstop-control_1_3redlinestimulus5.png,TMT_Control,3,58,None,1,,,,,,,,,,,,,,,,,0,0,0,0,0,7,7,7,,,,,,,,,,,,,,,,,,,,,,,,,,,,,,,,,,,,,,,,,,,,,,,1,1,100.39045120000083,128.0490576000011,None,['3'],1,[0.04918580000230577],128.0490576000011,None,,,,,,,,,001,2022_May_23_1222,TMT_fmri,2021.2.3,59.98821831237917,
TMTstop-Control_1_3.xlsx,52:78,9,['1'],1,TMTstop-control_1_3linestimulus6.png,TMTstop-control_1_3greenlinestimulus6.png,TMTstop-control_1_3redlinestimulus6.png,TMT_Control,3,59,None,1,,,,,,,,,,,,,,,,,0,0,0,0,0,8,8,8,,,,,,,,,,,,,,,,,,,,,,,,,,,,,,,,,,,,,,,,,,,,,,,2,0,100.60745930000121,128.1491279999973,None,"['2', '1']",1,"[0.11505169999873033, 0.1428611000010278]",128.1491279999973,None,,,,,,,,,001,2022_May_23_1222,TMT_fmri,2021.2.3,59.98821831237917,
TMTstop-Control_1_3.xlsx,52:78,10,['2'],2,TMTstop-control_1_3linestimulus7.png,TMTstop-control_1_3greenlinestimulus7.png,TMTstop-control_1_3redlinestimulus7.png,TMT_Control,3,60,None,1,,,,,,,,,,,,,,,,,0,0,0,0,0,9,9,9,,,,,,,,,,,,,,,,,,,,,,,,,,,,,,,,,,,,,,,,,,,,,,,2,0,101.08042370000476,128.36602770000172,None,"['1', '2']",1,"[0.3524924999946961, 0.3762308999939705]",128.36602770000172,None,,,,,,,,,001,2022_May_23_1222,TMT_fmri,2021.2.3,59.98821831237917,
TMTstop-Control_1_3.xlsx,52:78,11,['1'],1,TMTstop-control_1_3linestimulus8.png,TMTstop-control_1_3greenlinestimulus8.png,TMTstop-control_1_3redlinestimulus8.png,TMT_Control,3,61,None,1,,,,,,,,,,,,,,,,,0,0,0,0,0,10,10,10,,,,,,,,,,,,,,,,,,,,,,,,,,,,,,,,,,,,,,,,,,,,,,,2,0,101.43142320000334,128.83879190000152,None,"['3', '1']",1,"[0.07651700000133133, 0.2785317000016221]",128.83879190000152,None,,,,,,,,,001,2022_May_23_1222,TMT_fmri,2021.2.3,59.98821831237917,
TMTstop-Control_1_3.xlsx,52:78,12,['2'],2,TMTstop-control_1_3linestimulus9.png,TMTstop-control_1_3greenlinestimulus9.png,TMTstop-control_1_3redlinestimulus9.png,TMT_Control,3,62,None,1,,,,,,,,,,,,,,,,,0,0,0,0,0,11,11,11,,,,,,,,,,,,,,,,,,,,,,,,,,,,,,,,,,,,,,,,,,,,,,,1,1,101.49042400000326,129.19821899999806,None,['2'],1,[-0.0479129000013927],129.19821899999806,None,,,,,,,,,001,2022_May_23_1222,TMT_fmri,2021.2.3,59.98821831237917,
TMTstop-Control_1_3.xlsx,52:78,13,['3'],3,TMTstop-control_1_3linestimulus10.png,TMTstop-control_1_3greenlinestimulus10.png,TMTstop-control_1_3redlinestimulus10.png,TMT_Control,3,63,None,1,,,,,,,,,,,,,,,,,0,0,0,0,0,12,12,12,,,,,,,,,,,,,,,,,,,,,,,,,,,,,,,,,,,,,,,,,,,,,,,1,1,101.60644790000515,129.24826210000174,None,['3'],1,[0.058552799993776716],129.24826210000174,None,,,,,,,,,001,2022_May_23_1222,TMT_fmri,2021.2.3,59.98821831237917,
TMTstop-Control_1_3.xlsx,52:78,14,['2'],2,TMTstop-control_1_3linestimulus11.png,TMTstop-control_1_3greenlinestimulus11.png,TMTstop-control_1_3redlinestimulus11.png,TMT_Control,3,64,None,1,,,,,,,,,,,,,,,,,0,0,0,0,0,13,13,13,,,,,,,,,,,,,,,,,,,,,,,,,,,,,,,,,,,,,,,,,,,,,,,2,0,101.8069822000034,129.36498610000126,None,"['1', '2']",1,"[0.09810470000229543, 0.13230710000061663]",129.36498610000126,None,,,,,,,,,001,2022_May_23_1222,TMT_fmri,2021.2.3,59.98821831237917,
TMTstop-Control_1_3.xlsx,52:78,15,['1'],1,TMTstop-control_1_3linestimulus12.png,TMTstop-control_1_3greenlinestimulus12.png,TMTstop-control_1_3redlinestimulus12.png,TMT_Control,3,65,None,1,,,,,,,,,,,,,,,,,0,0,0,0,0,14,14,14,,,,,,,,,,,,,,,,,,,,,,,,,,,,,,,,,,,,,,,,,,,,,,,2,0,102.15078319999884,129.56519789999584,None,"['3', '1']",1,"[0.08051479999994626, 0.2830826999997953]",129.56519789999584,None,,,,,,,,,001,2022_May_23_1222,TMT_fmri,2021.2.3,59.98821831237917,
TMTstop-Control_1_3.xlsx,52:78,16,['3'],3,TMTstop-control_1_3linestimulus13.png,TMTstop-control_1_3greenlinestimulus13.png,TMTstop-control_1_3redlinestimulus13.png,TMT_Control,3,66,None,1,,,,,,,,,,,,,,,,,0,0,0,0,0,15,15,15,,,,,,,,,,,,,,,,,,,,,,,,,,,,,,,,,,,,,,,,,,,,,,,6,0,102.97911630000453,129.90893890000007,None,"['2', '3', '1', '1', '2', '3']",1,"[0.12185950000275625, 0.30177520000142977, 0.30872720000479603, 0.5590059000023757, 0.6115405000018654, 0.752145800004655]",129.90893890000007,None,,,,,,,,,001,2022_May_23_1222,TMT_fmri,2021.2.3,59.98821831237917,
TMTstop-Control_1_3.xlsx,52:78,17,['1'],1,TMTstop-control_1_3linestimulus14.png,TMTstop-control_1_3greenlinestimulus14.png,TMTstop-control_1_3redlinestimulus14.png,TMT_Control,3,67,None,1,,,,,,,,,,,,,,,,,0,0,0,0,0,16,16,16,,,,,,,,,,,,,,,,,,,,,,,,,,,,,,,,,,,,,,,,,,,,,,,1,1,103.1462462999989,130.73766700000124,None,['1'],1,[0.11217480000050273],130.73766700000124,None,,,,,,,,,001,2022_May_23_1222,TMT_fmri,2021.2.3,59.98821831237917,
TMTstop-Control_1_3.xlsx,52:78,18,['3'],3,TMTstop-control_1_3linestimulus15.png,TMTstop-control_1_3greenlinestimulus15.png,TMTstop-control_1_3redlinestimulus15.png,TMT_Control,3,68,None,1,,,,,,,,,,,,,,,,,0,0,0,0,0,17,17,17,,,,,,,,,,,,,,,,,,,,,,,,,,,,,,,,,,,,,,,,,,,,,,,4,0,103.8098667000013,130.90445249999902,None,"['2', '1', '2', '3']",1,"[-0.009524000000965316, 0.4051947999978438, 0.43064610000146786, 0.6014673999961815]",130.90445249999902,None,,,,,,,,,001,2022_May_23_1222,TMT_fmri,2021.2.3,59.98821831237917,
TMTstop-Control_1_3.xlsx,52:78,19,['2'],2,TMTstop-control_1_3linestimulus16.png,TMTstop-control_1_3greenlinestimulus16.png,TMTstop-control_1_3redlinestimulus16.png,TMT_Control,3,69,None,1,,,,,,,,,,,,,,,,,0,0,0,0,0,18,18,18,,,,,,,,,,,,,,,,,,,,,,,,,,,,,,,,,,,,,,,,,,,,,,,2,0,104.04333400000178,131.56847800000105,None,"['1', '2']",1,"[0.1242050000000745, 0.16611760000523645]",131.56847800000105,None,,,,,,,,,001,2022_May_23_1222,TMT_fmri,2021.2.3,59.98821831237917,
TMTstop-Control_1_3.xlsx,52:78,20,['1'],1,TMTstop-control_1_3linestimulus17.png,TMTstop-control_1_3greenlinestimulus17.png,TMTstop-control_1_3redlinestimulus17.png,TMT_Control,3,70,None,1,,,,,,,,,,,,,,,,,0,0,0,0,0,19,19,19,,,,,,,,,,,,,,,,,,,,,,,,,,,,,,,,,,,,,,,,,,,,,,,2,0,104.38882900000317,131.80219950000173,None,"['3', '1']",1,"[0.0931230999995023, 0.26149979999900097]",131.80219950000173,None,,,,,,,,,001,2022_May_23_1222,TMT_fmri,2021.2.3,59.98821831237917,
TMTstop-Control_1_3.xlsx,52:78,21,['3'],3,TMTstop-control_1_3linestimulus18.png,TMTstop-control_1_3greenlinestimulus18.png,TMTstop-control_1_3redlinestimulus18.png,TMT_Control,3,71,None,1,,,,,,,,,,,,,,,,,0,0,0,0,0,20,20,20,,,,,,,,,,,,,,,,,,,,,,,,,,,,,,,,,,,,,,,,,,,,,,,2,0,104.59684969999944,132.15436480000062,None,"['2', '3']",1,"[-0.04178200000023935, 0.10706940000090981]",132.15436480000062,None,,,,,,,,,001,2022_May_23_1222,TMT_fmri,2021.2.3,59.98821831237917,
TMTstop-Control_1_3.xlsx,52:78,22,['2'],2,TMTstop-control_1_3linestimulus19.png,TMTstop-control_1_3greenlinestimulus19.png,TMTstop-control_1_3redlinestimulus19.png,TMT_Control,3,72,None,1,,,,,,,,,,,,,,,,,0,0,0,0,0,21,21,21,,,,,,,,,,,,,,,,,,,,,,,,,,,,,,,,,,,,,,,,,,,,,,,2,0,104.78145560000121,132.3546886999975,None,"['1', '2']",1,"[0.07145199999649776, 0.10742339999706019]",132.3546886999975,None,,,,,,,,,001,2022_May_23_1222,TMT_fmri,2021.2.3,59.98821831237917,
TMTstop-Control_1_3.xlsx,52:78,23,['3'],3,TMTstop-control_1_3linestimulus20.png,TMTstop-control_1_3greenlinestimulus20.png,TMTstop-control_1_3redlinestimulus20.png,TMT_Control,3,73,None,1,,,,,,,,,,,,,,,,,0,0,0,0,0,22,22,22,,,,,,,,,,,,,,,,,,,,,,,,,,,,,,,,,,,,,,,,,,,,,,,1,1,104.91544090000389,132.54026059999887,None,['3'],1,[0.0739977999983239],132.54026059999887,None,,,,,,,,,001,2022_May_23_1222,TMT_fmri,2021.2.3,59.98821831237917,
TMTstop-Control_1_3.xlsx,52:78,24,['1'],1,TMTstop-control_1_3linestimulus21.png,TMTstop-control_1_3greenlinestimulus21.png,TMTstop-control_1_3redlinestimulus21.png,TMT_Control,3,74,None,1,,,,,,,,,,,,,,,,,0,0,0,0,0,23,23,23,,,,,,,,,,,,,,,,,,,,,,,,,,,,,,,,,,,,,,,,,,,,,,,1,1,105.09829990000435,132.6733028000017,None,['1'],1,[0.12383549999503884],132.6733028000017,None,,,,,,,,,001,2022_May_23_1222,TMT_fmri,2021.2.3,59.98821831237917,
TMTstop-Control_1_3.xlsx,52:78,25,['2'],2,TMTstop-control_1_3linestimulus22.png,TMTstop-control_1_3greenlinestimulus22.png,TMTstop-control_1_3redlinestimulus22.png,TMT_Control,3,75,None,1,,,,,,,,,,,,,,,,,0,0,0,0,0,24,24,24,,,,,,,,,,,,,,,,,,,,,,,,,,,,,,,,,,,,,,,,,,,,,,,1,1,105.15643190000264,132.8650439999983,None,['2'],1,[-0.04396239999914542],132.8650439999983,None,,,,,,,,,001,2022_May_23_1222,TMT_fmri,2021.2.3,59.98821831237917,
TMTstop-Control_1_3.xlsx,52:78,None,None,None,TMTstop-control_1_3linestimulus23.png,TMTstop-control_1_3greenlinestimulus23.png,TMTstop-control_1_3redlinestimulus23.png,TMT_Control,3,Feedback_last,None,1,,,,,,,,,,,,,,,,,0,0,0,0,0,25,25,25,,,,,,,,,,,,,,,,,,,,,,,,,,,,,,,,,,,,,,,,,,,,,,,4,0,,132.91480159999628,None,"['3', '1', '2', '3']",0,"[0.06532309999602148, 0.2291038999974262, 0.2872624999945401, 0.4559921999971266]",132.91480159999628,None,,,,,,,,,001,2022_May_23_1222,TMT_fmri,2021.2.3,59.98821831237917,
TMTstop-Control_1_4.xlsx,78:104,1,['2'],2,TMTstop-control_1_4.png,TMTstop-control_1_4.png,TMTstop-control_1_4.png,TMT_Control,4,76,None,1,,,,,,,,,,,,,,,,,0,1,1,1,0,0,0,0,,,,,,,,,,,,,,,,,,,,,,,,,,,,,,,,,,,,,,,,,,,,,,,2,0,109.8231717000017,137.05969360000017,None,"['1', '2']",1,"[0.37044380000588717, 0.4314193000027444]",137.05969360000017,None,,,,,,,,,001,2022_May_23_1222,TMT_fmri,2021.2.3,59.98821831237917,
TMTstop-Control_1_4.xlsx,78:104,2,['1'],1,TMTstop-control_1_4.png,TMTstop-control_1_4firstgreen.png,TMTstop-control_1_4firstred.png,TMT_Control,4,77,None,1,,,,,,,,,,,,,,,,,0,1,1,1,0,1,1,1,,,,,,,,,,,,,,,,,,,,,,,,,,,,,,,,,,,,,,,,,,,,,,,2,0,110.10716730000422,137.58086809999804,None,"['3', '1']",1,"[0.056943899995530955, 0.2169032999954652]",137.58086809999804,None,,,,,,,,,001,2022_May_23_1222,TMT_fmri,2021.2.3,59.98821831237917,
TMTstop-Control_1_4.xlsx,78:104,3,['3'],3,TMTstop-control_1_4linestimulus0.png,TMTstop-control_1_4greenlinestimulus0.png,TMTstop-control_1_4redlinestimulus0.png,TMT_Control,4,78,None,1,,,,,,,,,,,,,,,,,0,1,1,1,0,2,2,2,,,,,,,,,,,,,,,,,,,,,,,,,,,,,,,,,,,,,,,,,,,,,,,2,0,110.30319150000287,137.87216009999975,None,"['2', '3']",1,"[-0.013828100003593136, 0.09895409999444382]",137.87216009999975,None,,,,,,,,,001,2022_May_23_1222,TMT_fmri,2021.2.3,59.98821831237917,
TMTstop-Control_1_4.xlsx,78:104,4,['1'],1,TMTstop-control_1_4linestimulus1.png,TMTstop-control_1_4greenlinestimulus1.png,TMTstop-control_1_4redlinestimulus1.png,TMT_Control,4,79,None,1,,,,,,,,,,,,,,,,,0,1,1,1,0,3,3,3,,,,,,,,,,,,,,,,,,,,,,,,,,,,,,,,,,,,,,,,,,,,,,,1,1,110.42030309999973,138.0614160999976,None,['1'],1,[0.06745080000109738],138.0614160999976,None,,,,,,,,,001,2022_May_23_1222,TMT_fmri,2021.2.3,59.98821831237917,
TMTstop-Control_1_4.xlsx,78:104,5,['3'],3,TMTstop-control_1_4linestimulus2.png,TMTstop-control_1_4greenlinestimulus2.png,TMTstop-control_1_4redlinestimulus2.png,TMT_Control,4,80,None,1,,,,,,,,,,,,,,,,,0,1,1,1,0,4,4,4,,,,,,,,,,,,,,,,,,,,,,,,,,,,,,,,,,,,,,,,,,,,,,,2,0,110.6061725000036,138.17860199999996,None,"['2', '3']",1,"[-0.0006563999995705672, 0.11331090000021504]",138.17860199999996,None,,,,,,,,,001,2022_May_23_1222,TMT_fmri,2021.2.3,59.98821831237917,
TMTstop-Control_1_4.xlsx,78:104,6,['1'],1,TMTstop-control_1_4linestimulus3.png,TMTstop-control_1_4greenlinestimulus3.png,TMTstop-control_1_4redlinestimulus3.png,TMT_Control,4,81,None,1,,,,,,,,,,,,,,,,,0,1,1,1,0,5,5,5,,,,,,,,,,,,,,,,,,,,,,,,,,,,,,,,,,,,,,,,,,,,,,,1,1,110.75606060000428,138.36399829999573,None,['1'],1,[0.08796129999973346],138.36399829999573,None,,,,,,,,,001,2022_May_23_1222,TMT_fmri,2021.2.3,59.98821831237917,
TMTstop-Control_1_4.xlsx,78:104,7,['3'],3,TMTstop-control_1_4linestimulus4.png,TMTstop-control_1_4greenlinestimulus4.png,TMTstop-control_1_4redlinestimulus4.png,TMT_Control,4,82,None,1,,,,,,,,,,,,,,,,,0,1,1,1,0,6,6,6,,,,,,,,,,,,,,,,,,,,,,,,,,,,,,,,,,,,,,,,,,,,,,,2,0,110.9102056000047,138.51400329999888,None,"['2', '3']",1,"[-0.019688799999130424, 0.08339339999656659]",138.51400329999888,None,,,,,,,,,001,2022_May_23_1222,TMT_fmri,2021.2.3,59.98821831237917,
TMTstop-Control_1_4.xlsx,78:104,8,['1'],1,TMTstop-control_1_4linestimulus4.png,TMTstop-control_1_4greenlinestimulus5.png,TMTstop-control_1_4redlinestimulus5.png,TMT_Control,4,83,None,1,,,,,,,,,,,,,,,,,0,1,1,1,0,7,7,7,,,,,,,,,,,,,,,,,,,,,,,,,,,,,,,,,,,,,,,,,,,,,,,1,1,111.06819380000525,138.6761811999968,None,['1'],1,[0.08985830000165151],138.6761811999968,None,,,,,,,,,001,2022_May_23_1222,TMT_fmri,2021.2.3,59.98821831237917,
TMTstop-Control_1_4.xlsx,78:104,9,['3'],3,TMTstop-control_1_4linestimulus6.png,TMTstop-control_1_4greenlinestimulus6.png,TMTstop-control_1_4redlinestimulus6.png,TMT_Control,4,84,None,1,,,,,,,,,,,,,,,,,0,1,1,1,0,8,8,8,,,,,,,,,,,,,,,,,,,,,,,,,,,,,,,,,,,,,,,,,,,,,,,2,0,111.24619370000437,138.82643780000217,None,"['2', '3']",1,"[-0.017489000005298294, 0.1260413999989396]",138.82643780000217,None,,,,,,,,,001,2022_May_23_1222,TMT_fmri,2021.2.3,59.98821831237917,
TMTstop-Control_1_4.xlsx,78:104,10,['2'],2,TMTstop-control_1_4linestimulus7.png,TMTstop-control_1_4greenlinestimulus7.png,TMTstop-control_1_4redlinestimulus7.png,TMT_Control,4,85,None,1,,,,,,,,,,,,,,,,,0,1,1,1,0,9,9,9,,,,,,,,,,,,,,,,,,,,,,,,,,,,,,,,,,,,,,,,,,,,,,,2,0,111.45719130000361,139.0113960000017,None,"['1', '2']",1,"[0.09911190000275383, 0.12809159999596886]",139.0113960000017,None,,,,,,,,,001,2022_May_23_1222,TMT_fmri,2021.2.3,59.98821831237917,
TMTstop-Control_1_4.xlsx,78:104,11,['1'],1,TMTstop-control_1_4linestimulus8.png,TMTstop-control_1_4greenlinestimulus8.png,TMTstop-control_1_4redlinestimulus8.png,TMT_Control,4,86,None,1,,,,,,,,,,,,,,,,,0,1,1,1,0,10,10,10,,,,,,,,,,,,,,,,,,,,,,,,,,,,,,,,,,,,,,,,,,,,,,,2,0,111.72819670000172,139.22196280000207,None,"['3', '1']",1,"[0.05394240000168793, 0.19780180000088876]",139.22196280000207,None,,,,,,,,,001,2022_May_23_1222,TMT_fmri,2021.2.3,59.98821831237917,
TMTstop-Control_1_4.xlsx,78:104,12,['3'],3,TMTstop-control_1_4linestimulus9.png,TMTstop-control_1_4greenlinestimulus9.png,TMTstop-control_1_4redlinestimulus9.png,TMT_Control,4,87,None,1,,,,,,,,,,,,,,,,,0,1,1,1,0,11,11,11,,,,,,,,,,,,,,,,,,,,,,,,,,,,,,,,,,,,,,,,,,,,,,,2,0,111.92818550000084,139.4865764999995,None,"['2', '3']",1,"[-0.0012122999978601001, 0.1288163999997778]",139.4865764999995,None,,,,,,,,,001,2022_May_23_1222,TMT_fmri,2021.2.3,59.98821831237917,
TMTstop-Control_1_4.xlsx,78:104,13,['2'],2,TMTstop-control_1_4linestimulus10.png,TMTstop-control_1_4greenlinestimulus10.png,TMTstop-control_1_4redlinestimulus10.png,TMT_Control,4,88,None,1,,,,,,,,,,,,,,,,,0,1,1,1,0,12,12,12,,,,,,,,,,,,,,,,,,,,,,,,,,,,,,,,,,,,,,,,,,,,,,,2,0,112.11510149999958,139.68667039999855,None,"['1', '2']",1,"[0.06088820000150008, 0.12524839999969117]",139.68667039999855,None,,,,,,,,,001,2022_May_23_1222,TMT_fmri,2021.2.3,59.98821831237917,
TMTstop-Control_1_4.xlsx,78:104,14,['3'],3,TMTstop-control_1_4linestimulus11.png,TMTstop-control_1_4greenlinestimulus11.png,TMTstop-control_1_4redlinestimulus11.png,TMT_Control,4,89,None,1,,,,,,,,,,,,,,,,,0,1,1,1,0,13,13,13,,,,,,,,,,,,,,,,,,,,,,,,,,,,,,,,,,,,,,,,,,,,,,,1,1,112.25609260000056,139.88040599999658,None,['3'],1,[0.07990939999581315],139.88040599999658,None,,,,,,,,,001,2022_May_23_1222,TMT_fmri,2021.2.3,59.98821831237917,
TMTstop-Control_1_4.xlsx,78:104,15,['2'],2,TMTstop-control_1_4linestimulus12.png,TMTstop-control_1_4greenlinestimulus12.png,TMTstop-control_1_4redlinestimulus12.png,TMT_Control,4,90,None,1,,,,,,,,,,,,,,,,,0,1,1,1,0,14,14,14,,,,,,,,,,,,,,,,,,,,,,,,,,,,,,,,,,,,,,,,,,,,,,,2,0,112.47232030000305,140.01393680000183,None,"['1', '2']",1,"[0.10643110000091838, 0.16415199999755714]",140.01393680000183,None,,,,,,,,,001,2022_May_23_1222,TMT_fmri,2021.2.3,59.98821831237917,
TMTstop-Control_1_4.xlsx,78:104,16,['1'],1,TMTstop-control_1_4linestimulus13.png,TMTstop-control_1_4greenlinestimulus13.png,TMTstop-control_1_4redlinestimulus13.png,TMT_Control,4,91,None,1,,,,,,,,,,,,,,,,,0,1,1,1,0,15,15,15,,,,,,,,,,,,,,,,,,,,,,,,,,,,,,,,,,,,,,,,,,,,,,,2,0,112.80228429999988,140.23125009999785,None,"['3', '1']",1,"[0.09815510000044014, 0.24452590000146301]",140.23125009999785,None,,,,,,,,,001,2022_May_23_1222,TMT_fmri,2021.2.3,59.98821831237917,
TMTstop-Control_1_4.xlsx,78:104,17,['3'],3,TMTstop-control_1_4linestimulus14.png,TMTstop-control_1_4greenlinestimulus14.png,TMTstop-control_1_4redlinestimulus14.png,TMT_Control,4,92,None,1,,,,,,,,,,,,,,,,,0,1,1,1,0,16,16,16,,,,,,,,,,,,,,,,,,,,,,,,,,,,,,,,,,,,,,,,,,,,,,,2,0,113.01624989999982,140.56807970000227,None,"['2', '3']",1,"[-0.03948169999785023, 0.10870250000152737]",140.56807970000227,None,,,,,,,,,001,2022_May_23_1222,TMT_fmri,2021.2.3,59.98821831237917,
TMTstop-Control_1_4.xlsx,78:104,18,['1'],1,TMTstop-control_1_4linestimulus15.png,TMTstop-control_1_4greenlinestimulus15.png,TMTstop-control_1_4redlinestimulus15.png,TMT_Control,4,93,None,1,,,,,,,,,,,,,,,,,0,1,1,1,0,17,17,17,,,,,,,,,,,,,,,,,,,,,,,,,,,,,,,,,,,,,,,,,,,,,,,1,1,113.11924040000304,140.77392959999997,None,['1'],1,[0.05042880000110017],140.77392959999997,None,,,,,,,,,001,2022_May_23_1222,TMT_fmri,2021.2.3,59.98821831237917,
TMTstop-Control_1_4.xlsx,78:104,19,['2'],2,TMTstop-control_1_4linestimulus16.png,TMTstop-control_1_4greenlinestimulus16.png,TMTstop-control_1_4redlinestimulus16.png,TMT_Control,4,94,None,1,,,,,,,,,,,,,,,,,0,1,1,1,0,18,18,18,,,,,,,,,,,,,,,,,,,,,,,,,,,,,,,,,,,,,,,,,,,,,,,1,1,113.17239050000353,140.88094380000257,None,['2'],1,[-0.011088600003859028],140.88094380000257,None,,,,,,,,,001,2022_May_23_1222,TMT_fmri,2021.2.3,59.98821831237917,
TMTstop-Control_1_4.xlsx,78:104,20,['1'],1,TMTstop-control_1_4linestimulus17.png,TMTstop-control_1_4greenlinestimulus17.png,TMTstop-control_1_4redlinestimulus17.png,TMT_Control,4,95,None,1,,,,,,,,,,,,,,,,,0,1,1,1,0,19,19,19,,,,,,,,,,,,,,,,,,,,,,,,,,,,,,,,,,,,,,,,,,,,,,,5,0,113.83787709999888,140.93096119999973,None,"['3', '1', '2', '3', '1']",1,"[0.09513600000354927, 0.27976380000473, 0.31356919999961974, 0.48082199999771547, 0.6045790999996825]",140.93096119999973,None,,,,,,,,,001,2022_May_23_1222,TMT_fmri,2021.2.3,59.98821831237917,
TMTstop-Control_1_4.xlsx,78:104,21,['2'],2,TMTstop-control_1_4linestimulus18.png,TMTstop-control_1_4greenlinestimulus18.png,TMTstop-control_1_4redlinestimulus18.png,TMT_Control,4,96,None,1,,,,,,,,,,,,,,,,,0,1,1,1,0,20,20,20,,,,,,,,,,,,,,,,,,,,,,,,,,,,,,,,,,,,,,,,,,,,,,,1,1,113.90450110000529,141.59653389999585,None,['2'],1,[0.005675800006429199],141.59653389999585,None,,,,,,,,,001,2022_May_23_1222,TMT_fmri,2021.2.3,59.98821831237917,
TMTstop-Control_1_4.xlsx,78:104,22,['1'],1,TMTstop-control_1_4linestimulus19.png,TMTstop-control_1_4greenlinestimulus19.png,TMTstop-control_1_4redlinestimulus19.png,TMT_Control,4,97,None,1,,,,,,,,,,,,,,,,,0,1,1,1,0,21,21,21,,,,,,,,,,,,,,,,,,,,,,,,,,,,,,,,,,,,,,,,,,,,,,,2,0,114.25014050000027,141.66931679999834,None,"['3', '1']",1,"[0.0812411999941105, 0.25994949999585515]",141.66931679999834,None,,,,,,,,,001,2022_May_23_1222,TMT_fmri,2021.2.3,59.98821831237917,
TMTstop-Control_1_4.xlsx,78:104,23,['2'],2,TMTstop-control_1_4linestimulus20.png,TMTstop-control_1_4greenlinestimulus20.png,TMTstop-control_1_4redlinestimulus20.png,TMT_Control,4,98,None,1,,,,,,,,,,,,,,,,,0,1,1,1,0,22,22,22,,,,,,,,,,,,,,,,,,,,,,,,,,,,,,,,,,,,,,,,,,,,,,,1,1,114.30108190000465,142.008948900002,None,['2'],1,[-0.0261129000064102],142.008948900002,None,,,,,,,,,001,2022_May_23_1222,TMT_fmri,2021.2.3,59.98821831237917,
TMTstop-Control_1_4.xlsx,78:104,24,['1'],1,TMTstop-control_1_4linestimulus21.png,TMTstop-control_1_4greenlinestimulus21.png,TMTstop-control_1_4redlinestimulus21.png,TMT_Control,4,99,None,1,,,,,,,,,,,,,,,,,0,1,1,1,0,23,23,23,,,,,,,,,,,,,,,,,,,,,,,,,,,,,,,,,,,,,,,,,,,,,,,2,0,114.60298830000102,142.0603306999983,None,"['3', '1']",1,"[0.06497130000207108, 0.2387938000028953]",142.0603306999983,None,,,,,,,,,001,2022_May_23_1222,TMT_fmri,2021.2.3,59.98821831237917,
TMTstop-Control_1_4.xlsx,78:104,25,['2'],2,TMTstop-control_1_4linestimulus22.png,TMTstop-control_1_4greenlinestimulus22.png,TMTstop-control_1_4redlinestimulus22.png,TMT_Control,4,100,None,1,,,,,,,,,,,,,,,,,0,1,1,1,0,24,24,24,,,,,,,,,,,,,,,,,,,,,,,,,,,,,,,,,,,,,,,,,,,,,,,1,1,114.65705990000424,142.36502779999864,None,['2'],1,[-0.026576399999612477],142.36502779999864,None,,,,,,,,,001,2022_May_23_1222,TMT_fmri,2021.2.3,59.98821831237917,
TMTstop-Control_1_4.xlsx,78:104,None,None,None,TMTstop-control_1_4linestimulus23.png,TMTstop-control_1_4greenlinestimulus23.png,TMTstop-control_1_4redlinestimulus23.png,TMT_Control,4,Feedback_last,None,1,,,,,,,,,,,,,,,,,0,1,1,1,0,25,25,25,,,,,,,,,,,,,,,,,,,,,,,,,,,,,,,,,,,,,,,,,,,,,,,1,1,,142.41503609999927,None,['3'],0,[0.05703609999909531],142.41503609999927,None,,,,,,,,,001,2022_May_23_1222,TMT_fmri,2021.2.3,59.98821831237917,
TMTstop-B_1_1.xlsx,0:26,1,['3'],3,TMTstop-B_1_1.png,TMTstop-B_1_1.png,TMTstop-B_1_1.png,TMT_B,1,1,1,3,,,,,,,,,,,,,,,,,,,,,,,,,0,0,0,0,0,0,0,0,,,,,,,,,,,,,,,,,,,,,,,,,,,,,,,,,,,,,,,3,0,129.60878810000577,,,,,,,,156.53213089999917,None,"['1', '2', '3']",1,"[0.5562648000050103, 0.638794999998936, 0.7794400999991922]",156.53213089999917,None,,001,2022_May_23_1222,TMT_fmri,2021.2.3,59.98821831237917,
TMTstop-B_1_1.xlsx,0:26,A,['1'],1,TMTstop-B_1_1.png,TMTstop-B_1_1firstgreen.png,TMTstop-B_1_1firstred.png,TMT_B,1,2,None,3,,,,,,,,,,,,,,,,,,,,,,,,,0,0,0,0,0,1,1,1,,,,,,,,,,,,,,,,,,,,,,,,,,,,,,,,,,,,,,,1,1,129.80286820000038,,,,,,,,157.37401600000157,None,['1'],1,[0.12213110000448069],157.37401600000157,None,,001,2022_May_23_1222,TMT_fmri,2021.2.3,59.98821831237917,
TMTstop-B_1_1.xlsx,0:26,2,['3'],3,TMTstop-B_1_1linestimulus0.png,TMTstop-B_1_1greenlinestimulus0.png,TMTstop-B_1_1redlinestimulus0.png,TMT_B,1,3,None,3,,,,,,,,,,,,,,,,,,,,,,,,,0,0,0,0,0,2,2,2,,,,,,,,,,,,,,,,,,,,,,,,,,,,,,,,,,,,,,,2,0,129.99594120000256,,,,,,,,157.56109819999983,None,"['2', '3']",1,"[-0.01960460000555031, 0.14388450000114972]",157.56109819999983,None,,001,2022_May_23_1222,TMT_fmri,2021.2.3,59.98821831237917,
TMTstop-B_1_1.xlsx,0:26,B,['2'],2,TMTstop-B_1_1linestimulus1.png,TMTstop-B_1_1greenlinestimulus1.png,TMTstop-B_1_1redlinestimulus1.png,TMT_B,1,4,None,3,,,,,,,,,,,,,,,,,,,,,,,,,0,0,0,0,0,3,3,3,,,,,,,,,,,,,,,,,,,,,,,,,,,,,,,,,,,,,,,2,0,130.23681600000418,,,,,,,,157.75414089999686,None,"['1', '2']",1,"[0.15002790000289679, 0.1756710000045132]",157.75414089999686,None,,001,2022_May_23_1222,TMT_fmri,2021.2.3,59.98821831237917,
TMTstop-B_1_1.xlsx,0:26,3,['1'],1,TMTstop-B_1_1linestimulus2.png,TMTstop-B_1_1greenlinestimulus2.png,TMTstop-B_1_1redlinestimulus2.png,TMT_B,1,5,None,3,,,,,,,,,,,,,,,,,,,,,,,,,0,0,0,0,0,4,4,4,,,,,,,,,,,,,,,,,,,,,,,,,,,,,,,,,,,,,,,5,0,130.9419280000002,,,,,,,,157.99517429999833,None,"['3', '1', '2', '3', '1']",1,"[0.08807249999517808, 0.3073502999977791, 0.32583019999583485, 0.48407700000097975, 0.6532103999998071]",157.99517429999833,None,,001,2022_May_23_1222,TMT_fmri,2021.2.3,59.98821831237917,
TMTstop-B_1_1.xlsx,0:26,C,['3'],3,TMTstop-B_1_1linestimulus3.png,TMTstop-B_1_1greenlinestimulus3.png,TMTstop-B_1_1redlinestimulus3.png,TMT_B,1,6,None,3,,,,,,,,,,,,,,,,,,,,,,,,,0,0,0,0,0,5,5,5,,,,,,,,,,,,,,,,,,,,,,,,,,,,,,,,,,,,,,,2,0,131.179925000004,,,,,,,,158.7001025999998,None,"['2', '3']",1,"[0.0052829000051133335, 0.14656720000493806]",158.7001025999998,None,,001,2022_May_23_1222,TMT_fmri,2021.2.3,59.98821831237917,
TMTstop-B_1_1.xlsx,0:26,4,['2'],2,TMTstop-B_1_1linestimulus4.png,TMTstop-B_1_1greenlinestimulus4.png,TMTstop-B_1_1redlinestimulus4.png,TMT_B,1,7,None,3,,,,,,,,,,,,,,,,,,,,,,,,,0,0,0,0,0,6,6,6,,,,,,,,,,,,,,,,,,,,,,,,,,,,,,,,,,,,,,,2,0,131.3819380000059,,,,,,,,158.94024270000227,None,"['1', '2']",1,"[0.09310749999713153, 0.14293109999562148]",158.94024270000227,None,,001,2022_May_23_1222,TMT_fmri,2021.2.3,59.98821831237917,
TMTstop-B_1_1.xlsx,0:26,D,['1'],1,TMTstop-B_1_1linestimulus5.png,TMTstop-B_1_1greenlinestimulus5.png,TMTstop-B_1_1redlinestimulus5.png,TMT_B,1,8,None,3,,,,,,,,,,,,,,,,,,,,,,,,,0,0,0,0,0,7,7,7,,,,,,,,,,,,,,,,,,,,,,,,,,,,,,,,,,,,,,,2,0,131.70105680000415,,,,,,,,159.14648060000036,None,"['3', '1']",1,"[0.06188339999789605, 0.2545962000003783]",159.14648060000036,None,,001,2022_May_23_1222,TMT_fmri,2021.2.3,59.98821831237917,
TMTstop-B_1_1.xlsx,0:26,5,['3'],3,TMTstop-B_1_1linestimulus6.png,TMTstop-B_1_1greenlinestimulus6.png,TMTstop-B_1_1redlinestimulus6.png,TMT_B,1,9,None,3,,,,,,,,,,,,,,,,,,,,,,,,,0,0,0,0,0,8,8,8,,,,,,,,,,,,,,,,,,,,,,,,,,,,,,,,,,,,,,,2,0,131.90090140000393,,,,,,,,159.45897110000078,None,"['2', '3']",1,"[-0.031430299997737166, 0.12352230000396958]",159.45897110000078,None,,001,2022_May_23_1222,TMT_fmri,2021.2.3,59.98821831237917,
TMTstop-B_1_1.xlsx,0:26,E,['1'],1,TMTstop-B_1_1linestimulus7.png,TMTstop-B_1_1greenlinestimulus7.png,TMTstop-B_1_1redlinestimulus7.png,TMT_B,1,10,None,3,,,,,,,,,,,,,,,,,,,,,,,,,0,0,0,0,0,9,9,9,,,,,,,,,,,,,,,,,,,,,,,,,,,,,,,,,,,,,,,1,1,132.05193310000323,,,,,,,,159.65933819999918,None,['1'],1,[0.09755949999816949],159.65933819999918,None,,001,2022_May_23_1222,TMT_fmri,2021.2.3,59.98821831237917,
TMTstop-B_1_1.xlsx,0:26,6,['3'],3,TMTstop-B_1_1linestimulus8.png,TMTstop-B_1_1greenlinestimulus8.png,TMTstop-B_1_1redlinestimulus8.png,TMT_B,1,11,None,3,,,,,,,,,,,,,,,,,,,,,,,,,0,0,0,0,0,10,10,10,,,,,,,,,,,,,,,,,,,,,,,,,,,,,,,,,,,,,,,2,0,132.26479540000582,,,,,,,,159.80995059999987,None,"['2', '3']",1,"[-0.011111899999377783, 0.13994890000321902]",159.80995059999987,None,,001,2022_May_23_1222,TMT_fmri,2021.2.3,59.98821831237917,
TMTstop-B_1_1.xlsx,0:26,F,['1'],1,TMTstop-B_1_1linestimulus9.png,TMTstop-B_1_1greenlinestimulus9.png,TMTstop-B_1_1redlinestimulus9.png,TMT_B,1,12,None,3,,,,,,,,,,,,,,,,,,,,,,,,,0,0,0,0,0,11,11,11,,,,,,,,,,,,,,,,,,,,,,,,,,,,,,,,,,,,,,,1,1,132.41549690000102,,,,,,,,160.02312749999692,None,['1'],1,[0.08858169999439269],160.02312749999692,None,,001,2022_May_23_1222,TMT_fmri,2021.2.3,59.98821831237917,
TMTstop-B_1_1.xlsx,0:26,7,['3'],3,TMTstop-B_1_1linestimulus10.png,TMTstop-B_1_1greenlinestimulus10.png,TMTstop-B_1_1redlinestimulus10.png,TMT_B,1,13,None,3,,,,,,,,,,,,,,,,,,,,,,,,,0,0,0,0,0,12,12,12,,,,,,,,,,,,,,,,,,,,,,,,,,,,,,,,,,,,,,,2,0,132.6279926999996,,,,,,,,160.17324440000084,None,"['2', '3']",1,"[-0.03176839999650838, 0.12148220000381116]",160.17324440000084,None,,001,2022_May_23_1222,TMT_fmri,2021.2.3,59.98821831237917,
TMTstop-B_1_1.xlsx,0:26,G,['2'],2,TMTstop-B_1_1linestimulus11.png,TMTstop-B_1_1greenlinestimulus11.png,TMTstop-B_1_1redlinestimulus11.png,TMT_B,1,14,None,3,,,,,,,,,,,,,,,,,,,,,,,,,0,0,0,0,0,13,13,13,,,,,,,,,,,,,,,,,,,,,,,,,,,,,,,,,,,,,,,2,0,132.79498890000104,,,,,,,,160.3866754999981,None,"['1', '2']",1,"[0.05353760000434704, 0.11685399999987567]",160.3866754999981,None,,001,2022_May_23_1222,TMT_fmri,2021.2.3,59.98821831237917,
TMTstop-B_1_1.xlsx,0:26,8,['3'],3,TMTstop-B_1_1linestimulus12.png,TMTstop-B_1_1greenlinestimulus12.png,TMTstop-B_1_1redlinestimulus12.png,TMT_B,1,15,None,3,,,,,,,,,,,,,,,,,,,,,,,,,0,0,0,0,0,14,14,14,,,,,,,,,,,,,,,,,,,,,,,,,,,,,,,,,,,,,,,1,1,132.95198000000528,,,,,,,,160.5598581000013,None,['3'],1,[0.09537139999883948],160.5598581000013,None,,001,2022_May_23_1222,TMT_fmri,2021.2.3,59.98821831237917,
TMTstop-B_1_1.xlsx,0:26,H,['1'],1,TMTstop-B_1_1linestimulus13.png,TMTstop-B_1_1greenlinestimulus13.png,TMTstop-B_1_1redlinestimulus13.png,TMT_B,1,16,None,3,,,,,,,,,,,,,,,,,,,,,,,,,0,0,0,0,0,15,15,15,,,,,,,,,,,,,,,,,,,,,,,,,,,,,,,,,,,,,,,1,1,133.1019751999993,,,,,,,,160.71010350000142,None,['1'],1,[0.09971289999521105],160.71010350000142,None,,001,2022_May_23_1222,TMT_fmri,2021.2.3,59.98821831237917,
TMTstop-B_1_1.xlsx,0:26,9,['3'],3,TMTstop-B_1_1linestimulus14.png,TMTstop-B_1_1greenlinestimulus14.png,TMTstop-B_1_1redlinestimulus14.png,TMT_B,1,17,None,3,,,,,,,,,,,,,,,,,,,,,,,,,0,0,0,0,0,16,16,16,,,,,,,,,,,,,,,,,,,,,,,,,,,,,,,,,,,,,,,2,0,133.32395520000136,,,,,,,,160.86842729999626,None,"['2', '3']",1,"[-0.015398799994727597, 0.1393504000006942]",160.86842729999626,None,,001,2022_May_23_1222,TMT_fmri,2021.2.3,59.98821831237917,
TMTstop-B_1_1.xlsx,0:26,I,['2'],2,TMTstop-B_1_1linestimulus15.png,TMTstop-B_1_1greenlinestimulus15.png,TMTstop-B_1_1redlinestimulus15.png,TMT_B,1,18,None,3,,,,,,,,,,,,,,,,,,,,,,,,,0,0,0,0,0,17,17,17,,,,,,,,,,,,,,,,,,,,,,,,,,,,,,,,,,,,,,,2,0,133.52398200000607,,,,,,,,161.0819483000014,None,"['1', '2']",1,"[0.09498910000547767, 0.1420012000016868]",161.0819483000014,None,,001,2022_May_23_1222,TMT_fmri,2021.2.3,59.98821831237917,
TMTstop-B_1_1.xlsx,0:26,10,['3'],3,TMTstop-B_1_1linestimulus16.png,TMTstop-B_1_1greenlinestimulus16.png,TMTstop-B_1_1redlinestimulus16.png,TMT_B,1,19,None,3,,,,,,,,,,,,,,,,,,,,,,,,,0,0,0,0,0,18,18,18,,,,,,,,,,,,,,,,,,,,,,,,,,,,,,,,,,,,,,,1,1,133.70759399999952,,,,,,,,161.28218280000146,None,['3'],1,[0.12452299999858951],161.28218280000146,None,,001,2022_May_23_1222,TMT_fmri,2021.2.3,59.98821831237917,
TMTstop-B_1_1.xlsx,0:26,J,['2'],2,TMTstop-B_1_1linestimulus17.png,TMTstop-B_1_1greenlinestimulus17.png,TMTstop-B_1_1redlinestimulus17.png,TMT_B,1,20,None,3,,,,,,,,,,,,,,,,,,,,,,,,,0,0,0,0,0,19,19,19,,,,,,,,,,,,,,,,,,,,,,,,,,,,,,,,,,,,,,,2,0,133.95528919999924,,,,,,,,161.4734888000021,None,"['1', '2']",1,"[0.090232599999581, 0.14256919999752427]",161.4734888000021,None,,001,2022_May_23_1222,TMT_fmri,2021.2.3,59.98821831237917,
TMTstop-B_1_1.xlsx,0:26,11,['1'],1,TMTstop-B_1_1linestimulus18.png,TMTstop-B_1_1greenlinestimulus18.png,TMTstop-B_1_1redlinestimulus18.png,TMT_B,1,21,None,3,,,,,,,,,,,,,,,,,,,,,,,,,0,0,0,0,0,20,20,20,,,,,,,,,,,,,,,,,,,,,,,,,,,,,,,,,,,,,,,2,0,134.26237650000257,,,,,,,,161.7142257000014,None,"['3', '1']",1,"[0.09558160000597127, 0.24537880000571022]",161.7142257000014,None,,001,2022_May_23_1222,TMT_fmri,2021.2.3,59.98821831237917,
TMTstop-B_1_1.xlsx,0:26,K,['2'],2,TMTstop-B_1_1linestimulus19.png,TMTstop-B_1_1greenlinestimulus19.png,TMTstop-B_1_1redlinestimulus19.png,TMT_B,1,22,None,3,,,,,,,,,,,,,,,,,,,,,,,,,0,0,0,0,0,21,21,21,,,,,,,,,,,,,,,,,,,,,,,,,,,,,,,,,,,,,,,1,1,134.31929390000005,,,,,,,,162.02707910000026,None,['2'],1,[-0.017015500001434702],162.02707910000026,None,,001,2022_May_23_1222,TMT_fmri,2021.2.3,59.98821831237917,
TMTstop-B_1_1.xlsx,0:26,12,['1'],1,TMTstop-B_1_1linestimulus20.png,TMTstop-B_1_1greenlinestimulus20.png,TMTstop-B_1_1redlinestimulus20.png,TMT_B,1,23,None,3,,,,,,,,,,,,,,,,,,,,,,,,,0,0,0,0,0,22,22,22,,,,,,,,,,,,,,,,,,,,,,,,,,,,,,,,,,,,,,,2,0,134.64229419999901,,,,,,,,162.0765253999998,None,"['3', '1']",1,"[0.11384669999824837, 0.2694006999954581]",162.0765253999998,None,,001,2022_May_23_1222,TMT_fmri,2021.2.3,59.98821831237917,
TMTstop-B_1_1.xlsx,0:26,L,['2'],2,TMTstop-B_1_1linestimulus21.png,TMTstop-B_1_1greenlinestimulus21.png,TMTstop-B_1_1redlinestimulus21.png,TMT_B,1,24,None,3,,,,,,,,,,,,,,,,,,,,,,,,,0,0,0,0,0,23,23,23,,,,,,,,,,,,,,,,,,,,,,,,,,,,,,,,,,,,,,,1,1,134.7152900000001,,,,,,,,162.40653310000198,None,['2'],1,[0.004811499995412305],162.40653310000198,None,,001,2022_May_23_1222,TMT_fmri,2021.2.3,59.98821831237917,
TMTstop-B_1_1.xlsx,0:26,13,['1'],1,TMTstop-B_1_1linestimulus22.png,TMTstop-B_1_1greenlinestimulus22.png,TMTstop-B_1_1redlinestimulus22.png,TMT_B,1,25,None,3,,,,,,,,,,,,,,,,,,,,,,,,,0,0,0,0,0,24,24,24,,,,,,,,,,,,,,,,,,,,,,,,,,,,,,,,,,,,,,,2,0,135.0431666000004,,,,,,,,162.47976339999877,None,"['3', '1']",1,"[0.10253010000451468, 0.26839960000506835]",162.47976339999877,None,,001,2022_May_23_1222,TMT_fmri,2021.2.3,59.98821831237917,
TMTstop-B_1_1.xlsx,0:26,None,None,None,TMTstop-B_1_1linestimulus23.png,TMTstop-B_1_1greenlinestimulus23.png,TMTstop-B_1_1redlinestimulus23.png,TMT_B,1,Feedback_last,None,3,,,,,,,,,,,,,,,,,,,,,,,,,0,0,0,0,0,25,25,25,,,,,,,,,,,,,,,,,,,,,,,,,,,,,,,,,,,,,,,2,0,,,,,,,,,162.8092947999976,None,"['2', '3']",0,"[0.0036959000062779523, 0.15931790000468027]",162.8092947999976,None,,001,2022_May_23_1222,TMT_fmri,2021.2.3,59.98821831237917,
TMTstop-B_1_2.xlsx,26:52,1,['1'],1,TMTstop-B_1_2.png,TMTstop-B_1_2.png,TMTstop-B_1_2.png,TMT_B,2,26,None,3,,,,,,,,,,,,,,,,,,,,,,,,,0,1,1,1,0,0,0,0,,,,,,,,,,,,,,,,,,,,,,,,,,,,,,,,,,,,,,,1,1,139.66099000000395,,,,,,,,166.91741809999803,None,['1'],1,[0.45121719999588095],166.91741809999803,None,,001,2022_May_23_1222,TMT_fmri,2021.2.3,59.98821831237917,
TMTstop-B_1_2.xlsx,26:52,A,['2'],2,TMTstop-B_1_2.png,TMTstop-B_1_2firstgreen.png,TMTstop-B_1_2firstred.png,TMT_B,2,27,None,3,,,,,,,,,,,,,,,,,,,,,,,,,0,1,1,1,0,1,1,1,,,,,,,,,,,,,,,,,,,,,,,,,,,,,,,,,,,,,,,1,1,139.76799980000214,,,,,,,,167.4266024000026,None,['2'],1,[0.03926599999977043],167.4266024000026,None,,001,2022_May_23_1222,TMT_fmri,2021.2.3,59.98821831237917,
TMTstop-B_1_2.xlsx,26:52,2,['1'],1,TMTstop-B_1_2linestimulus0.png,TMTstop-B_1_2greenlinestimulus0.png,TMTstop-B_1_2redlinestimulus0.png,TMT_B,2,28,None,3,,,,,,,,,,,,,,,,,,,,,,,,,0,1,1,1,0,2,2,2,,,,,,,,,,,,,,,,,,,,,,,,,,,,,,,,,,,,,,,2,0,140.06294550000166,,,,,,,,167.52632099999755,None,"['3', '1']",1,"[0.049642099998891354, 0.21530930000153603]",167.52632099999755,None,,001,2022_May_23_1222,TMT_fmri,2021.2.3,59.98821831237917,
TMTstop-B_1_2.xlsx,26:52,B,['2'],2,TMTstop-B_1_2linestimulus1.png,TMTstop-B_1_2greenlinestimulus1.png,TMTstop-B_1_2redlinestimulus1.png,TMT_B,2,29,None,3,,,,,,,,,,,,,,,,,,,,,,,,,0,1,1,1,0,3,3,3,,,,,,,,,,,,,,,,,,,,,,,,,,,,,,,,,,,,,,,1,1,140.11396049999894,,,,,,,,167.8219836999997,None,['2'],1,[-0.03114419999474194],167.8219836999997,None,,001,2022_May_23_1222,TMT_fmri,2021.2.3,59.98821831237917,
TMTstop-B_1_2.xlsx,26:52,3,['1'],1,TMTstop-B_1_2linestimulus2.png,TMTstop-B_1_2greenlinestimulus2.png,TMTstop-B_1_2redlinestimulus2.png,TMT_B,2,30,None,3,,,,,,,,,,,,,,,,,,,,,,,,,0,1,1,1,0,4,4,4,,,,,,,,,,,,,,,,,,,,,,,,,,,,,,,,,,,,,,,2,0,140.3538050999996,,,,,,,,167.87194630000158,None,"['3', '1']",1,"[0.032915800002228934, 0.18575540000165347]",167.87194630000158,None,,001,2022_May_23_1222,TMT_fmri,2021.2.3,59.98821831237917,
TMTstop-B_1_2.xlsx,26:52,C,['3'],3,TMTstop-B_1_2linestimulus3.png,TMTstop-B_1_2greenlinestimulus3.png,TMTstop-B_1_2redlinestimulus3.png,TMT_B,2,31,None,3,,,,,,,,,,,,,,,,,,,,,,,,,0,1,1,1,0,5,5,5,,,,,,,,,,,,,,,,,,,,,,,,,,,,,,,,,,,,,,,2,0,140.55398340000102,,,,,,,,168.11236500000086,None,"['2', '3']",1,"[-0.022601300006499514, 0.11396959999547107]",168.11236500000086,None,,001,2022_May_23_1222,TMT_fmri,2021.2.3,59.98821831237917,
TMTstop-B_1_2.xlsx,26:52,4,['2'],2,TMTstop-B_1_2linestimulus4.png,TMTstop-B_1_2greenlinestimulus4.png,TMTstop-B_1_2redlinestimulus4.png,TMT_B,2,32,None,3,,,,,,,,,,,,,,,,,,,,,,,,,0,1,1,1,0,6,6,6,,,,,,,,,,,,,,,,,,,,,,,,,,,,,,,,,,,,,,,2,0,140.7877886999995,,,,,,,,168.31255819999933,None,"['1', '2']",1,"[0.07880760000261944, 0.14586789999884786]",168.31255819999933,None,,001,2022_May_23_1222,TMT_fmri,2021.2.3,59.98821831237917,
TMTstop-B_1_2.xlsx,26:52,D,['1'],1,TMTstop-B_1_2linestimulus5.png,TMTstop-B_1_2greenlinestimulus5.png,TMTstop-B_1_2redlinestimulus5.png,TMT_B,2,33,None,3,,,,,,,,,,,,,,,,,,,,,,,,,0,1,1,1,0,7,7,7,,,,,,,,,,,,,,,,,,,,,,,,,,,,,,,,,,,,,,,2,0,141.0459478000048,,,,,,,,168.54581669999607,None,"['3', '1']",1,"[0.03274369999417104, 0.17625659999612253]",168.54581669999607,None,,001,2022_May_23_1222,TMT_fmri,2021.2.3,59.98821831237917,
TMTstop-B_1_2.xlsx,26:52,5,['2'],2,TMTstop-B_1_2linestimulus6.png,TMTstop-B_1_2greenlinestimulus6.png,TMTstop-B_1_2redlinestimulus6.png,TMT_B,2,34,None,3,,,,,,,,,,,,,,,,,,,,,,,,,0,1,1,1,0,8,8,8,,,,,,,,,,,,,,,,,,,,,,,,,,,,,,,,,,,,,,,1,1,141.09595140000602,,,,,,,,168.8042093999975,None,['2'],1,[-0.044161899997561704],168.8042093999975,None,,001,2022_May_23_1222,TMT_fmri,2021.2.3,59.98821831237917,
TMTstop-B_1_2.xlsx,26:52,E,['3'],3,TMTstop-B_1_2linestimulus7.png,TMTstop-B_1_2greenlinestimulus7.png,TMTstop-B_1_2redlinestimulus7.png,TMT_B,2,35,None,3,,,,,,,,,,,,,,,,,,,,,,,,,0,1,1,1,0,9,9,9,,,,,,,,,,,,,,,,,,,,,,,,,,,,,,,,,,,,,,,1,1,141.19607489999908,,,,,,,,168.85397669999657,None,['3'],1,[0.04980709999654209],168.85397669999657,None,,001,2022_May_23_1222,TMT_fmri,2021.2.3,59.98821831237917,
TMTstop-B_1_2.xlsx,26:52,6,['1'],1,TMTstop-B_1_2linestimulus8.png,TMTstop-B_1_2greenlinestimulus8.png,TMTstop-B_1_2redlinestimulus8.png,TMT_B,2,36,None,3,,,,,,,,,,,,,,,,,,,,,,,,,0,1,1,1,0,10,10,10,,,,,,,,,,,,,,,,,,,,,,,,,,,,,,,,,,,,,,,1,1,141.34597750000103,,,,,,,,168.9537382999988,None,['1'],1,[0.09401159999833908],168.9537382999988,None,,001,2022_May_23_1222,TMT_fmri,2021.2.3,59.98821831237917,
TMTstop-B_1_2.xlsx,26:52,F,['3'],3,TMTstop-B_1_2linestimulus9.png,TMTstop-B_1_2greenlinestimulus9.png,TMTstop-B_1_2redlinestimulus9.png,TMT_B,2,37,None,3,,,,,,,,,,,,,,,,,,,,,,,,,0,1,1,1,0,11,11,11,,,,,,,,,,,,,,,,,,,,,,,,,,,,,,,,,,,,,,,2,0,141.59116110000468,,,,,,,,169.1045157999979,None,"['2', '3']",1,"[-0.01104230000055395, 0.14868869999918388]",169.1045157999979,None,,001,2022_May_23_1222,TMT_fmri,2021.2.3,59.98821831237917,
TMTstop-B_1_2.xlsx,26:52,7,['1'],1,TMTstop-B_1_2linestimulus10.png,TMTstop-B_1_2greenlinestimulus10.png,TMTstop-B_1_2redlinestimulus10.png,TMT_B,2,38,None,3,,,,,,,,,,,,,,,,,,,,,,,,,0,1,1,1,0,12,12,12,,,,,,,,,,,,,,,,,,,,,,,,,,,,,,,,,,,,,,,1,1,141.70818690000306,,,,,,,,169.34946599999967,None,['1'],1,[0.06255850000161445],169.34946599999967,None,,001,2022_May_23_1222,TMT_fmri,2021.2.3,59.98821831237917,
TMTstop-B_1_2.xlsx,26:52,G,['2'],2,TMTstop-B_1_2linestimulus11.png,TMTstop-B_1_2greenlinestimulus11.png,TMTstop-B_1_2redlinestimulus11.png,TMT_B,2,39,None,3,,,,,,,,,,,,,,,,,,,,,,,,,0,1,1,1,0,13,13,13,,,,,,,,,,,,,,,,,,,,,,,,,,,,,,,,,,,,,,,1,1,141.7582285000026,,,,,,,,169.4660855999973,None,['2'],1,[-0.016987700000754558],169.4660855999973,None,,001,2022_May_23_1222,TMT_fmri,2021.2.3,59.98821831237917,
TMTstop-B_1_2.xlsx,26:52,8,['1'],1,TMTstop-B_1_2linestimulus12.png,TMTstop-B_1_2greenlinestimulus12.png,TMTstop-B_1_2redlinestimulus12.png,TMT_B,2,40,None,3,,,,,,,,,,,,,,,,,,,,,,,,,0,1,1,1,0,14,14,14,,,,,,,,,,,,,,,,,,,,,,,,,,,,,,,,,,,,,,,5,0,142.65778649999993,,,,,,,,169.52303140000004,None,"['3', '1', '2', '3', '1']",1,"[0.07617169999866746, 0.48160900000220863, 0.48825480000232346, 0.6939899999997579, 0.8413029000003007]",169.52303140000004,None,,001,2022_May_23_1222,TMT_fmri,2021.2.3,59.98821831237917,
TMTstop-B_1_2.xlsx,26:52,H,['2'],2,TMTstop-B_1_2linestimulus13.png,TMTstop-B_1_2greenlinestimulus13.png,TMTstop-B_1_2redlinestimulus13.png,TMT_B,2,41,None,3,,,,,,,,,,,,,,,,,,,,,,,,,0,1,1,1,0,15,15,15,,,,,,,,,,,,,,,,,,,,,,,,,,,,,,,,,,,,,,,1,1,142.74293550000584,,,,,,,,170.41768189999857,None,['2'],1,[0.008346800001163501],170.41768189999857,None,,001,2022_May_23_1222,TMT_fmri,2021.2.3,59.98821831237917,
TMTstop-B_1_2.xlsx,26:52,9,['3'],3,TMTstop-B_1_2linestimulus14.png,TMTstop-B_1_2greenlinestimulus14.png,TMTstop-B_1_2redlinestimulus14.png,TMT_B,2,42,None,3,,,,,,,,,,,,,,,,,,,,,,,,,0,1,1,1,0,16,16,16,,,,,,,,,,,,,,,,,,,,,,,,,,,,,,,,,,,,,,,1,1,142.84357300000556,,,,,,,,170.5012979999956,None,['3'],1,[0.04721369999606395],170.5012979999956,None,,001,2022_May_23_1222,TMT_fmri,2021.2.3,59.98821831237917,
TMTstop-B_1_2.xlsx,26:52,I,['1'],1,TMTstop-B_1_2linestimulus15.png,TMTstop-B_1_2greenlinestimulus15.png,TMTstop-B_1_2redlinestimulus15.png,TMT_B,2,43,None,3,,,,,,,,,,,,,,,,,,,,,,,,,0,1,1,1,0,17,17,17,,,,,,,,,,,,,,,,,,,,,,,,,,,,,,,,,,,,,,,1,1,142.9926873000004,,,,,,,,170.60140539999702,None,['1'],1,[0.09913950000191107],170.60140539999702,None,,001,2022_May_23_1222,TMT_fmri,2021.2.3,59.98821831237917,
TMTstop-B_1_2.xlsx,26:52,10,['2'],2,TMTstop-B_1_2linestimulus16.png,TMTstop-B_1_2greenlinestimulus16.png,TMTstop-B_1_2redlinestimulus16.png,TMT_B,2,44,None,3,,,,,,,,,,,,,,,,,,,,,,,,,0,1,1,1,0,18,18,18,,,,,,,,,,,,,,,,,,,,,,,,,,,,,,,,,,,,,,,1,1,143.05968830000347,,,,,,,,170.75165349999588,None,['2'],1,[0.008140800004184712],170.75165349999588,None,,001,2022_May_23_1222,TMT_fmri,2021.2.3,59.98821831237917,
