NumberLetter,corrAns,Correct,StimFile,Correct_StimFile,False_StimFile,Version,Block,TrialNumber_session,n,Stim.started_mean,Stim.started_raw,Stim.started_std,Stim.stopped_raw,key_resp_2.corr_mean,key_resp_2.corr_raw,key_resp_2.corr_std,key_resp_2.keys_raw,key_resp_2.rt_raw,key_resp_2.started_mean,key_resp_2.started_raw,key_resp_2.started_std,key_resp_2.stopped_raw,order
1,['3'],3,TMTstop-B_1_1.png,TMTstop-B_1_1.png,TMTstop-B_1_1.png,TMT_B,1,1,1.0,114.18792724609375,114.18792724609375,0.0,,1.0,1.0,0.0,1,2,3,0.5554288999992423,0.6495908999931999,0.7489491000014823,114.18792724609375,114.18792724609375,0.0,,0.0
A,['1'],1,TMTstop-B_1_1.png,TMTstop-B_1_1firstgreen.png,TMTstop-B_1_1firstred.png,TMT_B,1,2,1.0,115.02471923828125,115.02471923828125,0.0,,1.0,1.0,0.0,1,0.10082829999737442,115.02471923828125,115.02471923828125,0.0,,1.0
2,['3'],3,TMTstop-B_1_1linestimulus0.png,TMTstop-B_1_1greenlinestimulus0.png,TMTstop-B_1_1redlinestimulus0.png,TMT_B,1,3,1.0,115.17539978027344,115.17539978027344,0.0,,1.0,1.0,0.0,2,3,0.008456299983663484,0.1638379999785684,115.17539978027344,115.17539978027344,0.0,,2.0
B,['2'],2,TMTstop-B_1_1linestimulus1.png,TMTstop-B_1_1greenlinestimulus1.png,TMTstop-B_1_1redlinestimulus1.png,TMT_B,1,4,1.0,115.39910888671875,115.39910888671875,0.0,,1.0,1.0,0.0,1,2,0.08948759999475442,0.15691900000092573,115.39910888671875,115.39910888671875,0.0,,3.0
3,['1'],1,TMTstop-B_1_1linestimulus2.png,TMTstop-B_1_1greenlinestimulus2.png,TMTstop-B_1_1redlinestimulus2.png,TMT_B,1,5,1.0,115.6563720703125,115.6563720703125,0.0,,1.0,1.0,0.0,3,1,0.013232500001322478,0.13733629998750985,115.6563720703125,115.6563720703125,0.0,,4.0
C,['3'],3,TMTstop-B_1_1linestimulus3.png,TMTstop-B_1_1greenlinestimulus3.png,TMTstop-B_1_1redlinestimulus3.png,TMT_B,1,6,1.0,115.88501739501953,115.88501739501953,0.0,,1.0,1.0,0.0,2,3,-0.02482259998214431,0.0784577000013087,115.88501739501953,115.88501739501953,0.0,,5.0
4,['2'],2,TMTstop-B_1_1linestimulus4.png,TMTstop-B_1_1greenlinestimulus4.png,TMTstop-B_1_1redlinestimulus4.png,TMT_B,1,7,1.0,116.0384750366211,116.0384750366211,0.0,,1.0,1.0,0.0,1,2,0.07180210002115928,0.12933739999425597,116.0384750366211,116.0384750366211,0.0,,6.0
D,['1'],1,TMTstop-B_1_1linestimulus5.png,TMTstop-B_1_1greenlinestimulus5.png,TMTstop-B_1_1redlinestimulus5.png,TMT_B,1,8,1.0,116.22216796875,116.22216796875,0.0,,1.0,1.0,0.0,3,1,0.07182080001803115,0.19443840000894852,116.22216796875,116.22216796875,0.0,,7.0
5,['3'],3,TMTstop-B_1_1linestimulus6.png,TMTstop-B_1_1greenlinestimulus6.png,TMTstop-B_1_1redlinestimulus6.png,TMT_B,1,9,1.0,116.51663208007812,116.51663208007812,0.0,,1.0,1.0,0.0,3,0.06165059999329969,116.51663208007812,116.51663208007812,0.0,,8.0
E,['1'],1,TMTstop-B_1_1linestimulus7.png,TMTstop-B_1_1greenlinestimulus7.png,TMTstop-B_1_1redlinestimulus7.png,TMT_B,1,10,1.0,116.63336944580078,116.63336944580078,0.0,,1.0,1.0,0.0,1,0.06407309998758137,116.63336944580078,116.63336944580078,0.0,,9.0
6,['3'],3,TMTstop-B_1_1linestimulus8.png,TMTstop-B_1_1greenlinestimulus8.png,TMTstop-B_1_1redlinestimulus8.png,TMT_B,1,11,1.0,116.75028228759766,116.75028228759766,0.0,,1.0,1.0,0.0,2,3,-0.02043279999634251,0.1071290000109002,116.75028228759766,116.75028228759766,0.0,,10.0
F,['1'],1,TMTstop-B_1_1linestimulus9.png,TMTstop-B_1_1greenlinestimulus9.png,TMTstop-B_1_1redlinestimulus9.png,TMT_B,1,12,1.0,116.91159057617188,116.91159057617188,0.0,,1.0,1.0,0.0,1,0.08880890000727959,116.91159057617188,116.91159057617188,0.0,,11.0
7,['3'],3,TMTstop-B_1_1linestimulus10.png,TMTstop-B_1_1greenlinestimulus10.png,TMTstop-B_1_1redlinestimulus10.png,TMT_B,1,13,1.0,117.06158447265625,117.06158447265625,0.0,,1.0,1.0,0.0,2,3,-0.025801799987675622,0.1071533000213094,117.06158447265625,117.06158447265625,0.0,,12.0
G,['2'],2,TMTstop-B_1_1linestimulus11.png,TMTstop-B_1_1greenlinestimulus11.png,TMTstop-B_1_1redlinestimulus11.png,TMT_B,1,14,1.0,117.22527313232422,117.22527313232422,0.0,,1.0,1.0,0.0,1,2,0.07727290000184439,0.12243600000510924,117.22527313232422,117.22527313232422,0.0,,13.0
8,['3'],3,TMTstop-B_1_1linestimulus12.png,TMTstop-B_1_1greenlinestimulus12.png,TMTstop-B_1_1redlinestimulus12.png,TMT_B,1,15,1.0,117.41590118408203,117.41590118408203,0.0,,1.0,1.0,0.0,3,0.08440619998145849,117.41590118408203,117.41590118408203,0.0,,14.0
H,['1'],1,TMTstop-B_1_1linestimulus13.png,TMTstop-B_1_1greenlinestimulus13.png,TMTstop-B_1_1redlinestimulus13.png,TMT_B,1,16,1.0,117.55035400390625,117.55035400390625,0.0,,1.0,1.0,0.0,1,0.08152390000759624,117.55035400390625,117.55035400390625,0.0,,15.0
9,['3'],3,TMTstop-B_1_1linestimulus14.png,TMTstop-B_1_1greenlinestimulus14.png,TMTstop-B_1_1redlinestimulus14.png,TMT_B,1,17,1.0,117.68386840820312,117.68386840820312,0.0,,1.0,1.0,0.0,2,3,0.016726500005461276,0.16013869998278096,117.68386840820312,117.68386840820312,0.0,,16.0
I,['2'],2,TMTstop-B_1_1linestimulus15.png,TMTstop-B_1_1greenlinestimulus15.png,TMTstop-B_1_1redlinestimulus15.png,TMT_B,1,18,1.0,117.91249084472656,117.91249084472656,0.0,,1.0,1.0,0.0,1,2,0.09178529999917373,0.18001330000697635,117.91249084472656,117.91249084472656,0.0,,17.0
10,['3'],3,TMTstop-B_1_1linestimulus16.png,TMTstop-B_1_1greenlinestimulus16.png,TMTstop-B_1_1redlinestimulus16.png,TMT_B,1,19,1.0,118.16980743408203,118.16980743408203,0.0,,1.0,1.0,0.0,3,0.0764132000040263,118.16980743408203,118.16980743408203,0.0,,18.0
J,['2'],2,TMTstop-B_1_1linestimulus17.png,TMTstop-B_1_1greenlinestimulus17.png,TMTstop-B_1_1redlinestimulus17.png,TMT_B,1,20,1.0,118.30280303955078,118.30280303955078,0.0,,1.0,1.0,0.0,1,2,0.10550480001256801,0.16986000002361834,118.30280303955078,118.30280303955078,0.0,,19.0
11,['1'],1,TMTstop-B_1_1linestimulus18.png,TMTstop-B_1_1greenlinestimulus18.png,TMTstop-B_1_1redlinestimulus18.png,TMT_B,1,21,1.0,118.5279541015625,118.5279541015625,0.0,,1.0,1.0,0.0,3,1,0.05838809997658245,0.18162279998068698,118.5279541015625,118.5279541015625,0.0,,20.0
K,['2'],2,TMTstop-B_1_1linestimulus19.png,TMTstop-B_1_1greenlinestimulus19.png,TMTstop-B_1_1redlinestimulus19.png,TMT_B,1,22,1.0,118.80506134033203,118.80506134033203,0.0,,1.0,1.0,0.0,2,-0.0256807999976445,118.80506134033203,118.80506134033203,0.0,,21.0
12,['1'],1,TMTstop-B_1_1linestimulus20.png,TMTstop-B_1_1greenlinestimulus20.png,TMTstop-B_1_1redlinestimulus20.png,TMT_B,1,23,1.0,118.85559844970703,118.85559844970703,0.0,,1.0,1.0,0.0,3,1,0.011980499984929338,0.1424255999736488,118.85559844970703,118.85559844970703,0.0,,22.0
L,['2'],2,TMTstop-B_1_1linestimulus21.png,TMTstop-B_1_1greenlinestimulus21.png,TMTstop-B_1_1redlinestimulus21.png,TMT_B,1,24,1.0,119.07872772216797,119.07872772216797,0.0,,1.0,1.0,0.0,2,-0.005944599979557097,119.07872772216797,119.07872772216797,0.0,,23.0
13,['1'],1,TMTstop-B_1_1linestimulus22.png,TMTstop-B_1_1greenlinestimulus22.png,TMTstop-B_1_1redlinestimulus22.png,TMT_B,1,25,1.0,119.12989807128906,119.12989807128906,0.0,,1.0,1.0,0.0,3,1,0.05240899999625981,0.1682855999970343,119.12989807128906,119.12989807128906,0.0,,24.0
None,None,None,TMTstop-B_1_1linestimulus23.png,TMTstop-B_1_1greenlinestimulus23.png,TMTstop-B_1_1redlinestimulus23.png,TMT_B,1,Feedback_last,1.0,119.35417938232422,119.35417938232422,0.0,,0.0,0.0,0.0,2,3,0.018639199988683686,0.14370169999892823,119.35417938232422,119.35417938232422,0.0,,25.0

extraInfo
participant,
session,001
date,2022_May_11_1050
expName,TMT_fmri
psychopyVersion,2021.2.3
frameRate,59.917948361028124
﻿NumberLetter,corrAns,Correct,StimFile,Correct_StimFile,False_StimFile,Version,Block,TrialNumber_session,n,Stim.started_mean,Stim.started_raw,Stim.started_std,Stim.stopped_raw,key_resp_2.corr_mean,key_resp_2.corr_raw,key_resp_2.corr_std,key_resp_2.keys_raw,key_resp_2.rt_raw,key_resp_2.started_mean,key_resp_2.started_raw,key_resp_2.started_std,key_resp_2.stopped_raw,order
1,['1'],1,TMTstop-B_1_2.png,TMTstop-B_1_2.png,TMTstop-B_1_2.png,TMT_B,2,26,1.0,123.56702423095703,123.56702423095703,0.0,,1.0,1.0,0.0,1,0.48141360000590794,123.56702423095703,123.56702423095703,0.0,,0.0
A,['2'],2,TMTstop-B_1_2.png,TMTstop-B_1_2firstgreen.png,TMTstop-B_1_2firstred.png,TMT_B,2,27,1.0,124.11249542236328,124.11249542236328,0.0,,1.0,1.0,0.0,2,0.055008299998007715,124.11249542236328,124.11249542236328,0.0,,1.0
2,['1'],1,TMTstop-B_1_2linestimulus0.png,TMTstop-B_1_2greenlinestimulus0.png,TMTstop-B_1_2redlinestimulus0.png,TMT_B,2,28,1.0,124.23685455322266,124.23685455322266,0.0,,1.0,1.0,0.0,3,1,0.018814000010024756,0.1870305000047665,124.23685455322266,124.23685455322266,0.0,,2.0
B,['2'],2,TMTstop-B_1_2linestimulus1.png,TMTstop-B_1_2greenlinestimulus1.png,TMTstop-B_1_2redlinestimulus1.png,TMT_B,2,29,1.0,124.48358154296875,124.48358154296875,0.0,,1.0,1.0,0.0,2,-0.022533999988809228,124.48358154296875,124.48358154296875,0.0,,3.0
3,['1'],1,TMTstop-B_1_2linestimulus2.png,TMTstop-B_1_2greenlinestimulus2.png,TMTstop-B_1_2redlinestimulus2.png,TMT_B,2,30,1.0,124.53378295898438,124.53378295898438,0.0,,1.0,1.0,0.0,3,1,0.06944529997417703,0.7435648999817204,124.53378295898438,124.53378295898438,0.0,,4.0
C,['3'],3,TMTstop-B_1_2linestimulus3.png,TMTstop-B_1_2greenlinestimulus3.png,TMTstop-B_1_2redlinestimulus3.png,TMT_B,2,31,1.0,125.33446502685547,125.33446502685547,0.0,,1.0,1.0,0.0,1,2,3,0.6287818000128027,0.739993900002446,0.8371168000157923,125.33446502685547,125.33446502685547,0.0,,5.0
4,['2'],2,TMTstop-B_1_2linestimulus4.png,TMTstop-B_1_2greenlinestimulus4.png,TMTstop-B_1_2redlinestimulus4.png,TMT_B,2,32,1.0,126.27215576171875,126.27215576171875,0.0,,1.0,1.0,0.0,1,2,0.07623129998682998,0.13748159998795018,126.27215576171875,126.27215576171875,0.0,,6.0
D,['1'],1,TMTstop-B_1_2linestimulus5.png,TMTstop-B_1_2greenlinestimulus5.png,TMTstop-B_1_2redlinestimulus5.png,TMT_B,2,33,1.0,126.50638580322266,126.50638580322266,0.0,,1.0,1.0,0.0,3,1,0.020491800009040162,0.14413460000650957,126.50638580322266,126.50638580322266,0.0,,7.0
5,['2'],2,TMTstop-B_1_2linestimulus6.png,TMTstop-B_1_2greenlinestimulus6.png,TMTstop-B_1_2redlinestimulus6.png,TMT_B,2,34,1.0,126.70664978027344,126.70664978027344,0.0,,1.0,1.0,0.0,2,0.0187242999963928,126.70664978027344,126.70664978027344,0.0,,8.0
E,['3'],3,TMTstop-B_1_2linestimulus7.png,TMTstop-B_1_2greenlinestimulus7.png,TMTstop-B_1_2redlinestimulus7.png,TMT_B,2,35,1.0,126.80668640136719,126.80668640136719,0.0,,1.0,1.0,0.0,3,0.03170079999836162,126.80668640136719,126.80668640136719,0.0,,9.0
6,['1'],1,TMTstop-B_1_2linestimulus8.png,TMTstop-B_1_2greenlinestimulus8.png,TMTstop-B_1_2redlinestimulus8.png,TMT_B,2,36,1.0,126.9068603515625,126.9068603515625,0.0,,1.0,1.0,0.0,1,0.060345000005327165,126.9068603515625,126.9068603515625,0.0,,10.0
F,['3'],3,TMTstop-B_1_2linestimulus9.png,TMTstop-B_1_2greenlinestimulus9.png,TMTstop-B_1_2redlinestimulus9.png,TMT_B,2,37,1.0,127.02351379394531,127.02351379394531,0.0,,1.0,1.0,0.0,2,1,2,3,0.0005800999933853745,0.5219941999821458,0.7985486999968998,0.8927562999888323,127.02351379394531,127.02351379394531,0.0,,11.0
7,['1'],1,TMTstop-B_1_2linestimulus10.png,TMTstop-B_1_2greenlinestimulus10.png,TMTstop-B_1_2redlinestimulus10.png,TMT_B,2,38,1.0,127.99496459960938,127.99496459960938,0.0,,1.0,1.0,0.0,1,0.2955699000158347,127.99496459960938,127.99496459960938,0.0,,12.0
G,['2'],2,TMTstop-B_1_2linestimulus11.png,TMTstop-B_1_2greenlinestimulus11.png,TMTstop-B_1_2redlinestimulus11.png,TMT_B,2,39,1.0,128.3533935546875,128.3533935546875,0.0,,1.0,1.0,0.0,2,0.0327238000172656,128.3533935546875,128.3533935546875,0.0,,13.0
8,['1'],1,TMTstop-B_1_2linestimulus12.png,TMTstop-B_1_2greenlinestimulus12.png,TMTstop-B_1_2redlinestimulus12.png,TMT_B,2,40,1.0,128.43663024902344,128.43663024902344,0.0,,1.0,1.0,0.0,3,1,0.04203459998825565,0.1732168000016827,128.43663024902344,128.43663024902344,0.0,,14.0
H,['2'],2,TMTstop-B_1_2linestimulus13.png,TMTstop-B_1_2greenlinestimulus13.png,TMTstop-B_1_2redlinestimulus13.png,TMT_B,2,41,1.0,128.69175720214844,128.69175720214844,0.0,,1.0,1.0,0.0,2,-0.027422199986176565,128.69175720214844,128.69175720214844,0.0,,15.0
9,['3'],3,TMTstop-B_1_2linestimulus14.png,TMTstop-B_1_2greenlinestimulus14.png,TMTstop-B_1_2redlinestimulus14.png,TMT_B,2,42,1.0,128.74188232421875,128.74188232421875,0.0,,1.0,1.0,0.0,3,0.02288200001930818,128.74188232421875,128.74188232421875,0.0,,16.0
I,['1'],1,TMTstop-B_1_2linestimulus15.png,TMTstop-B_1_2greenlinestimulus15.png,TMTstop-B_1_2redlinestimulus15.png,TMT_B,2,43,1.0,128.84205627441406,128.84205627441406,0.0,,1.0,1.0,0.0,1,0.043946799996774644,128.84205627441406,128.84205627441406,0.0,,17.0
10,['2'],2,TMTstop-B_1_2linestimulus16.png,TMTstop-B_1_2greenlinestimulus16.png,TMTstop-B_1_2redlinestimulus16.png,TMT_B,2,44,1.0,128.94212341308594,128.94212341308594,0.0,,1.0,1.0,0.0,2,-0.015571099997032434,128.94212341308594,128.94212341308594,0.0,,18.0
J,['1'],1,TMTstop-B_1_2linestimulus17.png,TMTstop-B_1_2greenlinestimulus17.png,TMTstop-B_1_2redlinestimulus17.png,TMT_B,2,45,1.0,128.9985809326172,128.9985809326172,0.0,,1.0,1.0,0.0,3,1,0.0335215000086464,0.13883300000452437,128.9985809326172,128.9985809326172,0.0,,19.0
11,['3'],3,TMTstop-B_1_2linestimulus18.png,TMTstop-B_1_2greenlinestimulus18.png,TMTstop-B_1_2redlinestimulus18.png,TMT_B,2,46,1.0,129.2067108154297,129.2067108154297,0.0,,1.0,1.0,0.0,2,3,-0.010694700002204627,0.10206549998838454,129.2067108154297,129.2067108154297,0.0,,20.0
K,['2'],2,TMTstop-B_1_2linestimulus19.png,TMTstop-B_1_2greenlinestimulus19.png,TMTstop-B_1_2redlinestimulus19.png,TMT_B,2,47,1.0,129.35691833496094,129.35691833496094,0.0,,1.0,1.0,0.0,1,2,0.07070010001189075,0.12455950002186,129.35691833496094,129.35691833496094,0.0,,21.0
12,['1'],1,TMTstop-B_1_2linestimulus20.png,TMTstop-B_1_2greenlinestimulus20.png,TMTstop-B_1_2redlinestimulus20.png,TMT_B,2,48,1.0,129.54000854492188,129.54000854492188,0.0,,1.0,1.0,0.0,3,1,0.06645890002255328,0.16676650001318194,129.54000854492188,129.54000854492188,0.0,,22.0
L,['2'],2,TMTstop-B_1_2linestimulus21.png,TMTstop-B_1_2greenlinestimulus21.png,TMTstop-B_1_2redlinestimulus21.png,TMT_B,2,49,1.0,129.7704315185547,129.7704315185547,0.0,,1.0,1.0,0.0,2,-0.022390800004359335,129.7704315185547,129.7704315185547,0.0,,23.0
13,['1'],1,TMTstop-B_1_2linestimulus22.png,TMTstop-B_1_2greenlinestimulus22.png,TMTstop-B_1_2redlinestimulus22.png,TMT_B,2,50,1.0,129.81991577148438,129.81991577148438,0.0,,1.0,1.0,0.0,3,1,0.06238909999956377,0.14709600000060163,129.81991577148438,129.81991577148438,0.0,,24.0
None,None,None,TMTstop-B_1_2linestimulus23.png,TMTstop-B_1_2greenlinestimulus23.png,TMTstop-B_1_2redlinestimulus23.png,TMT_B,2,Feedback_last,1.0,130.05422973632812,130.05422973632812,0.0,,0.0,0.0,0.0,2,3,-0.00870730000315234,0.11181060000672005,130.05422973632812,130.05422973632812,0.0,,25.0

extraInfo
participant,
session,001
date,2022_May_11_1050
expName,TMT_fmri
psychopyVersion,2021.2.3
frameRate,59.917948361028124
