NumberLetter,corrAns,StimFile,Correct_StimFile,False_StimFile,DurationTrial,Correct,restartpractice.thisRepN,restartpractice.thisTrialN,restartpractice.thisN,restartpractice.thisIndex,trials_practice.thisRepN,trials_practice.thisTrialN,trials_practice.thisN,trials_practice.thisIndex,trials.thisRepN,trials.thisTrialN,trials.thisN,trials.thisIndex,trials_2.thisRepN,trials_2.thisTrialN,trials_2.thisN,trials_2.thisIndex,trials_3.thisRepN,trials_3.thisTrialN,trials_3.thisN,trials_3.thisIndex,trials_4.thisRepN,trials_4.thisTrialN,trials_4.thisN,trials_4.thisIndex,trials_5.thisRepN,trials_5.thisTrialN,trials_5.thisN,trials_5.thisIndex,Instruct.started,Instruct.stopped,image_2.started,image_2.stopped,key_resp_6.keys,key_resp_6.rt,key_resp_6.started,key_resp_6.stopped,polygon.started,polygon.stopped,Stim_practice.started,Stim_practice.stopped,key_resp_practice.keys,key_resp_practice.rt,key_resp_practice.started,key_resp_practice.stopped,text_5.started,text_5.stopped,key_resp_5.keys,key_resp_5.rt,key_resp_5.started,key_resp_5.stopped,Stim.started,Stim.stopped,key_resp_2.keys,key_resp_2.corr,key_resp_2.rt,key_resp_2.started,key_resp_2.stopped,participant,session,date,expName,psychopyVersion,frameRate,
,,,,,,,,,,,,,,,,,,,,,,,,,,,,,,,,,,,6.233728399965912,None,7.039466300047934,None,1,0.5112407000269741,7.039466300047934,None,,,,,,,,,,,,,,,,,,,,,,,001,2022_Jan_12_1640,TMTAstop-A,2021.2.3,143.82715411510353,
1,['1'],TMTstop-A_1_practice.png,TMTstop-A_1_practice.png,TMTstop-A_1_practice.png,10,,0,0,0,0,0,0,0,0,,,,,,,,,,,,,,,,,,,,,,,,,,,,,7.568436699919403,None,10.610900399973616,None,1,0.5688098000828177,10.610900399973616,None,,,,,,,,,,,,,,,001,2022_Jan_12_1640,TMTAstop-A,2021.2.3,143.82715411510353,
2,['2'],TMTstop-A_1_practice.png,TMTstop-A_1_practicefirstgreen.png,TMTstop-A_1_practicefirstred.png,10,,0,0,0,0,0,1,1,1,,,,,,,,,,,,,,,,,,,,,,,,,,,,,,,11.256024699890986,None,2,0.08401180012151599,11.256024699890986,None,,,,,,,,,,,,,,,001,2022_Jan_12_1640,TMTAstop-A,2021.2.3,143.82715411510353,
3,['3'],TMTstop-A_1_practicelinestimulus0.png,TMTstop-A_1_practicegreenlinestimulus0.png,TMTstop-A_1_practiceredlinestimulus0.png,10,,0,0,0,0,0,2,2,2,,,,,,,,,,,,,,,,,,,,,,,,,,,,,,,11.415908700088039,None,3,0.3531777998432517,11.415908700088039,None,,,,,,,,,,,,,,,001,2022_Jan_12_1640,TMTAstop-A,2021.2.3,143.82715411510353,
4,['1'],TMTstop-A_1_practicelinestimulus1.png,TMTstop-A_1_practicegreenlinestimulus1.png,TMTstop-A_1_practiceredlinestimulus1.png,10,,0,0,0,0,0,3,3,3,,,,,,,,,,,,,,,,,,,,,,,,,,,,,,,11.853730600094423,None,1,0.06213270011357963,11.853730600094423,None,,,,,,,,,,,,,,,001,2022_Jan_12_1640,TMTAstop-A,2021.2.3,143.82715411510353,
5,['2'],TMTstop-A_1_practicelinestimulus2.png,TMTstop-A_1_practicegreenlinestimulus2.png,TMTstop-A_1_practiceredlinestimulus2.png,10,,0,0,0,0,0,4,4,4,,,,,,,,,,,,,,,,,,,,,,,,,,,,,,,11.992456200066954,None,2,0.2954250001348555,11.992456200066954,None,,,,,,,,,,,,,,,001,2022_Jan_12_1640,TMTAstop-A,2021.2.3,143.82715411510353,
6,['3'],TMTstop-A_1_practicelinestimulus3.png,TMTstop-A_1_practicegreenlinestimulus3.png,TMTstop-A_1_practiceredlinestimulus3.png,10,,0,0,0,0,0,5,5,5,,,,,,,,,,,,,,,,,,,,,,,,,,,,,,,12.367616399889812,None,3,0.03386369999498129,12.367616399889812,None,,,,,,,,,,,,,,,001,2022_Jan_12_1640,TMTAstop-A,2021.2.3,143.82715411510353,
7,['1'],TMTstop-A_1_practicelinestimulus4.png,TMTstop-A_1_practicegreenlinestimulus4.png,TMTstop-A_1_practiceredlinestimulus4.png,10,,0,0,0,0,0,6,6,6,,,,,,,,,,,,,,,,,,,,,,,,,,,,,,,12.47874699998647,None,1,0.07182730012573302,12.47874699998647,None,,,,,,,,,,,,,,,001,2022_Jan_12_1640,TMTAstop-A,2021.2.3,143.82715411510353,
8,['3'],TMTstop-A_1_practicelinestimulus5.png,TMTstop-A_1_practicegreenlinestimulus5.png,TMTstop-A_1_practiceredlinestimulus5.png,10,,0,0,0,0,0,7,7,7,,,,,,,,,,,,,,,,,,,,,,,,,,,,,,,12.631301600020379,None,3,0.10420450009405613,12.631301600020379,None,,,,,,,,,,,,,,,001,2022_Jan_12_1640,TMTAstop-A,2021.2.3,143.82715411510353,
9,['2'],TMTstop-A_1_practicelinestimulus6.png,TMTstop-A_1_practicegreenlinestimulus6.png,TMTstop-A_1_practiceredlinestimulus6.png,10,,0,0,0,0,0,8,8,8,,,,,,,,,,,,,,,,,,,,,,,,,,,,,,,12.80513669992797,None,2,0.14167740009725094,12.80513669992797,None,,,,,,,,,,,,,,,001,2022_Jan_12_1640,TMTAstop-A,2021.2.3,143.82715411510353,
10,['3'],TMTstop-A_1_practicelinestimulus7.png,TMTstop-A_1_practicegreenlinestimulus7.png,TMTstop-A_1_practiceredlinestimulus7.png,10,,0,0,0,0,0,9,9,9,,,,,,,,,,,,,,,,,,,,,,,,,,,,,,,13.027496899943799,None,3,0.02673120005056262,13.027496899943799,None,,,,,,,,,,,,,,,001,2022_Jan_12_1640,TMTAstop-A,2021.2.3,143.82715411510353,
11,['1'],TMTstop-A_1_practicelinestimulus8.png,TMTstop-A_1_practicegreenlinestimulus8.png,TMTstop-A_1_practiceredlinestimulus8.png,10,,0,0,0,0,0,10,10,10,,,,,,,,,,,,,,,,,,,,,,,,,,,,,,,13.124564399942756,None,1,0.06796699995175004,13.124564399942756,None,,,,,,,,,,,,,,,001,2022_Jan_12_1640,TMTAstop-A,2021.2.3,143.82715411510353,
12,['2'],TMTstop-A_1_practicelinestimulus9.png,TMTstop-A_1_practicegreenlinestimulus9.png,TMTstop-A_1_practiceredlinestimulus9.png,10,,0,0,0,0,0,11,11,11,,,,,,,,,,,,,,,,,,,,,,,,,,,,,,,13.285124100046232,None,2,0.25780689995735884,13.285124100046232,None,,,,,,,,,,,,,,,001,2022_Jan_12_1640,TMTAstop-A,2021.2.3,143.82715411510353,
None,None,TMTstop-A_1_practicelinestimulus10.png,TMTstop-A_1_practicegreenlinestimulus10.png,TMTstop-A_1_practiceredlinestimulus10.png,None,,0,0,0,0,0,12,12,12,,,,,,,,,,,,,,,,,,,,,,,,,,,,,,,13.632480399915949,None,1,0.1876402001362294,13.632480399915949,None,,,,,,,,,,,,,,,001,2022_Jan_12_1640,TMTAstop-A,2021.2.3,143.82715411510353,
,,,,,,,0,0,0,0,,,,,,,,,,,,,,,,,,,,,,,,,,,,,,,,,,,,,,,,,14.740159099921584,None,1,0.6406951998360455,14.740159099921584,None,,,,,,,,,001,2022_Jan_12_1640,TMTAstop-A,2021.2.3,143.82715411510353,
1,['2'],TMTstop-A_1_1.png,TMTstop-A_1_1.png,TMTstop-A_1_1.png,10,,,,,,,,,,0,0,0,0,,,,,,,,,,,,,,,,,,,,,,,,,15.440941700013354,None,,,,,,,,,,,,,18.44329490000382,None,"['1', '2']",1,"[0.3591664999257773, 0.4756227999459952]",18.44329490000382,None,,001,2022_Jan_12_1640,TMTAstop-A,2021.2.3,143.82715411510353,
2,['1'],TMTstop-A_1_1.png,TMTstop-A_1_1firstgreen.png,TMTstop-A_1_1firstred.png,10,,,,,,,,,,0,1,1,1,,,,,,,,,,,,,,,,,,,,,,,,,,,,,,,,,,,,,,,18.999040300026536,None,"['3', '1']",1,"[0.003458899911493063, 0.17200949997641146]",18.999040300026536,None,,001,2022_Jan_12_1640,TMTAstop-A,2021.2.3,143.82715411510353,
3,['2'],TMTstop-A_1_1linestimulus0.png,TMTstop-A_1_1greenlinestimulus0.png,TMTstop-A_1_1redlinestimulus0.png,10,,,,,,,,,,0,2,2,2,,,,,,,,,,,,,,,,,,,,,,,,,,,,,,,,,,,,,,,19.249320999952033,None,['2'],1,[-0.017684899969026446],19.249320999952033,None,,001,2022_Jan_12_1640,TMTAstop-A,2021.2.3,143.82715411510353,
4,['3'],TMTstop-A_1_1linestimulus1.png,TMTstop-A_1_1greenlinestimulus1.png,TMTstop-A_1_1redlinestimulus1.png,10,,,,,,,,,,0,3,3,3,,,,,,,,,,,,,,,,,,,,,,,,,,,,,,,,,,,,,,,19.332871299935505,None,['3'],1,[-0.008330099983140826],19.332871299935505,None,,001,2022_Jan_12_1640,TMTAstop-A,2021.2.3,143.82715411510353,
5,['2'],TMTstop-A_1_1linestimulus2.png,TMTstop-A_1_1greenlinestimulus2.png,TMTstop-A_1_1redlinestimulus2.png,10,,,,,,,,,,0,4,4,4,,,,,,,,,,,,,,,,,,,,,,,,,,,,,,,,,,,,,,,19.402287000091746,None,"['1', '2']",1,"[0.09004929987713695, 0.1274785997811705]",19.402287000091746,None,,001,2022_Jan_12_1640,TMTAstop-A,2021.2.3,143.82715411510353,
6,['3'],TMTstop-A_1_1linestimulus3.png,TMTstop-A_1_1greenlinestimulus3.png,TMTstop-A_1_1redlinestimulus3.png,10,,,,,,,,,,0,5,5,5,,,,,,,,,,,,,,,,,,,,,,,,,,,,,,,,,,,,,,,19.617161999922246,None,['3'],1,[0.027391500072553754],19.617161999922246,None,,001,2022_Jan_12_1640,TMTAstop-A,2021.2.3,143.82715411510353,
7,['2'],TMTstop-A_1_1linestimulus4.png,TMTstop-A_1_1greenlinestimulus4.png,TMTstop-A_1_1redlinestimulus4.png,10,,,,,,,,,,0,6,6,6,,,,,,,,,,,,,,,,,,,,,,,,,,,,,,,,,,,,,,,19.722206400008872,None,"['1', '2']",1,"[0.07326550013385713, 0.11664050002582371]",19.722206400008872,None,,001,2022_Jan_12_1640,TMTAstop-A,2021.2.3,143.82715411510353,
8,['1'],TMTstop-A_1_1linestimulus5.png,TMTstop-A_1_1greenlinestimulus5.png,TMTstop-A_1_1redlinestimulus5.png,10,,,,,,,,,,0,7,7,7,,,,,,,,,,,,,,,,,,,,,,,,,,,,,,,,,,,,,,,19.915878500090912,None,"['3', '1']",1,"[0.04615329997614026, 0.18835009983740747]",19.915878500090912,None,,001,2022_Jan_12_1640,TMTAstop-A,2021.2.3,143.82715411510353,
9,['2'],TMTstop-A_1_1linestimulus6.png,TMTstop-A_1_1greenlinestimulus6.png,TMTstop-A_1_1redlinestimulus6.png,10,,,,,,,,,,0,8,8,8,,,,,,,,,,,,,,,,,,,,,,,,,,,,,,,,,,,,,,,20.21448369999416,None,['2'],1,[-0.045716100139543414],20.21448369999416,None,,001,2022_Jan_12_1640,TMTAstop-A,2021.2.3,143.82715411510353,
10,['1'],TMTstop-A_1_1linestimulus7.png,TMTstop-A_1_1greenlinestimulus7.png,TMTstop-A_1_1redlinestimulus7.png,10,,,,,,,,,,0,9,9,9,,,,,,,,,,,,,,,,,,,,,,,,,,,,,,,,,,,,,,,20.284320899983868,None,"['3', '1']",1,"[-0.003175700083374977, 0.13254229980520904]",20.284320899983868,None,,001,2022_Jan_12_1640,TMTAstop-A,2021.2.3,143.82715411510353,
11,['2'],TMTstop-A_1_1linestimulus8.png,TMTstop-A_1_1greenlinestimulus8.png,TMTstop-A_1_1redlinestimulus8.png,10,,,,,,,,,,0,10,10,10,,,,,,,,,,,,,,,,,,,,,,,,,,,,,,,,,,,,,,,20.5210263999179,None,['2'],1,[-0.035280399955809116],20.5210263999179,None,,001,2022_Jan_12_1640,TMTAstop-A,2021.2.3,143.82715411510353,
12,['3'],TMTstop-A_1_1linestimulus9.png,TMTstop-A_1_1greenlinestimulus9.png,TMTstop-A_1_1redlinestimulus9.png,10,,,,,,,,,,0,11,11,11,,,,,,,,,,,,,,,,,,,,,,,,,,,,,,,,,,,,,,,20.5963246000465,None,['3'],1,[-0.0007327001076191664],20.5963246000465,None,,001,2022_Jan_12_1640,TMTAstop-A,2021.2.3,143.82715411510353,
13,['2'],TMTstop-A_1_1linestimulus10.png,TMTstop-A_1_1greenlinestimulus10.png,TMTstop-A_1_1redlinestimulus10.png,1,,,,,,,,,,0,12,12,12,,,,,,,,,,,,,,,,,,,,,,,,,,,,,,,,,,,,,,,20.672640699893236,None,"['1', '2']",1,"[0.06830810010433197, 0.12265900010243058]",20.672640699893236,None,,001,2022_Jan_12_1640,TMTAstop-A,2021.2.3,143.82715411510353,
14,['3'],TMTstop-A_1_1linestimulus11.png,TMTstop-A_1_1greenlinestimulus11.png,TMTstop-A_1_1redlinestimulus11.png,None,,,,,,,,,,0,13,13,13,,,,,,,,,,,,,,,,,,,,,,,,,,,,,,,,,,,,,,,20.90179069992155,None,['3'],1,[0.018199600046500564],20.90179069992155,None,,001,2022_Jan_12_1640,TMTAstop-A,2021.2.3,143.82715411510353,
15,['1'],TMTstop-A_1_1linestimulus12.png,TMTstop-A_1_1greenlinestimulus12.png,TMTstop-A_1_1redlinestimulus12.png,None,,,,,,,,,,0,14,14,14,,,,,,,,,,,,,,,,,,,,,,,,,,,,,,,,,,,,,,,21.00617769989185,None,['1'],1,[0.0617913999594748],21.00617769989185,None,,001,2022_Jan_12_1640,TMTAstop-A,2021.2.3,143.82715411510353,
16,['3'],TMTstop-A_1_1linestimulus13.png,TMTstop-A_1_1greenlinestimulus13.png,TMTstop-A_1_1redlinestimulus13.png,None,,,,,,,,,,0,15,15,15,,,,,,,,,,,,,,,,,,,,,,,,,,,,,,,,,,,,,,,21.15223119989969,None,"['2', '3']",1,"[-0.002492200117558241, 0.0984871000982821]",21.15223119989969,None,,001,2022_Jan_12_1640,TMTAstop-A,2021.2.3,143.82715411510353,
17,['2'],TMTstop-A_1_1linestimulus14.png,TMTstop-A_1_1greenlinestimulus14.png,TMTstop-A_1_1redlinestimulus14.png,None,,,,,,,,,,0,16,16,16,,,,,,,,,,,,,,,,,,,,,,,,,,,,,,,,,,,,,,,21.360219199908897,None,"['1', '2']",1,"[0.04100940003991127, 0.09012950002215803]",21.360219199908897,None,,001,2022_Jan_12_1640,TMTAstop-A,2021.2.3,143.82715411510353,
18,['3'],TMTstop-A_1_1linestimulus15.png,TMTstop-A_1_1greenlinestimulus15.png,TMTstop-A_1_1redlinestimulus15.png,None,,,,,,,,,,0,17,17,17,,,,,,,,,,,,,,,,,,,,,,,,,,,,,,,,,,,,,,,21.533610200043768,None,['3'],1,[0.04442849988117814],21.533610200043768,None,,001,2022_Jan_12_1640,TMTAstop-A,2021.2.3,143.82715411510353,
19,['1'],TMTstop-A_1_1linestimulus16.png,TMTstop-A_1_1greenlinestimulus16.png,TMTstop-A_1_1redlinestimulus16.png,None,,,,,,,,,,0,18,18,18,,,,,,,,,,,,,,,,,,,,,,,,,,,,,,,,,,,,,,,21.665888899937272,None,['1'],1,[0.06880939984694123],21.665888899937272,None,,001,2022_Jan_12_1640,TMTAstop-A,2021.2.3,143.82715411510353,
20,['3'],TMTstop-A_1_1linestimulus17.png,TMTstop-A_1_1greenlinestimulus17.png,TMTstop-A_1_1redlinestimulus17.png,None,,,,,,,,,,0,19,19,19,,,,,,,,,,,,,,,,,,,,,,,,,,,,,,,,,,,,,,,21.811897600069642,None,"['2', '3']",1,"[-0.032333899987861514, 0.09595329989679158]",21.811897600069642,None,,001,2022_Jan_12_1640,TMTAstop-A,2021.2.3,143.82715411510353,
21,['1'],TMTstop-A_1_1linestimulus18.png,TMTstop-A_1_1greenlinestimulus18.png,TMTstop-A_1_1redlinestimulus18.png,None,,,,,,,,,,0,20,20,20,,,,,,,,,,,,,,,,,,,,,,,,,,,,,,,,,,,,,,,22.01318769995123,None,['1'],1,[0.046980699989944696],22.01318769995123,None,,001,2022_Jan_12_1640,TMTAstop-A,2021.2.3,143.82715411510353,
22,['3'],TMTstop-A_1_1linestimulus19.png,TMTstop-A_1_1greenlinestimulus19.png,TMTstop-A_1_1redlinestimulus19.png,None,,,,,,,,,,0,21,21,21,,,,,,,,,,,,,,,,,,,,,,,,,,,,,,,,,,,,,,,22.145124499918893,None,"['2', '3']",1,"[-0.013569100061431527, 0.12495389999821782]",22.145124499918893,None,,001,2022_Jan_12_1640,TMTAstop-A,2021.2.3,143.82715411510353,
23,['1'],TMTstop-A_1_1linestimulus20.png,TMTstop-A_1_1greenlinestimulus20.png,TMTstop-A_1_1redlinestimulus20.png,None,,,,,,,,,,0,22,22,22,,,,,,,,,,,,,,,,,,,,,,,,,,,,,,,,,,,,,,,22.3463854000438,None,['1'],1,[0.0692296999040991],22.3463854000438,None,,001,2022_Jan_12_1640,TMTAstop-A,2021.2.3,143.82715411510353,
24,['2'],TMTstop-A_1_1linestimulus21.png,TMTstop-A_1_1greenlinestimulus21.png,TMTstop-A_1_1redlinestimulus21.png,None,,,,,,,,,,0,23,23,23,,,,,,,,,,,,,,,,,,,,,,,,,,,,,,,,,,,,,,,22.492280300008133,None,['2'],1,[-0.015936699928715825],22.492280300008133,None,,001,2022_Jan_12_1640,TMTAstop-A,2021.2.3,143.82715411510353,
25,['3'],TMTstop-A_1_1linestimulus22.png,TMTstop-A_1_1greenlinestimulus22.png,TMTstop-A_1_1redlinestimulus22.png,None,,,,,,,,,,0,24,24,24,,,,,,,,,,,,,,,,,,,,,,,,,,,,,,,,,,,,,,,22.575572399888188,None,['3'],1,[0.6405620998702943],22.575572399888188,None,,001,2022_Jan_12_1640,TMTAstop-A,2021.2.3,143.82715411510353,
None,None,TMTstop-A_1_1linestimulus23.png,TMTstop-A_1_1greenlinestimulus23.png,TMTstop-A_1_1redlinestimulus23.png,None,,,,,,,,,,0,25,25,25,,,,,,,,,,,,,,,,,,,,,,,,,,,,,,,,,,,,,,,23.29071979993023,None,None,1,,23.29071979993023,None,,001,2022_Jan_12_1640,TMTAstop-A,2021.2.3,143.82715411510353,
1,['3'],TMTstop-A_1_2.png,TMTstop-A_1_2.png,TMTstop-A_1_2.png,10,3,,,,,,,,,,,,,0,0,0,0,,,,,,,,,,,,,,,,,,,,,24.350442599970847,None,,,,,,,,,,,,,27.374385399976745,None,"['1', '2', '3']",1,"[0.3582342998124659, 0.498519399901852, 0.5551351998001337]",27.374385399976745,None,,001,2022_Jan_12_1640,TMTAstop-A,2021.2.3,143.82715411510353,
2,['2'],TMTstop-A_1_2.png,TMTstop-A_1_2firstgreen.png,TMTstop-A_1_2firstred.png,10,2,,,,,,,,,,,,,0,1,1,1,,,,,,,,,,,,,,,,,,,,,,,,,,,,,,,,,,,28.006173300091177,None,"['1', '2']",1,"[0.09346699994057417, 0.16702409996651113]",28.006173300091177,None,,001,2022_Jan_12_1640,TMTAstop-A,2021.2.3,143.82715411510353,
3,['3'],TMTstop-A_1_2linestimulus0.png,TMTstop-A_1_2greenlinestimulus0.png,TMTstop-A_1_2redlinestimulus0.png,10,3,,,,,,,,,,,,,0,2,2,2,,,,,,,,,,,,,,,,,,,,,,,,,,,,,,,,,,,28.25777280004695,None,['3'],1,[-0.02058420004323125],28.25777280004695,None,,001,2022_Jan_12_1640,TMTAstop-A,2021.2.3,143.82715411510353,
4,['1'],TMTstop-A_1_2linestimulus1.png,TMTstop-A_1_2greenlinestimulus1.png,TMTstop-A_1_2redlinestimulus1.png,10,1,,,,,,,,,,,,,0,3,3,3,,,,,,,,,,,,,,,,,,,,,,,,,,,,,,,,,,,28.32578990003094,None,['1'],1,[0.06714940001256764],28.32578990003094,None,,001,2022_Jan_12_1640,TMTAstop-A,2021.2.3,143.82715411510353,
5,['2'],TMTstop-A_1_2linestimulus2.png,TMTstop-A_1_2greenlinestimulus2.png,TMTstop-A_1_2redlinestimulus2.png,10,2,,,,,,,,,,,,,0,4,4,4,,,,,,,,,,,,,,,,,,,,,,,,,,,,,,,,,,,28.46435229992494,None,['2'],1,[-0.01340059982612729],28.46435229992494,None,,001,2022_Jan_12_1640,TMTAstop-A,2021.2.3,143.82715411510353,
6,['3'],TMTstop-A_1_2linestimulus3.png,TMTstop-A_1_2greenlinestimulus3.png,TMTstop-A_1_2redlinestimulus3.png,10,3,,,,,,,,,,,,,0,5,5,5,,,,,,,,,,,,,,,,,,,,,,,,,,,,,,,,,,,28.533847799990326,None,['3'],1,[0.056931099854409695],28.533847799990326,None,,001,2022_Jan_12_1640,TMTAstop-A,2021.2.3,143.82715411510353,
7,['2'],TMTstop-A_1_2linestimulus4.png,TMTstop-A_1_2greenlinestimulus4.png,TMTstop-A_1_2redlinestimulus4.png,10,2,,,,,,,,,,,,,0,6,6,6,,,,,,,,,,,,,,,,,,,,,,,,,,,,,,,,,,,28.672597700031474,None,"['1', '2']",1,"[0.04971339995972812, 0.1084793999325484]",28.672597700031474,None,,001,2022_Jan_12_1640,TMTAstop-A,2021.2.3,143.82715411510353,
8,['1'],TMTstop-A_1_2linestimulus5.png,TMTstop-A_1_2greenlinestimulus5.png,TMTstop-A_1_2redlinestimulus5.png,10,1,,,,,,,,,,,,,0,7,7,7,,,,,,,,,,,,,,,,,,,,,,,,,,,,,,,,,,,28.88140819990076,None,"['3', '1']",1,"[0.012413399992510676, 0.16677529993467033]",28.88140819990076,None,,001,2022_Jan_12_1640,TMTAstop-A,2021.2.3,143.82715411510353,
9,['2'],TMTstop-A_1_2linestimulus6.png,TMTstop-A_1_2greenlinestimulus6.png,TMTstop-A_1_2redlinestimulus6.png,10,2,,,,,,,,,,,,,0,8,8,8,,,,,,,,,,,,,,,,,,,,,,,,,,,,,,,,,,,29.131276899948716,None,['2'],1,[-0.048425700049847364],29.131276899948716,None,,001,2022_Jan_12_1640,TMTAstop-A,2021.2.3,143.82715411510353,
10,['3'],TMTstop-A_1_2linestimulus7.png,TMTstop-A_1_2greenlinestimulus7.png,TMTstop-A_1_2redlinestimulus7.png,10,3,,,,,,,,,,,,,0,9,9,9,,,,,,,,,,,,,,,,,,,,,,,,,,,,,,,,,,,29.20013580005616,None,['3'],1,[0.02270859992131591],29.20013580005616,None,,001,2022_Jan_12_1640,TMTAstop-A,2021.2.3,143.82715411510353,
11,['1'],TMTstop-A_1_2linestimulus8.png,TMTstop-A_1_2greenlinestimulus8.png,TMTstop-A_1_2redlinestimulus8.png,10,1,,,,,,,,,,,,,0,10,10,10,,,,,,,,,,,,,,,,,,,,,,,,,,,,,,,,,,,29.298010899918154,None,['1'],1,[0.13178730010986328],29.298010899918154,None,,001,2022_Jan_12_1640,TMTAstop-A,2021.2.3,143.82715411510353,
12,['2'],TMTstop-A_1_2linestimulus9.png,TMTstop-A_1_2greenlinestimulus9.png,TMTstop-A_1_2redlinestimulus9.png,10,2,,,,,,,,,,,,,0,11,11,11,,,,,,,,,,,,,,,,,,,,,,,,,,,,,,,,,,,29.513008600100875,None,['2'],1,[-0.05033280001953244],29.513008600100875,None,,001,2022_Jan_12_1640,TMTAstop-A,2021.2.3,143.82715411510353,
13,['3'],TMTstop-A_1_2linestimulus10.png,TMTstop-A_1_2greenlinestimulus10.png,TMTstop-A_1_2redlinestimulus10.png,1,3,,,,,,,,,,,,,0,12,12,12,,,,,,,,,,,,,,,,,,,,,,,,,,,,,,,,,,,29.582201899960637,None,['3'],1,[0.00880359997972846],29.582201899960637,None,,001,2022_Jan_12_1640,TMTAstop-A,2021.2.3,143.82715411510353,
14,['1'],TMTstop-A_1_2linestimulus11.png,TMTstop-A_1_2greenlinestimulus11.png,TMTstop-A_1_2redlinestimulus11.png,None,1,,,,,,,,,,,,,0,13,13,13,,,,,,,,,,,,,,,,,,,,,,,,,,,,,,,,,,,29.672545300098136,None,['1'],1,[0.07646270003169775],29.672545300098136,None,,001,2022_Jan_12_1640,TMTAstop-A,2021.2.3,143.82715411510353,
15,['3'],TMTstop-A_1_2linestimulus12.png,TMTstop-A_1_2greenlinestimulus12.png,TMTstop-A_1_2redlinestimulus12.png,None,3,,,,,,,,,,,,,0,14,14,14,,,,,,,,,,,,,,,,,,,,,,,,,,,,,,,,,,,29.825415800092742,None,"['2', '3']",1,"[-0.02668540016748011, 0.11566459992900491]",29.825415800092742,None,,001,2022_Jan_12_1640,TMTAstop-A,2021.2.3,143.82715411510353,
16,['1'],TMTstop-A_1_2linestimulus13.png,TMTstop-A_1_2greenlinestimulus13.png,TMTstop-A_1_2redlinestimulus13.png,None,1,,,,,,,,,,,,,0,15,15,15,,,,,,,,,,,,,,,,,,,,,,,,,,,,,,,,,,,30.01976680010557,None,['1'],1,[0.026142399990931153],30.01976680010557,None,,001,2022_Jan_12_1640,TMTAstop-A,2021.2.3,143.82715411510353,
17,['2'],TMTstop-A_1_2linestimulus14.png,TMTstop-A_1_2greenlinestimulus14.png,TMTstop-A_1_2redlinestimulus14.png,None,2,,,,,,,,,,,,,0,16,16,16,,,,,,,,,,,,,,,,,,,,,,,,,,,,,,,,,,,30.11686969990842,None,['2'],1,[-0.008303300011903048],30.11686969990842,None,,001,2022_Jan_12_1640,TMTAstop-A,2021.2.3,143.82715411510353,
18,['1'],TMTstop-A_1_2linestimulus15.png,TMTstop-A_1_2greenlinestimulus15.png,TMTstop-A_1_2redlinestimulus15.png,None,1,,,,,,,,,,,,,0,17,17,17,,,,,,,,,,,,,,,,,,,,,,,,,,,,,,,,,,,30.193400100106373,None,"['3', '1']",1,"[0.026082800002768636, 0.17737580020911992]",30.193400100106373,None,,001,2022_Jan_12_1640,TMTAstop-A,2021.2.3,143.82715411510353,
19,['3'],TMTstop-A_1_2linestimulus16.png,TMTstop-A_1_2greenlinestimulus16.png,TMTstop-A_1_2redlinestimulus16.png,None,3,,,,,,,,,,,,,0,18,18,18,,,,,,,,,,,,,,,,,,,,,,,,,,,,,,,,,,,30.45754319988191,None,"['2', '3']",1,"[-0.04460329981520772, 0.08383030002005398]",30.45754319988191,None,,001,2022_Jan_12_1640,TMTAstop-A,2021.2.3,143.82715411510353,
20,['1'],TMTstop-A_1_2linestimulus17.png,TMTstop-A_1_2greenlinestimulus17.png,TMTstop-A_1_2redlinestimulus17.png,None,1,,,,,,,,,,,,,0,19,19,19,,,,,,,,,,,,,,,,,,,,,,,,,,,,,,,,,,,30.610155100002885,None,['1'],1,[0.07649259991012514],30.610155100002885,None,,001,2022_Jan_12_1640,TMTAstop-A,2021.2.3,143.82715411510353,
21,['2'],TMTstop-A_1_2linestimulus18.png,TMTstop-A_1_2greenlinestimulus18.png,TMTstop-A_1_2redlinestimulus18.png,None,2,,,,,,,,,,,,,0,20,20,20,,,,,,,,,,,,,,,,,,,,,,,,,,,,,,,,,,,30.769720599986613,None,['2'],1,[-0.03330289991572499],30.769720599986613,None,,001,2022_Jan_12_1640,TMTAstop-A,2021.2.3,143.82715411510353,
22,['1'],TMTstop-A_1_2linestimulus19.png,TMTstop-A_1_2greenlinestimulus19.png,TMTstop-A_1_2redlinestimulus19.png,None,1,,,,,,,,,,,,,0,21,21,21,,,,,,,,,,,,,,,,,,,,,,,,,,,,,,,,,,,30.839027100009844,None,"['3', '1']",1,"[0.015518599888309836, 0.4572679998818785]",30.839027100009844,None,,001,2022_Jan_12_1640,TMTAstop-A,2021.2.3,143.82715411510353,
23,['2'],TMTstop-A_1_2linestimulus20.png,TMTstop-A_1_2greenlinestimulus20.png,TMTstop-A_1_2redlinestimulus20.png,None,2,,,,,,,,,,,,,0,22,22,22,,,,,,,,,,,,,,,,,,,,,,,,,,,,,,,,,,,31.402135400101542,None,['2'],1,[0.3014497999101877],31.402135400101542,None,,001,2022_Jan_12_1640,TMTAstop-A,2021.2.3,143.82715411510353,
24,['1'],TMTstop-A_1_2linestimulus21.png,TMTstop-A_1_2greenlinestimulus21.png,TMTstop-A_1_2redlinestimulus21.png,None,1,,,,,,,,,,,,,0,23,23,23,,,,,,,,,,,,,,,,,,,,,,,,,,,,,,,,,,,31.785341100068763,None,"['3', '1']",1,"[0.016783999977633357, 0.19481130014173687]",31.785341100068763,None,,001,2022_Jan_12_1640,TMTAstop-A,2021.2.3,143.82715411510353,
25,['2'],TMTstop-A_1_2linestimulus22.png,TMTstop-A_1_2greenlinestimulus22.png,TMTstop-A_1_2redlinestimulus22.png,None,2,,,,,,,,,,,,,0,24,24,24,,,,,,,,,,,,,,,,,,,,,,,,,,,,,,,,,,,32.089010199997574,None,['2'],1,[-0.01034620008431375],32.089010199997574,None,,001,2022_Jan_12_1640,TMTAstop-A,2021.2.3,143.82715411510353,
None,None,TMTstop-A_1_2linestimulus23.png,TMTstop-A_1_2greenlinestimulus23.png,TMTstop-A_1_2redlinestimulus23.png,None,None,,,,,,,,,,,,,0,25,25,25,,,,,,,,,,,,,,,,,,,,,,,,,,,,,,,,,,,32.16539560002275,None,['3'],0,[-0.007708899909630418],32.16539560002275,None,,001,2022_Jan_12_1640,TMTAstop-A,2021.2.3,143.82715411510353,
1,['2'],TMTstop-A_1_3.png,TMTstop-A_1_3.png,TMTstop-A_1_3.png,10,2,,,,,,,,,,,,,,,,,0,0,0,0,,,,,,,,,,,,,,,,,33.26061340002343,None,,,,,,,,,,,,,36.2483284000773,None,"['1', '2']",1,"[0.5289910000283271, 0.6117100999690592]",36.2483284000773,None,,001,2022_Jan_12_1640,TMTAstop-A,2021.2.3,143.82715411510353,
2,['1'],TMTstop-A_1_3.png,TMTstop-A_1_3firstgreen.png,TMTstop-A_1_3firstred.png,10,1,,,,,,,,,,,,,,,,,0,1,1,1,,,,,,,,,,,,,,,,,,,,,,,,,,,,,,,36.95710049988702,None,"['3', '1']",1,"[0.005816000048071146, 0.16143999993801117]",36.95710049988702,None,,001,2022_Jan_12_1640,TMTAstop-A,2021.2.3,143.82715411510353,
3,['3'],TMTstop-A_1_3linestimulus0.png,TMTstop-A_1_3greenlinestimulus0.png,TMTstop-A_1_3redlinestimulus0.png,10,3,,,,,,,,,,,,,,,,,0,2,2,2,,,,,,,,,,,,,,,,,,,,,,,,,,,,,,,37.20037780003622,None,"['2', '3']",1,"[-0.044801099924370646, 0.04912750003859401]",37.20037780003622,None,,001,2022_Jan_12_1640,TMTAstop-A,2021.2.3,143.82715411510353,
4,['2'],TMTstop-A_1_3linestimulus1.png,TMTstop-A_1_3greenlinestimulus1.png,TMTstop-A_1_3redlinestimulus1.png,10,2,,,,,,,,,,,,,,,,,0,3,3,3,,,,,,,,,,,,,,,,,,,,,,,,,,,,,,,37.35299160005525,None,"['1', '2']",1,"[0.06801599985919893, 0.11280889995396137]",37.35299160005525,None,,001,2022_Jan_12_1640,TMTAstop-A,2021.2.3,143.82715411510353,
5,['3'],TMTstop-A_1_3linestimulus2.png,TMTstop-A_1_3greenlinestimulus2.png,TMTstop-A_1_3redlinestimulus2.png,10,3,,,,,,,,,,,,,,,,,0,4,4,4,,,,,,,,,,,,,,,,,,,,,,,,,,,,,,,37.57484779995866,None,['3'],1,[0.013371899956837296],37.57484779995866,None,,001,2022_Jan_12_1640,TMTAstop-A,2021.2.3,143.82715411510353,
6,['2'],TMTstop-A_1_3linestimulus3.png,TMTstop-A_1_3greenlinestimulus3.png,TMTstop-A_1_3redlinestimulus3.png,10,2,,,,,,,,,,,,,,,,,0,5,5,5,,,,,,,,,,,,,,,,,,,,,,,,,,,,,,,37.659213500097394,None,"['1', '2']",1,"[0.07664220011793077, 0.16414080001413822]",37.659213500097394,None,,001,2022_Jan_12_1640,TMTAstop-A,2021.2.3,143.82715411510353,
7,['1'],TMTstop-A_1_3linestimulus4.png,TMTstop-A_1_3greenlinestimulus4.png,TMTstop-A_1_3redlinestimulus4.png,10,1,,,,,,,,,,,,,,,,,0,6,6,6,,,,,,,,,,,,,,,,,,,,,,,,,,,,,,,37.89434499992058,None,"['3', '1']",1,"[0.028244399931281805, 0.18828010000288486]",37.89434499992058,None,,001,2022_Jan_12_1640,TMTAstop-A,2021.2.3,143.82715411510353,
8,['2'],TMTstop-A_1_3linestimulus5.png,TMTstop-A_1_3greenlinestimulus5.png,TMTstop-A_1_3redlinestimulus5.png,10,2,,,,,,,,,,,,,,,,,0,7,7,7,,,,,,,,,,,,,,,,,,,,,,,,,,,,,,,38.15849140007049,None,['2'],1,[-0.01627280004322529],38.15849140007049,None,,001,2022_Jan_12_1640,TMTAstop-A,2021.2.3,143.82715411510353,
9,['3'],TMTstop-A_1_3linestimulus6.png,TMTstop-A_1_3greenlinestimulus6.png,TMTstop-A_1_3redlinestimulus6.png,10,3,,,,,,,,,,,,,,,,,0,8,8,8,,,,,,,,,,,,,,,,,,,,,,,,,,,,,,,38.23508380004205,None,['3'],1,[0.020338899921625853],38.23508380004205,None,,001,2022_Jan_12_1640,TMTAstop-A,2021.2.3,143.82715411510353,
10,['2'],TMTstop-A_1_3linestimulus7.png,TMTstop-A_1_3greenlinestimulus7.png,TMTstop-A_1_3redlinestimulus7.png,10,2,,,,,,,,,,,,,,,,,0,9,9,9,,,,,,,,,,,,,,,,,,,,,,,,,,,,,,,38.33247380005196,None,"['1', '2']",1,"[0.10840669996105134, 0.21637200005352497]",38.33247380005196,None,,001,2022_Jan_12_1640,TMTAstop-A,2021.2.3,143.82715411510353,
11,['3'],TMTstop-A_1_3linestimulus8.png,TMTstop-A_1_3greenlinestimulus8.png,TMTstop-A_1_3redlinestimulus8.png,10,3,,,,,,,,,,,,,,,,,0,10,10,10,,,,,,,,,,,,,,,,,,,,,,,,,,,,,,,38.64459619997069,None,['3'],1,[-0.006398200057446957],38.64459619997069,None,,001,2022_Jan_12_1640,TMTAstop-A,2021.2.3,143.82715411510353,
12,['2'],TMTstop-A_1_3linestimulus9.png,TMTstop-A_1_3greenlinestimulus9.png,TMTstop-A_1_3redlinestimulus9.png,10,2,,,,,,,,,,,,,,,,,0,11,11,11,,,,,,,,,,,,,,,,,,,,,,,,,,,,,,,38.7215841000434,None,"['1', '2']",1,"[0.35695830010809004, 0.42977480008266866]",38.7215841000434,None,,001,2022_Jan_12_1640,TMTAstop-A,2021.2.3,143.82715411510353,
13,['1'],TMTstop-A_1_3linestimulus10.png,TMTstop-A_1_3greenlinestimulus10.png,TMTstop-A_1_3redlinestimulus10.png,1,1,,,,,,,,,,,,,,,,,0,12,12,12,,,,,,,,,,,,,,,,,,,,,,,,,,,,,,,39.23480449989438,None,"['3', '1']",1,"[0.03455890016630292, 0.20987590006552637]",39.23480449989438,None,,001,2022_Jan_12_1640,TMTAstop-A,2021.2.3,143.82715411510353,
14,['2'],TMTstop-A_1_3linestimulus11.png,TMTstop-A_1_3greenlinestimulus11.png,TMTstop-A_1_3redlinestimulus11.png,None,2,,,,,,,,,,,,,,,,,0,13,13,13,,,,,,,,,,,,,,,,,,,,,,,,,,,,,,,39.554292199900374,None,['2'],1,[0.03764960006810725],39.554292199900374,None,,001,2022_Jan_12_1640,TMTAstop-A,2021.2.3,143.82715411510353,
15,['1'],TMTstop-A_1_3linestimulus12.png,TMTstop-A_1_3greenlinestimulus12.png,TMTstop-A_1_3redlinestimulus12.png,None,1,,,,,,,,,,,,,,,,,0,14,14,14,,,,,,,,,,,,,,,,,,,,,,,,,,,,,,,39.71365560009144,None,"['3', '1']",1,"[-0.04321440006606281, 0.11206949991174042]",39.71365560009144,None,,001,2022_Jan_12_1640,TMTAstop-A,2021.2.3,143.82715411510353,
16,['2'],TMTstop-A_1_3linestimulus13.png,TMTstop-A_1_3greenlinestimulus13.png,TMTstop-A_1_3redlinestimulus13.png,None,2,,,,,,,,,,,,,,,,,0,15,15,15,,,,,,,,,,,,,,,,,,,,,,,,,,,,,,,39.90831089997664,None,['2'],1,[-0.05273510003462434],39.90831089997664,None,,001,2022_Jan_12_1640,TMTAstop-A,2021.2.3,143.82715411510353,
17,['3'],TMTstop-A_1_3linestimulus14.png,TMTstop-A_1_3greenlinestimulus14.png,TMTstop-A_1_3redlinestimulus14.png,None,3,,,,,,,,,,,,,,,,,0,16,16,16,,,,,,,,,,,,,,,,,,,,,,,,,,,,,,,39.978049400029704,None,['3'],1,[0.009876699885353446],39.978049400029704,None,,001,2022_Jan_12_1640,TMTAstop-A,2021.2.3,143.82715411510353,
18,['2'],TMTstop-A_1_3linestimulus15.png,TMTstop-A_1_3greenlinestimulus15.png,TMTstop-A_1_3redlinestimulus15.png,None,2,,,,,,,,,,,,,,,,,0,17,17,17,,,,,,,,,,,,,,,,,,,,,,,,,,,,,,,40.06147100008093,None,"['1', '2']",1,"[0.07402790011838078, 0.13359290012158453]",40.06147100008093,None,,001,2022_Jan_12_1640,TMTAstop-A,2021.2.3,143.82715411510353,
19,['1'],TMTstop-A_1_3linestimulus16.png,TMTstop-A_1_3greenlinestimulus16.png,TMTstop-A_1_3redlinestimulus16.png,None,1,,,,,,,,,,,,,,,,,0,18,18,18,,,,,,,,,,,,,,,,,,,,,,,,,,,,,,,40.297245299909264,None,"['3', '1']",1,"[0.008420300204306841, 0.1395911001600325]",40.297245299909264,None,,001,2022_Jan_12_1640,TMTAstop-A,2021.2.3,143.82715411510353,
20,['2'],TMTstop-A_1_3linestimulus17.png,TMTstop-A_1_3greenlinestimulus17.png,TMTstop-A_1_3redlinestimulus17.png,None,2,,,,,,,,,,,,,,,,,0,19,19,19,,,,,,,,,,,,,,,,,,,,,,,,,,,,,,,40.505753099918365,None,['2'],1,[-0.009692199993878603],40.505753099918365,None,,001,2022_Jan_12_1640,TMTAstop-A,2021.2.3,143.82715411510353,
21,['3'],TMTstop-A_1_3linestimulus18.png,TMTstop-A_1_3greenlinestimulus18.png,TMTstop-A_1_3redlinestimulus18.png,None,3,,,,,,,,,,,,,,,,,0,20,20,20,,,,,,,,,,,,,,,,,,,,,,,,,,,,,,,40.58184370002709,None,['3'],1,[0.014801400015130639],40.58184370002709,None,,001,2022_Jan_12_1640,TMTAstop-A,2021.2.3,143.82715411510353,
22,['1'],TMTstop-A_1_3linestimulus19.png,TMTstop-A_1_3greenlinestimulus19.png,TMTstop-A_1_3redlinestimulus19.png,None,1,,,,,,,,,,,,,,,,,0,21,21,21,,,,,,,,,,,,,,,,,,,,,,,,,,,,,,,40.67937400005758,None,['1'],1,[0.06470489990897477],40.67937400005758,None,,001,2022_Jan_12_1640,TMTAstop-A,2021.2.3,143.82715411510353,
23,['3'],TMTstop-A_1_3linestimulus20.png,TMTstop-A_1_3greenlinestimulus20.png,TMTstop-A_1_3redlinestimulus20.png,None,3,,,,,,,,,,,,,,,,,0,22,22,22,,,,,,,,,,,,,,,,,,,,,,,,,,,,,,,40.81822929996997,None,"['2', '3']",1,"[-0.03855350008234382, 0.09050529985688627]",40.81822929996997,None,,001,2022_Jan_12_1640,TMTAstop-A,2021.2.3,143.82715411510353,
24,['1'],TMTstop-A_1_3linestimulus21.png,TMTstop-A_1_3greenlinestimulus21.png,TMTstop-A_1_3redlinestimulus21.png,None,1,,,,,,,,,,,,,,,,,0,23,23,23,,,,,,,,,,,,,,,,,,,,,,,,,,,,,,,41.01943390001543,None,['1'],1,[0.030751700047403574],41.01943390001543,None,,001,2022_Jan_12_1640,TMTAstop-A,2021.2.3,143.82715411510353,
25,['3'],TMTstop-A_1_3linestimulus22.png,TMTstop-A_1_3greenlinestimulus22.png,TMTstop-A_1_3redlinestimulus22.png,None,3,,,,,,,,,,,,,,,,,0,24,24,24,,,,,,,,,,,,,,,,,,,,,,,,,,,,,,,41.13760669995099,None,"['2', '3']",1,"[-0.03540010005235672, 0.07413630001246929]",41.13760669995099,None,,001,2022_Jan_12_1640,TMTAstop-A,2021.2.3,143.82715411510353,
None,None,TMTstop-A_1_3linestimulus23.png,TMTstop-A_1_3greenlinestimulus23.png,TMTstop-A_1_3redlinestimulus23.png,None,None,,,,,,,,,,,,,,,,,0,25,25,25,,,,,,,,,,,,,,,,,,,,,,,,,,,,,,,41.297395299887285,None,None,1,,41.297395299887285,None,,001,2022_Jan_12_1640,TMTAstop-A,2021.2.3,143.82715411510353,
1,['3'],TMTstop-A_1_4.png,TMTstop-A_1_4.png,TMTstop-A_1_4.png,10,,,,,,,,,,,,,,,,,,,,,,0,0,0,0,,,,,,,,,,,,,42.371675400063396,None,,,,,,,,,,,,,45.36700530000962,None,"['1', '2', '3']",1,"[0.881384199950844, 1.0704973998945206, 1.1370226999279112]",45.36700530000962,None,,001,2022_Jan_12_1640,TMTAstop-A,2021.2.3,143.82715411510353,
2,['1'],TMTstop-A_1_4.png,TMTstop-A_1_4firstgreen.png,TMTstop-A_1_4firstred.png,10,,,,,,,,,,,,,,,,,,,,,,0,1,1,1,,,,,,,,,,,,,,,,,,,,,,,,,,,46.59561640000902,None,['1'],1,[0.09651779988780618],46.59561640000902,None,,001,2022_Jan_12_1640,TMTAstop-A,2021.2.3,143.82715411510353,
3,['3'],TMTstop-A_1_4linestimulus0.png,TMTstop-A_1_4greenlinestimulus0.png,TMTstop-A_1_4redlinestimulus0.png,10,,,,,,,,,,,,,,,,,,,,,,0,2,2,2,,,,,,,,,,,,,,,,,,,,,,,,,,,46.76248860009946,None,"['2', '3']",1,"[-0.018330599879845977, 0.0892201999668032]",46.76248860009946,None,,001,2022_Jan_12_1640,TMTAstop-A,2021.2.3,143.82715411510353,
4,['1'],TMTstop-A_1_4linestimulus1.png,TMTstop-A_1_4greenlinestimulus1.png,TMTstop-A_1_4redlinestimulus1.png,10,,,,,,,,,,,,,,,,,,,,,,0,3,3,3,,,,,,,,,,,,,,,,,,,,,,,,,,,46.943151199957356,None,['1'],1,[0.05895470012910664],46.943151199957356,None,,001,2022_Jan_12_1640,TMTAstop-A,2021.2.3,143.82715411510353,
5,['2'],TMTstop-A_1_4linestimulus2.png,TMTstop-A_1_4greenlinestimulus2.png,TMTstop-A_1_4redlinestimulus2.png,10,,,,,,,,,,,,,,,,,,,,,,0,4,4,4,,,,,,,,,,,,,,,,,,,,,,,,,,,47.07518699998036,None,['2'],1,[-0.03577390010468662],47.07518699998036,None,,001,2022_Jan_12_1640,TMTAstop-A,2021.2.3,143.82715411510353,
6,['3'],TMTstop-A_1_4linestimulus3.png,TMTstop-A_1_4greenlinestimulus3.png,TMTstop-A_1_4redlinestimulus3.png,10,,,,,,,,,,,,,,,,,,,,,,0,5,5,5,,,,,,,,,,,,,,,,,,,,,,,,,,,47.15120889991522,None,['3'],1,[-0.0013272999785840511],47.15120889991522,None,,001,2022_Jan_12_1640,TMTAstop-A,2021.2.3,143.82715411510353,
7,['2'],TMTstop-A_1_4linestimulus4.png,TMTstop-A_1_4greenlinestimulus4.png,TMTstop-A_1_4redlinestimulus4.png,10,,,,,,,,,,,,,,,,,,,,,,0,6,6,6,,,,,,,,,,,,,,,,,,,,,,,,,,,47.22099669999443,None,"['1', '2']",1,"[0.07434799987822771, 0.11605779989622533]",47.22099669999443,None,,001,2022_Jan_12_1640,TMTAstop-A,2021.2.3,143.82715411510353,
8,['3'],TMTstop-A_1_4linestimulus5.png,TMTstop-A_1_4greenlinestimulus5.png,TMTstop-A_1_4redlinestimulus5.png,10,,,,,,,,,,,,,,,,,,,,,,0,7,7,7,,,,,,,,,,,,,,,,,,,,,,,,,,,47.48141620005481,None,['3'],1,[-0.03446959983557463],47.48141620005481,None,,001,2022_Jan_12_1640,TMTAstop-A,2021.2.3,143.82715411510353,
9,['1'],TMTstop-A_1_4linestimulus6.png,TMTstop-A_1_4greenlinestimulus6.png,TMTstop-A_1_4redlinestimulus6.png,10,,,,,,,,,,,,,,,,,,,,,,0,8,8,8,,,,,,,,,,,,,,,,,,,,,,,,,,,47.5541266000364,None,['1'],1,[0.06850560009479523],47.5541266000364,None,,001,2022_Jan_12_1640,TMTAstop-A,2021.2.3,143.82715411510353,
10,['2'],TMTstop-A_1_4linestimulus7.png,TMTstop-A_1_4greenlinestimulus7.png,TMTstop-A_1_4redlinestimulus7.png,10,,,,,,,,,,,,,,,,,,,,,,0,9,9,9,,,,,,,,,,,,,,,,,,,,,,,,,,,47.693237100029364,None,['2'],1,[-0.04010819992981851],47.693237100029364,None,,001,2022_Jan_12_1640,TMTAstop-A,2021.2.3,143.82715411510353,
11,['3'],TMTstop-A_1_4linestimulus8.png,TMTstop-A_1_4greenlinestimulus8.png,TMTstop-A_1_4redlinestimulus8.png,10,,,,,,,,,,,,,,,,,,,,,,0,10,10,10,,,,,,,,,,,,,,,,,,,,,,,,,,,47.76926640002057,None,['3'],1,[-0.006457899929955602],47.76926640002057,None,,001,2022_Jan_12_1640,TMTAstop-A,2021.2.3,143.82715411510353,
12,['1'],TMTstop-A_1_4linestimulus9.png,TMTstop-A_1_4greenlinestimulus9.png,TMTstop-A_1_4redlinestimulus9.png,10,,,,,,,,,,,,,,,,,,,,,,0,11,11,11,,,,,,,,,,,,,,,,,,,,,,,,,,,47.84544169995934,None,['1'],1,[0.08351489994674921],47.84544169995934,None,,001,2022_Jan_12_1640,TMTAstop-A,2021.2.3,143.82715411510353,
13,['2'],TMTstop-A_1_4linestimulus10.png,TMTstop-A_1_4greenlinestimulus10.png,TMTstop-A_1_4redlinestimulus10.png,1,,,,,,,,,,,,,,,,,,,,,,0,12,12,12,,,,,,,,,,,,,,,,,,,,,,,,,,,47.9985008998774,None,['2'],1,[-0.03378570009954274],47.9985008998774,None,,001,2022_Jan_12_1640,TMTAstop-A,2021.2.3,143.82715411510353,
14,['1'],TMTstop-A_1_4linestimulus11.png,TMTstop-A_1_4greenlinestimulus11.png,TMTstop-A_1_4redlinestimulus11.png,None,,,,,,,,,,,,,,,,,,,,,,0,13,13,13,,,,,,,,,,,,,,,,,,,,,,,,,,,48.068288600072265,None,"['3', '1']",1,"[0.0738157001323998, 0.1803081000689417]",48.068288600072265,None,,001,2022_Jan_12_1640,TMTAstop-A,2021.2.3,143.82715411510353,
15,['2'],TMTstop-A_1_4linestimulus12.png,TMTstop-A_1_4greenlinestimulus12.png,TMTstop-A_1_4redlinestimulus12.png,None,,,,,,,,,,,,,,,,,,,,,,0,14,14,14,,,,,,,,,,,,,,,,,,,,,,,,,,,48.35358999995515,None,['2'],1,[-0.06906750006601214],48.35358999995515,None,,001,2022_Jan_12_1640,TMTAstop-A,2021.2.3,143.82715411510353,
16,['3'],TMTstop-A_1_4linestimulus13.png,TMTstop-A_1_4greenlinestimulus13.png,TMTstop-A_1_4redlinestimulus13.png,None,,,,,,,,,,,,,,,,,,,,,,0,15,15,15,,,,,,,,,,,,,,,,,,,,,,,,,,,48.43597609992139,None,['3'],1,[-0.02902500005438924],48.43597609992139,None,,001,2022_Jan_12_1640,TMTAstop-A,2021.2.3,143.82715411510353,
17,['1'],TMTstop-A_1_4linestimulus14.png,TMTstop-A_1_4greenlinestimulus14.png,TMTstop-A_1_4redlinestimulus14.png,None,,,,,,,,,,,,,,,,,,,,,,0,16,16,16,,,,,,,,,,,,,,,,,,,,,,,,,,,48.51236189994961,None,['1'],1,[0.03272780007682741],48.51236189994961,None,,001,2022_Jan_12_1640,TMTAstop-A,2021.2.3,143.82715411510353,
18,['2'],TMTstop-A_1_4linestimulus15.png,TMTstop-A_1_4greenlinestimulus15.png,TMTstop-A_1_4redlinestimulus15.png,None,,,,,,,,,,,,,,,,,,,,,,0,17,17,17,,,,,,,,,,,,,,,,,,,,,,,,,,,48.630311799934134,None,['2'],1,[-0.011275899829342961],48.630311799934134,None,,001,2022_Jan_12_1640,TMTAstop-A,2021.2.3,143.82715411510353,
19,['1'],TMTstop-A_1_4linestimulus16.png,TMTstop-A_1_4greenlinestimulus16.png,TMTstop-A_1_4redlinestimulus16.png,None,,,,,,,,,,,,,,,,,,,,,,0,18,18,18,,,,,,,,,,,,,,,,,,,,,,,,,,,48.699672899907455,None,"['3', '1']",1,"[0.027738200034946203, 0.15327090001665056]",48.699672899907455,None,,001,2022_Jan_12_1640,TMTAstop-A,2021.2.3,143.82715411510353,
20,['3'],TMTstop-A_1_4linestimulus17.png,TMTstop-A_1_4greenlinestimulus17.png,TMTstop-A_1_4redlinestimulus17.png,None,,,,,,,,,,,,,,,,,,,,,,0,19,19,19,,,,,,,,,,,,,,,,,,,,,,,,,,,48.92954979999922,None,"['2', '3']",1,"[-0.0075604000594466925, 0.0830381999257952]",48.92954979999922,None,,001,2022_Jan_12_1640,TMTAstop-A,2021.2.3,143.82715411510353,
21,['1'],TMTstop-A_1_4linestimulus18.png,TMTstop-A_1_4greenlinestimulus18.png,TMTstop-A_1_4redlinestimulus18.png,None,,,,,,,,,,,,,,,,,,,,,,0,20,20,20,,,,,,,,,,,,,,,,,,,,,,,,,,,49.08290040004067,None,['1'],1,[0.0536444999743253],49.08290040004067,None,,001,2022_Jan_12_1640,TMTAstop-A,2021.2.3,143.82715411510353,
22,['3'],TMTstop-A_1_4linestimulus19.png,TMTstop-A_1_4greenlinestimulus19.png,TMTstop-A_1_4redlinestimulus19.png,None,,,,,,,,,,,,,,,,,,,,,,0,21,21,21,,,,,,,,,,,,,,,,,,,,,,,,,,,49.2067328998819,None,"['2', '3']",1,"[0.006625899812206626, 0.08857849985361099]",49.2067328998819,None,,001,2022_Jan_12_1640,TMTAstop-A,2021.2.3,143.82715411510353,
23,['2'],TMTstop-A_1_4linestimulus20.png,TMTstop-A_1_4greenlinestimulus20.png,TMTstop-A_1_4redlinestimulus20.png,None,,,,,,,,,,,,,,,,,,,,,,0,22,22,22,,,,,,,,,,,,,,,,,,,,,,,,,,,49.380757299950346,None,"['1', '2']",1,"[0.06294930004514754, 0.10822720010764897]",49.380757299950346,None,,001,2022_Jan_12_1640,TMTAstop-A,2021.2.3,143.82715411510353,
24,['3'],TMTstop-A_1_4linestimulus21.png,TMTstop-A_1_4greenlinestimulus21.png,TMTstop-A_1_4redlinestimulus21.png,None,,,,,,,,,,,,,,,,,,,,,,0,23,23,23,,,,,,,,,,,,,,,,,,,,,,,,,,,49.56809059996158,None,['3'],1,[0.032044999999925494],49.56809059996158,None,,001,2022_Jan_12_1640,TMTAstop-A,2021.2.3,143.82715411510353,
25,['2'],TMTstop-A_1_4linestimulus22.png,TMTstop-A_1_4greenlinestimulus22.png,TMTstop-A_1_4redlinestimulus22.png,None,,,,,,,,,,,,,,,,,,,,,,0,24,24,24,,,,,,,,,,,,,,,,,,,,,,,,,,,49.67217590007931,None,"['1', '2']",1,"[0.06754800002090633, 0.1561548998579383]",49.67217590007931,None,,001,2022_Jan_12_1640,TMTAstop-A,2021.2.3,143.82715411510353,
None,None,TMTstop-A_1_4linestimulus23.png,TMTstop-A_1_4greenlinestimulus23.png,TMTstop-A_1_4redlinestimulus23.png,None,,,,,,,,,,,,,,,,,,,,,,0,25,25,25,,,,,,,,,,,,,,,,,,,,,,,,,,,49.94347810000181,None,['3'],0,[-0.02275000000372529],49.94347810000181,None,,001,2022_Jan_12_1640,TMTAstop-A,2021.2.3,143.82715411510353,
1,['2'],TMTstop-A_1_5.png,TMTstop-A_1_5.png,TMTstop-A_1_5.png,10,,,,,,,,,,,,,,,,,,,,,,,,,,0,0,0,0,,,,,,,,,51.07943969988264,None,,,,,,,,,,,,,54.04629880003631,None,"['1', '2']",1,"[0.3875447001773864, 0.4806944001466036]",54.04629880003631,None,,001,2022_Jan_12_1640,TMTAstop-A,2021.2.3,143.82715411510353,
2,['1'],TMTstop-A_1_5.png,TMTstop-A_1_5firstgreen.png,TMTstop-A_1_5firstred.png,10,,,,,,,,,,,,,,,,,,,,,,,,,,0,1,1,1,,,,,,,,,,,,,,,,,,,,,,,54.630221399944276,None,"['3', '1']",1,"[-0.0044450000859797, 0.15215529990382493]",54.630221399944276,None,,001,2022_Jan_12_1640,TMTAstop-A,2021.2.3,143.82715411510353,
3,['3'],TMTstop-A_1_5linestimulus0.png,TMTstop-A_1_5greenlinestimulus0.png,TMTstop-A_1_5redlinestimulus0.png,10,,,,,,,,,,,,,,,,,,,,,,,,,,0,2,2,2,,,,,,,,,,,,,,,,,,,,,,,54.86645910004154,None,"['2', '3']",1,"[-0.033431699965149164, 0.07507700007408857]",54.86645910004154,None,,001,2022_Jan_12_1640,TMTAstop-A,2021.2.3,143.82715411510353,
4,['2'],TMTstop-A_1_5linestimulus1.png,TMTstop-A_1_5greenlinestimulus1.png,TMTstop-A_1_5redlinestimulus1.png,10,,,,,,,,,,,,,,,,,,,,,,,,,,0,3,3,3,,,,,,,,,,,,,,,,,,,,,,,55.01938620000146,None,"['1', '2']",1,"[0.048245200188830495, 0.11695050005801022]",55.01938620000146,None,,001,2022_Jan_12_1640,TMTAstop-A,2021.2.3,143.82715411510353,
5,['3'],TMTstop-A_1_5linestimulus2.png,TMTstop-A_1_5greenlinestimulus2.png,TMTstop-A_1_5redlinestimulus2.png,10,,,,,,,,,,,,,,,,,,,,,,,,,,0,4,4,4,,,,,,,,,,,,,,,,,,,,,,,55.22726329998113,None,['3'],1,[0.005341399926692247],55.22726329998113,None,,001,2022_Jan_12_1640,TMTAstop-A,2021.2.3,143.82715411510353,
6,['1'],TMTstop-A_1_5linestimulus3.png,TMTstop-A_1_5greenlinestimulus3.png,TMTstop-A_1_5redlinestimulus3.png,10,,,,,,,,,,,,,,,,,,,,,,,,,,0,5,5,5,,,,,,,,,,,,,,,,,,,,,,,55.31193249998614,None,['1'],1,[0.052766500040888786],55.31193249998614,None,,001,2022_Jan_12_1640,TMTAstop-A,2021.2.3,143.82715411510353,
7,['3'],TMTstop-A_1_5linestimulus4.png,TMTstop-A_1_5greenlinestimulus4.png,TMTstop-A_1_5redlinestimulus4.png,10,,,,,,,,,,,,,,,,,,,,,,,,,,0,6,6,6,,,,,,,,,,,,,,,,,,,,,,,55.4507935999427,None,"['2', '3']",1,"[-0.03585210000164807, 0.08286109985783696]",55.4507935999427,None,,001,2022_Jan_12_1640,TMTAstop-A,2021.2.3,143.82715411510353,
8,['2'],TMTstop-A_1_5linestimulus5.png,TMTstop-A_1_5greenlinestimulus5.png,TMTstop-A_1_5redlinestimulus5.png,10,,,,,,,,,,,,,,,,,,,,,,,,,,0,7,7,7,,,,,,,,,,,,,,,,,,,,,,,55.62514559994452,None,"['1', '2']",1,"[0.04129830002784729, 0.09105209982953966]",55.62514559994452,None,,001,2022_Jan_12_1640,TMTAstop-A,2021.2.3,143.82715411510353,
9,['1'],TMTstop-A_1_5linestimulus6.png,TMTstop-A_1_5greenlinestimulus6.png,TMTstop-A_1_5redlinestimulus6.png,10,,,,,,,,,,,,,,,,,,,,,,,,,,0,8,8,8,,,,,,,,,,,,,,,,,,,,,,,55.79782700003125,None,"['3', '1', '2', '3', '1']",1,"[0.0420913000125438, 0.18958730017766356, 0.2207514001056552, 0.35299669997766614, 0.48872789996676147]",55.79782700003125,None,,001,2022_Jan_12_1640,TMTAstop-A,2021.2.3,143.82715411510353,
10,['3'],TMTstop-A_1_5linestimulus7.png,TMTstop-A_1_5greenlinestimulus7.png,TMTstop-A_1_5redlinestimulus7.png,10,,,,,,,,,,,,,,,,,,,,,,,,,,0,9,9,9,,,,,,,,,,,,,,,,,,,,,,,56.37332129990682,None,"['2', '3']",1,"[-0.04645720007829368, 0.06617760006338358]",56.37332129990682,None,,001,2022_Jan_12_1640,TMTAstop-A,2021.2.3,143.82715411510353,
