Block_file,Condition_rows,NumberLetter,corrAns,Correct,StimFile,Correct_StimFile,False_StimFile,Version,Block,TrialNumber_session,Blocks_TMTControl.thisRepN,Blocks_TMTControl.thisTrialN,Blocks_TMTControl.thisN,Blocks_TMTControl.thisIndex,trials_TMTControl.thisRepN,trials_TMTControl.thisTrialN,trials_TMTControl.thisN,trials_TMTControl.thisIndex,Blocks_TMTA.thisRepN,Blocks_TMTA.thisTrialN,Blocks_TMTA.thisN,Blocks_TMTA.thisIndex,trials_TMTA.thisRepN,trials_TMTA.thisTrialN,trials_TMTA.thisN,trials_TMTA.thisIndex,Blocks_TMTB.thisRepN,Blocks_TMTB.thisTrialN,Blocks_TMTB.thisN,Blocks_TMTB.thisIndex,trials_TMTB.thisRepN,trials_TMTB.thisTrialN,trials_TMTB.thisN,trials_TMTB.thisIndex,Blocks_TMTControl_2.thisRepN,Blocks_TMTControl_2.thisTrialN,Blocks_TMTControl_2.thisN,Blocks_TMTControl_2.thisIndex,trials_TMTControl_2.thisRepN,trials_TMTControl_2.thisTrialN,trials_TMTControl_2.thisN,trials_TMTControl_2.thisIndex,Blocks_TMTA_2.thisRepN,Blocks_TMTA_2.thisTrialN,Blocks_TMTA_2.thisN,Blocks_TMTA_2.thisIndex,trials_TMTA_2.thisRepN,trials_TMTA_2.thisTrialN,trials_TMTA_2.thisN,trials_TMTA_2.thisIndex,Blocks_TMTB_2.thisRepN,Blocks_TMTB_2.thisTrialN,Blocks_TMTB_2.thisN,Blocks_TMTB_2.thisIndex,trials_TMTB_2.thisRepN,trials_TMTB_2.thisTrialN,trials_TMTB_2.thisN,trials_TMTB_2.thisIndex,key_resp_7.keys,key_resp_7.rt,key_resp_7.started,key_resp_7.stopped,polygon_2.started,polygon_2.stopped,Attempts,First_attempt,Stim.started,Stim.stopped,key_resp_2.keys,key_resp_2.corr,key_resp_2.rt,key_resp_2.started,key_resp_2.stopped,participant,session,date,expName,psychopyVersion,frameRate,
,,,,,,,,,,,,,,,,,,,,,,,,,,,,,,,,,,,,,,,,,,,,,,,,,,,,,,,,,,,s,2.0093627000023844,9.851349299991853,None,,,,,,,,,,,,,001,2022_May_10_1115,TMT_fmri,2021.2.3,117.71879805739613,
TMTstop-Control_1_1.xlsx,0:26,1,['2'],2,TMTstop-control_1_1.png,TMTstop-control_1_1.png,TMTstop-control_1_1.png,TMT_Control,1,1,0,0,0,0,0,0,0,0,,,,,,,,,,,,,,,,,,,,,,,,,,,,,,,,,,,,,,,,,,,,,9.851349299991853,None,6,0,12.091153499990469,None,"['1', '2', '3', '1', '3', '2']",1,"[0.41527270000369754, 0.5951706000050763, 0.6006729000073392, 0.7318628000066383, 0.8565265000070212, 0.8848613000009209]",12.091153499990469,None,,001,2022_May_10_1115,TMT_fmri,2021.2.3,117.71879805739613,
TMTstop-Control_1_1.xlsx,0:26,2,['1'],1,TMTstop-control_1_1.png,TMTstop-control_1_1firstgreen.png,TMTstop-control_1_1firstred.png,TMT_Control,1,2,0,0,0,0,0,1,1,1,,,,,,,,,,,,,,,,,,,,,,,,,,,,,,,,,,,,,,,,,,,,,,,1,1,13.161484999989625,None,['1'],1,[-0.06784530000004452],13.161484999989625,None,,001,2022_May_10_1115,TMT_fmri,2021.2.3,117.71879805739613,
TMTstop-Control_1_1.xlsx,0:26,3,['3'],3,TMTstop-control_1_1linestimulus0.png,TMTstop-control_1_1greenlinestimulus0.png,TMTstop-control_1_1redlinestimulus0.png,TMT_Control,1,3,0,0,0,0,0,2,2,2,,,,,,,,,,,,,,,,,,,,,,,,,,,,,,,,,,,,,,,,,,,,,,,2,0,13.286511400001473,None,"['2', '3']",1,"[-0.08374090000870638, -0.07940380000218283]",13.286511400001473,None,,001,2022_May_10_1115,TMT_fmri,2021.2.3,117.71879805739613,
TMTstop-Control_1_1.xlsx,0:26,4,['1'],1,TMTstop-control_1_1linestimulus1.png,TMTstop-control_1_1greenlinestimulus1.png,TMTstop-control_1_1redlinestimulus1.png,TMT_Control,1,4,0,0,0,0,0,3,3,3,,,,,,,,,,,,,,,,,,,,,,,,,,,,,,,,,,,,,,,,,,,,,,,1,1,13.41306929998973,None,['1'],1,[-0.06832619999477174],13.41306929998973,None,,001,2022_May_10_1115,TMT_fmri,2021.2.3,117.71879805739613,
TMTstop-Control_1_1.xlsx,0:26,5,['3'],3,TMTstop-control_1_1linestimulus2.png,TMTstop-control_1_1greenlinestimulus2.png,TMTstop-control_1_1redlinestimulus2.png,TMT_Control,1,5,0,0,0,0,0,4,4,4,,,,,,,,,,,,,,,,,,,,,,,,,,,,,,,,,,,,,,,,,,,,,,,2,0,13.540708300002734,None,"['2', '3']",1,"[-0.07696399999258574, -0.06938929999887478]",13.540708300002734,None,,001,2022_May_10_1115,TMT_fmri,2021.2.3,117.71879805739613,
TMTstop-Control_1_1.xlsx,0:26,6,['1'],1,TMTstop-control_1_1linestimulus3.png,TMTstop-control_1_1greenlinestimulus3.png,TMTstop-control_1_1redlinestimulus3.png,TMT_Control,1,6,0,0,0,0,0,5,5,5,,,,,,,,,,,,,,,,,,,,,,,,,,,,,,,,,,,,,,,,,,,,,,,1,1,13.665555799991125,None,['1'],1,[-0.04989890000433661],13.665555799991125,None,,001,2022_May_10_1115,TMT_fmri,2021.2.3,117.71879805739613,
TMTstop-Control_1_1.xlsx,0:26,7,['2'],2,TMTstop-control_1_1linestimulus4.png,TMTstop-control_1_1greenlinestimulus4.png,TMTstop-control_1_1redlinestimulus4.png,TMT_Control,1,7,0,0,0,0,0,6,6,6,,,,,,,,,,,,,,,,,,,,,,,,,,,,,,,,,,,,,,,,,,,,,,,2,0,13.80429619998904,None,"['3', '2']",1,"[-0.06431289999454748, -0.05043930000101682]",13.80429619998904,None,,001,2022_May_10_1115,TMT_fmri,2021.2.3,117.71879805739613,
TMTstop-Control_1_1.xlsx,0:26,8,['1'],1,TMTstop-control_1_1linestimulus4.png,TMTstop-control_1_1greenlinestimulus5.png,TMTstop-control_1_1redlinestimulus5.png,TMT_Control,1,8,0,0,0,0,0,7,7,7,,,,,,,,,,,,,,,,,,,,,,,,,,,,,,,,,,,,,,,,,,,,,,,1,1,13.932727099992917,None,['1'],1,[-0.02600860000529792],13.932727099992917,None,,001,2022_May_10_1115,TMT_fmri,2021.2.3,117.71879805739613,
TMTstop-Control_1_1.xlsx,0:26,9,['3'],3,TMTstop-control_1_1linestimulus6.png,TMTstop-control_1_1greenlinestimulus6.png,TMTstop-control_1_1redlinestimulus6.png,TMT_Control,1,9,0,0,0,0,0,8,8,8,,,,,,,,,,,,,,,,,,,,,,,,,,,,,,,,,,,,,,,,,,,,,,,5,0,14.074060500002815,None,"['3', '2', '1', '2', '3']",1,"[-0.04683020000811666, -0.009887899999739602, 0.13002069998765364, 0.26037319999886677, 0.2675728999893181]",14.074060500002815,None,,001,2022_May_10_1115,TMT_fmri,2021.2.3,117.71879805739613,
TMTstop-Control_1_1.xlsx,0:26,10,['2'],2,TMTstop-control_1_1linestimulus7.png,TMTstop-control_1_1greenlinestimulus7.png,TMTstop-control_1_1redlinestimulus7.png,TMT_Control,1,10,0,0,0,0,0,9,9,9,,,,,,,,,,,,,,,,,,,,,,,,,,,,,,,,,,,,,,,,,,,,,,,3,0,14.481291699994472,None,"['1', '3', '2']",1,"[-0.007679600006667897, 0.12037609999242704, 0.12977580000006128]",14.481291699994472,None,,001,2022_May_10_1115,TMT_fmri,2021.2.3,117.71879805739613,
TMTstop-Control_1_1.xlsx,0:26,11,['1'],1,TMTstop-control_1_1linestimulus8.png,TMTstop-control_1_1greenlinestimulus8.png,TMTstop-control_1_1redlinestimulus8.png,TMT_Control,1,11,0,0,0,0,0,10,10,10,,,,,,,,,,,,,,,,,,,,,,,,,,,,,,,,,,,,,,,,,,,,,,,1,1,14.749453299999004,None,['1'],1,[-0.0015493999962927774],14.749453299999004,None,,001,2022_May_10_1115,TMT_fmri,2021.2.3,117.71879805739613,
TMTstop-Control_1_1.xlsx,0:26,12,['2'],2,TMTstop-control_1_1linestimulus9.png,TMTstop-control_1_1greenlinestimulus9.png,TMTstop-control_1_1redlinestimulus9.png,TMT_Control,1,12,0,0,0,0,0,11,11,11,,,,,,,,,,,,,,,,,,,,,,,,,,,,,,,,,,,,,,,,,,,,,,,2,0,14.887717399993562,None,"['3', '2']",1,"[-0.0162488000059966, 0.00807479998911731]",14.887717399993562,None,,001,2022_May_10_1115,TMT_fmri,2021.2.3,117.71879805739613,
TMTstop-Control_1_1.xlsx,0:26,13,['3'],3,TMTstop-control_1_1linestimulus10.png,TMTstop-control_1_1greenlinestimulus10.png,TMTstop-control_1_1redlinestimulus10.png,TMT_Control,1,13,0,0,0,0,0,12,12,12,,,,,,,,,,,,,,,,,,,,,,,,,,,,,,,,,,,,,,,,,,,,,,,11,0,15.015868599992245,None,"['1', '3', '2', '1', '3', '2', '1', '3', '2', '1', '3']",1,"[0.02026609999302309, 0.1501602000062121, 0.15481199999339879, 0.2964912000024924, 0.4046758000040427, 0.4241487999970559, 0.5563376000063727, 0.7827061999996658, 0.7925424999993993, 0.9362708999979077, 1.053204800002277]",15.015868599992245,None,,001,2022_May_10_1115,TMT_fmri,2021.2.3,117.71879805739613,
TMTstop-Control_1_1.xlsx,0:26,14,['2'],2,TMTstop-control_1_1linestimulus11.png,TMTstop-control_1_1greenlinestimulus11.png,TMTstop-control_1_1redlinestimulus11.png,TMT_Control,1,14,0,0,0,0,0,13,13,13,,,,,,,,,,,,,,,,,,,,,,,,,,,,,,,,,,,,,,,,,,,,,,,2,0,16.24936099999468,None,"['3', '2']",1,"[0.08448150000185706, 0.08897040000010747]",16.24936099999468,None,,001,2022_May_10_1115,TMT_fmri,2021.2.3,117.71879805739613,
TMTstop-Control_1_1.xlsx,0:26,15,['3'],3,TMTstop-control_1_1linestimulus12.png,TMTstop-control_1_1greenlinestimulus12.png,TMTstop-control_1_1redlinestimulus12.png,TMT_Control,1,15,0,0,0,0,0,14,14,14,,,,,,,,,,,,,,,,,,,,,,,,,,,,,,,,,,,,,,,,,,,,,,,6,0,16.52936210000189,None,"['2', '1', '3', '2', '1', '3']",1,"[-0.0008277000015368685, 0.05187959999602754, 0.19947099999990314, 0.24617270000453573, 0.3862567000032868, 0.5195143000019016]",16.52936210000189,None,,001,2022_May_10_1115,TMT_fmri,2021.2.3,117.71879805739613,
TMTstop-Control_1_1.xlsx,0:26,16,['2'],2,TMTstop-control_1_1linestimulus13.png,TMTstop-control_1_1greenlinestimulus13.png,TMTstop-control_1_1redlinestimulus13.png,TMT_Control,1,16,0,0,0,0,0,15,15,15,,,,,,,,,,,,,,,,,,,,,,,,,,,,,,,,,,,,,,,,,,,,,,,1,1,17.170055499998853,None,['2'],1,[0.006616099999519065],17.170055499998853,None,,001,2022_May_10_1115,TMT_fmri,2021.2.3,117.71879805739613,
TMTstop-Control_1_1.xlsx,0:26,17,['3'],3,TMTstop-control_1_1linestimulus14.png,TMTstop-control_1_1greenlinestimulus14.png,TMTstop-control_1_1redlinestimulus14.png,TMT_Control,1,17,0,0,0,0,0,16,16,16,,,,,,,,,,,,,,,,,,,,,,,,,,,,,,,,,,,,,,,,,,,,,,,2,0,17.296729599998798,None,"['1', '3']",1,"[-0.024072799991699867, 0.09250340001017321]",17.296729599998798,None,,001,2022_May_10_1115,TMT_fmri,2021.2.3,117.71879805739613,
TMTstop-Control_1_1.xlsx,0:26,18,['2'],2,TMTstop-control_1_1linestimulus15.png,TMTstop-control_1_1greenlinestimulus15.png,TMTstop-control_1_1redlinestimulus15.png,TMT_Control,1,18,0,0,0,0,0,17,17,17,,,,,,,,,,,,,,,,,,,,,,,,,,,,,,,,,,,,,,,,,,,,,,,1,1,17.549411100000725,None,['2'],1,[-0.06497890000173356],17.549411100000725,None,,001,2022_May_10_1115,TMT_fmri,2021.2.3,117.71879805739613,
TMTstop-Control_1_1.xlsx,0:26,19,['1'],1,TMTstop-control_1_1linestimulus16.png,TMTstop-control_1_1greenlinestimulus16.png,TMTstop-control_1_1redlinestimulus16.png,TMT_Control,1,19,0,0,0,0,0,18,18,18,,,,,,,,,,,,,,,,,,,,,,,,,,,,,,,,,,,,,,,,,,,,,,,1,1,17.675322999988566,None,['1'],1,[-0.09246060000441503],17.675322999988566,None,,001,2022_May_10_1115,TMT_fmri,2021.2.3,117.71879805739613,
TMTstop-Control_1_1.xlsx,0:26,20,['3'],3,TMTstop-control_1_1linestimulus17.png,TMTstop-control_1_1greenlinestimulus17.png,TMTstop-control_1_1redlinestimulus17.png,TMT_Control,1,20,0,0,0,0,0,19,19,19,,,,,,,,,,,,,,,,,,,,,,,,,,,,,,,,,,,,,,,,,,,,,,,1,1,17.801669799999218,None,['3'],1,[-0.07807139999931678],17.801669799999218,None,,001,2022_May_10_1115,TMT_fmri,2021.2.3,117.71879805739613,
TMTstop-Control_1_1.xlsx,0:26,21,['1'],1,TMTstop-control_1_1linestimulus18.png,TMTstop-control_1_1greenlinestimulus18.png,TMTstop-control_1_1redlinestimulus18.png,TMT_Control,1,21,0,0,0,0,0,20,20,20,,,,,,,,,,,,,,,,,,,,,,,,,,,,,,,,,,,,,,,,,,,,,,,2,0,17.936683699997957,None,"['2', '1']",1,"[-0.12086809999891557, -0.03961170000548009]",17.936683699997957,None,,001,2022_May_10_1115,TMT_fmri,2021.2.3,117.71879805739613,
TMTstop-Control_1_1.xlsx,0:26,22,['2'],2,TMTstop-control_1_1linestimulus19.png,TMTstop-control_1_1greenlinestimulus19.png,TMTstop-control_1_1redlinestimulus19.png,TMT_Control,1,22,0,0,0,0,0,21,21,21,,,,,,,,,,,,,,,,,,,,,,,,,,,,,,,,,,,,,,,,,,,,,,,2,0,18.068683099991176,None,"['3', '2']",1,"[-0.015486799995414913, -0.001556000002892688]",18.068683099991176,None,,001,2022_May_10_1115,TMT_fmri,2021.2.3,117.71879805739613,
TMTstop-Control_1_1.xlsx,0:26,23,['3'],3,TMTstop-control_1_1linestimulus20.png,TMTstop-control_1_1greenlinestimulus20.png,TMTstop-control_1_1redlinestimulus20.png,TMT_Control,1,23,0,0,0,0,0,22,22,22,,,,,,,,,,,,,,,,,,,,,,,,,,,,,,,,,,,,,,,,,,,,,,,5,0,18.191557199999806,None,"['1', '3', '2', '1', '3']",1,"[0.04727619999903254, 0.1834046000003582, 0.20116919999418315, 0.3645735999889439, 0.5260483000020031]",18.191557199999806,None,,001,2022_May_10_1115,TMT_fmri,2021.2.3,117.71879805739613,
TMTstop-Control_1_1.xlsx,0:26,24,['2'],2,TMTstop-control_1_1linestimulus21.png,TMTstop-control_1_1greenlinestimulus21.png,TMTstop-control_1_1redlinestimulus21.png,TMT_Control,1,24,0,0,0,0,0,23,23,23,,,,,,,,,,,,,,,,,,,,,,,,,,,,,,,,,,,,,,,,,,,,,,,1,1,18.85307839998859,None,['2'],1,[-0.11192029999801889],18.85307839998859,None,,001,2022_May_10_1115,TMT_fmri,2021.2.3,117.71879805739613,
TMTstop-Control_1_1.xlsx,0:26,25,['1'],1,TMTstop-control_1_1linestimulus22.png,TMTstop-control_1_1greenlinestimulus22.png,TMTstop-control_1_1redlinestimulus22.png,TMT_Control,1,25,0,0,0,0,0,24,24,24,,,,,,,,,,,,,,,,,,,,,,,,,,,,,,,,,,,,,,,,,,,,,,,1,1,18.99147369999264,None,['1'],1,[-0.09387189999688417],18.99147369999264,None,,001,2022_May_10_1115,TMT_fmri,2021.2.3,117.71879805739613,
TMTstop-Control_1_1.xlsx,0:26,None,None,None,TMTstop-control_1_1linestimulus23.png,TMTstop-control_1_1greenlinestimulus23.png,TMTstop-control_1_1redlinestimulus23.png,TMT_Control,1,Feedback_last,0,0,0,0,0,25,25,25,,,,,,,,,,,,,,,,,,,,,,,,,,,,,,,,,,,,,,,,,,,,,,,6,0,19.119157399996766,None,"['2', '3', '1', '3', '2', '1']",0,"[-0.06598200000007637, -0.06285600000410341, 0.14382579999801237, 0.2919475999951828, 0.30803869999363087, 0.4967049999977462]",19.119157399996766,None,,001,2022_May_10_1115,TMT_fmri,2021.2.3,117.71879805739613,
TMTstop-Control_1_2.xlsx,26:52,1,['2'],2,TMTstop-control_1_2.png,TMTstop-control_1_2.png,TMTstop-control_1_2.png,TMT_Control,2,26,0,1,1,1,0,0,0,0,,,,,,,,,,,,,,,,,,,,,,,,,,,,,,,,,,,,,,,,,,,,,,,2,0,23.366191699999035,None,"['3', '2']",1,"[0.40990420000161976, 0.44845760001044255]",23.366191699999035,None,,001,2022_May_10_1115,TMT_fmri,2021.2.3,117.71879805739613,
TMTstop-Control_1_2.xlsx,26:52,2,['3'],3,TMTstop-control_1_2.png,TMTstop-control_1_2firstgreen.png,TMTstop-control_1_2firstred.png,TMT_Control,2,27,0,1,1,1,0,1,1,1,,,,,,,,,,,,,,,,,,,,,,,,,,,,,,,,,,,,,,,,,,,,,,,2,0,23.923053399994387,None,"['1', '3']",1,"[0.03607430000556633, 0.18615579999459442]",23.923053399994387,None,,001,2022_May_10_1115,TMT_fmri,2021.2.3,117.71879805739613,
TMTstop-Control_1_2.xlsx,26:52,3,['2'],2,TMTstop-control_1_2linestimulus0.png,TMTstop-control_1_2greenlinestimulus0.png,TMTstop-control_1_2redlinestimulus0.png,TMT_Control,2,28,0,1,1,1,0,2,2,2,,,,,,,,,,,,,,,,,,,,,,,,,,,,,,,,,,,,,,,,,,,,,,,1,1,24.251897299996926,None,['2'],1,[-0.12412469999981113],24.251897299996926,None,,001,2022_May_10_1115,TMT_fmri,2021.2.3,117.71879805739613,
TMTstop-Control_1_2.xlsx,26:52,4,['3'],3,TMTstop-control_1_2linestimulus1.png,TMTstop-control_1_2greenlinestimulus1.png,TMTstop-control_1_2redlinestimulus1.png,TMT_Control,2,29,0,1,1,1,0,3,3,3,,,,,,,,,,,,,,,,,,,,,,,,,,,,,,,,,,,,,,,,,,,,,,,5,0,24.391688299991074,None,"['1', '3', '2', '1', '3']",1,"[-0.05006449999928009, 0.10881410000729375, 0.11680440000782255, 0.2681723999994574, 0.43540139999822713]",24.391688299991074,None,,001,2022_May_10_1115,TMT_fmri,2021.2.3,117.71879805739613,
TMTstop-Control_1_2.xlsx,26:52,5,['2'],2,TMTstop-control_1_2linestimulus2.png,TMTstop-control_1_2greenlinestimulus2.png,TMTstop-control_1_2redlinestimulus2.png,TMT_Control,2,30,0,1,1,1,0,4,4,4,,,,,,,,,,,,,,,,,,,,,,,,,,,,,,,,,,,,,,,,,,,,,,,1,1,24.912467999994988,None,['2'],1,[-0.06421929999487475],24.912467999994988,None,,001,2022_May_10_1115,TMT_fmri,2021.2.3,117.71879805739613,
TMTstop-Control_1_2.xlsx,26:52,6,['3'],3,TMTstop-control_1_2linestimulus3.png,TMTstop-control_1_2greenlinestimulus3.png,TMTstop-control_1_2redlinestimulus3.png,TMT_Control,2,31,0,1,1,1,0,5,5,5,,,,,,,,,,,,,,,,,,,,,,,,,,,,,,,,,,,,,,,,,,,,,,,2,0,25.038617300000624,None,"['1', '3']",1,"[-0.006146999992779456, 0.1300630000041565]",25.038617300000624,None,,001,2022_May_10_1115,TMT_fmri,2021.2.3,117.71879805739613,
TMTstop-Control_1_2.xlsx,26:52,7,['2'],2,TMTstop-control_1_2linestimulus4.png,TMTstop-control_1_2greenlinestimulus4.png,TMTstop-control_1_2redlinestimulus4.png,TMT_Control,2,32,0,1,1,1,0,6,6,6,,,,,,,,,,,,,,,,,,,,,,,,,,,,,,,,,,,,,,,,,,,,,,,1,1,25.30441019999853,None,['2'],1,[-0.10376620000170078],25.30441019999853,None,,001,2022_May_10_1115,TMT_fmri,2021.2.3,117.71879805739613,
TMTstop-Control_1_2.xlsx,26:52,8,['1'],1,TMTstop-control_1_2linestimulus4.png,TMTstop-control_1_2greenlinestimulus5.png,TMTstop-control_1_2redlinestimulus5.png,TMT_Control,2,33,0,1,1,1,0,7,7,7,,,,,,,,,,,,,,,,,,,,,,,,,,,,,,,,,,,,,,,,,,,,,,,1,1,25.432714099995792,None,['1'],1,[-0.05214759999944363],25.432714099995792,None,,001,2022_May_10_1115,TMT_fmri,2021.2.3,117.71879805739613,
TMTstop-Control_1_2.xlsx,26:52,9,['3'],3,TMTstop-control_1_2linestimulus6.png,TMTstop-control_1_2greenlinestimulus6.png,TMTstop-control_1_2redlinestimulus6.png,TMT_Control,2,34,0,1,1,1,0,8,8,8,,,,,,,,,,,,,,,,,,,,,,,,,,,,,,,,,,,,,,,,,,,,,,,1,1,25.55848549999064,None,['3'],1,[-0.027506400001584552],25.55848549999064,None,,001,2022_May_10_1115,TMT_fmri,2021.2.3,117.71879805739613,
TMTstop-Control_1_2.xlsx,26:52,10,['2'],2,TMTstop-control_1_2linestimulus7.png,TMTstop-control_1_2greenlinestimulus7.png,TMTstop-control_1_2redlinestimulus7.png,TMT_Control,2,35,0,1,1,1,0,9,9,9,,,,,,,,,,,,,,,,,,,,,,,,,,,,,,,,,,,,,,,,,,,,,,,1,1,25.697045299995807,None,['2'],1,[-0.12916799999948125],25.697045299995807,None,,001,2022_May_10_1115,TMT_fmri,2021.2.3,117.71879805739613,
TMTstop-Control_1_2.xlsx,26:52,11,['3'],3,TMTstop-control_1_2linestimulus8.png,TMTstop-control_1_2greenlinestimulus8.png,TMTstop-control_1_2redlinestimulus8.png,TMT_Control,2,36,0,1,1,1,0,10,10,10,,,,,,,,,,,,,,,,,,,,,,,,,,,,,,,,,,,,,,,,,,,,,,,11,0,25.837765199990827,None,"['1', '3', '2', '1', '3', '2', '1', '3', '2', '1', '3']",1,"[-0.08109340000373777, 0.06813129999500234, 0.10162050000508316, 0.2570592999982182, 0.4181862999976147, 0.44093359999533277, 0.6145586999919033, 0.7816967999970075, 0.7993611999991117, 1.1492479000007734, 1.2379743000055896]",25.837765199990827,None,,001,2022_May_10_1115,TMT_fmri,2021.2.3,117.71879805739613,
TMTstop-Control_1_2.xlsx,26:52,12,['2'],2,TMTstop-control_1_2linestimulus9.png,TMTstop-control_1_2greenlinestimulus9.png,TMTstop-control_1_2redlinestimulus9.png,TMT_Control,2,37,0,1,1,1,0,11,11,11,,,,,,,,,,,,,,,,,,,,,,,,,,,,,,,,,,,,,,,,,,,,,,,1,1,27.192522099998314,None,['2'],1,[-0.047241200009011663],27.192522099998314,None,,001,2022_May_10_1115,TMT_fmri,2021.2.3,117.71879805739613,
TMTstop-Control_1_2.xlsx,26:52,13,['3'],3,TMTstop-control_1_2linestimulus10.png,TMTstop-control_1_2greenlinestimulus10.png,TMTstop-control_1_2redlinestimulus10.png,TMT_Control,2,38,0,1,1,1,0,12,12,12,,,,,,,,,,,,,,,,,,,,,,,,,,,,,,,,,,,,,,,,,,,,,,,2,0,27.32017549999,None,"['1', '3']",1,"[0.017001100000925362, 0.16384480000124313]",27.32017549999,None,,001,2022_May_10_1115,TMT_fmri,2021.2.3,117.71879805739613,
TMTstop-Control_1_2.xlsx,26:52,14,['2'],2,TMTstop-control_1_2linestimulus11.png,TMTstop-control_1_2greenlinestimulus11.png,TMTstop-control_1_2redlinestimulus11.png,TMT_Control,2,39,0,1,1,1,0,13,13,13,,,,,,,,,,,,,,,,,,,,,,,,,,,,,,,,,,,,,,,,,,,,,,,1,1,27.586680099993828,None,['2'],1,[-0.07863640000869054],27.586680099993828,None,,001,2022_May_10_1115,TMT_fmri,2021.2.3,117.71879805739613,
TMTstop-Control_1_2.xlsx,26:52,15,['3'],3,TMTstop-control_1_2linestimulus12.png,TMTstop-control_1_2greenlinestimulus12.png,TMTstop-control_1_2redlinestimulus12.png,TMT_Control,2,40,0,1,1,1,0,14,14,14,,,,,,,,,,,,,,,,,,,,,,,,,,,,,,,,,,,,,,,,,,,,,,,20,0,27.7138535999984,None,"['1', '3', '2', '1', '3', '2', '1', '3', '2', '1', '3', '2', '1', '3', '2', '1', '3', '2', '1', '3']",1,"[-0.04156610000063665, 0.1108371000009356, 0.13808889999927487, 0.2758849000092596, 0.4031649000098696, 0.4271255000057863, 0.6043857000040589, 0.7497780000121566, 0.7650049000076251, 0.9350126000063028, 1.1087447000027169, 1.1391431000083685, 1.310973700004979, 1.4771160000091186, 1.5180720000062138, 1.6647231000097236, 1.8376279000076465, 1.9029520000040065, 2.0674359000113327, 2.2818416000081925]",27.7138535999984,None,,001,2022_May_10_1115,TMT_fmri,2021.2.3,117.71879805739613,
TMTstop-Control_1_2.xlsx,26:52,16,['1'],1,TMTstop-control_1_2linestimulus13.png,TMTstop-control_1_2greenlinestimulus13.png,TMTstop-control_1_2redlinestimulus13.png,TMT_Control,2,41,0,1,1,1,0,15,15,15,,,,,,,,,,,,,,,,,,,,,,,,,,,,,,,,,,,,,,,,,,,,,,,2,0,30.130150299999514,None,"['2', '1']",1,"[-0.07732840000244323, 0.05425269999250304]",30.130150299999514,None,,001,2022_May_10_1115,TMT_fmri,2021.2.3,117.71879805739613,
TMTstop-Control_1_2.xlsx,26:52,17,['2'],2,TMTstop-control_1_2linestimulus14.png,TMTstop-control_1_2greenlinestimulus14.png,TMTstop-control_1_2redlinestimulus14.png,TMT_Control,2,42,0,1,1,1,0,16,16,16,,,,,,,,,,,,,,,,,,,,,,,,,,,,,,,,,,,,,,,,,,,,,,,2,0,30.396163099998375,None,"['3', '2']",1,"[-0.08346710000478197, -0.051824099995428696]",30.396163099998375,None,,001,2022_May_10_1115,TMT_fmri,2021.2.3,117.71879805739613,
TMTstop-Control_1_2.xlsx,26:52,18,['1'],1,TMTstop-control_1_2linestimulus15.png,TMTstop-control_1_2greenlinestimulus15.png,TMTstop-control_1_2redlinestimulus15.png,TMT_Control,2,43,0,1,1,1,0,17,17,17,,,,,,,,,,,,,,,,,,,,,,,,,,,,,,,,,,,,,,,,,,,,,,,1,1,30.536983600002714,None,['1'],1,[-0.007562499988125637],30.536983600002714,None,,001,2022_May_10_1115,TMT_fmri,2021.2.3,117.71879805739613,
TMTstop-Control_1_2.xlsx,26:52,19,['2'],2,TMTstop-control_1_2linestimulus16.png,TMTstop-control_1_2greenlinestimulus16.png,TMTstop-control_1_2redlinestimulus16.png,TMT_Control,2,44,0,1,1,1,0,18,18,18,,,,,,,,,,,,,,,,,,,,,,,,,,,,,,,,,,,,,,,,,,,,,,,2,0,30.662169799994444,None,"['3', '2']",1,"[-0.04056090000085533, 0.10661459999391809]",30.662169799994444,None,,001,2022_May_10_1115,TMT_fmri,2021.2.3,117.71879805739613,
TMTstop-Control_1_2.xlsx,26:52,20,['3'],3,TMTstop-control_1_2linestimulus17.png,TMTstop-control_1_2greenlinestimulus17.png,TMTstop-control_1_2redlinestimulus17.png,TMT_Control,2,45,0,1,1,1,0,19,19,19,,,,,,,,,,,,,,,,,,,,,,,,,,,,,,,,,,,,,,,,,,,,,,,3,0,30.93800769999507,None,"['1', '2', '3']",1,"[-0.09430199999769684, 0.013231000004452653, 0.016131900003529154]",30.93800769999507,None,,001,2022_May_10_1115,TMT_fmri,2021.2.3,117.71879805739613,
TMTstop-Control_1_2.xlsx,26:52,21,['1'],1,TMTstop-control_1_2linestimulus18.png,TMTstop-control_1_2greenlinestimulus18.png,TMTstop-control_1_2redlinestimulus18.png,TMT_Control,2,46,0,1,1,1,0,20,20,20,,,,,,,,,,,,,,,,,,,,,,,,,,,,,,,,,,,,,,,,,,,,,,,1,1,31.070167899990338,None,['1'],1,[0.058827199987717904],31.070167899990338,None,,001,2022_May_10_1115,TMT_fmri,2021.2.3,117.71879805739613,
TMTstop-Control_1_2.xlsx,26:52,22,['3'],3,TMTstop-control_1_2linestimulus19.png,TMTstop-control_1_2greenlinestimulus19.png,TMTstop-control_1_2redlinestimulus19.png,TMT_Control,2,47,0,1,1,1,0,21,21,21,,,,,,,,,,,,,,,,,,,,,,,,,,,,,,,,,,,,,,,,,,,,,,,4,0,31.33685959999275,None,"['3', '2', '1', '3']",1,"[-0.03524110000580549, -0.0012578000023495406, 0.12073169999348465, 0.26875980000477284]",31.33685959999275,None,,001,2022_May_10_1115,TMT_fmri,2021.2.3,117.71879805739613,
TMTstop-Control_1_2.xlsx,26:52,23,['2'],2,TMTstop-control_1_2linestimulus20.png,TMTstop-control_1_2greenlinestimulus20.png,TMTstop-control_1_2redlinestimulus20.png,TMT_Control,2,48,0,1,1,1,0,22,22,22,,,,,,,,,,,,,,,,,,,,,,,,,,,,,,,,,,,,,,,,,,,,,,,4,0,31.804512899994734,None,"['2', '1', '3', '2']",1,"[-0.061882099995273165, -0.03885719999379944, 0.11555940000107512, 0.1390164000040386]",31.804512899994734,None,,001,2022_May_10_1115,TMT_fmri,2021.2.3,117.71879805739613,
TMTstop-Control_1_2.xlsx,26:52,24,['3'],3,TMTstop-control_1_2linestimulus21.png,TMTstop-control_1_2greenlinestimulus21.png,TMTstop-control_1_2redlinestimulus21.png,TMT_Control,2,49,0,1,1,1,0,23,23,23,,,,,,,,,,,,,,,,,,,,,,,,,,,,,,,,,,,,,,,,,,,,,,,2,0,32.05855679999513,None,"['1', '3']",1,"[0.027031999998143874, 0.18385830000624992]",32.05855679999513,None,,001,2022_May_10_1115,TMT_fmri,2021.2.3,117.71879805739613,
TMTstop-Control_1_2.xlsx,26:52,25,['1'],1,TMTstop-control_1_2linestimulus22.png,TMTstop-control_1_2greenlinestimulus22.png,TMTstop-control_1_2redlinestimulus22.png,TMT_Control,2,50,0,1,1,1,0,24,24,24,,,,,,,,,,,,,,,,,,,,,,,,,,,,,,,,,,,,,,,,,,,,,,,2,0,32.32558109999809,None,"['2', '1']",1,"[-0.059987799992086366, 0.07699960000172723]",32.32558109999809,None,,001,2022_May_10_1115,TMT_fmri,2021.2.3,117.71879805739613,
TMTstop-Control_1_2.xlsx,26:52,None,None,None,TMTstop-control_1_2linestimulus23.png,TMTstop-control_1_2greenlinestimulus23.png,TMTstop-control_1_2redlinestimulus23.png,TMT_Control,2,Feedback_last,0,1,1,1,0,25,25,25,,,,,,,,,,,,,,,,,,,,,,,,,,,,,,,,,,,,,,,,,,,,,,,5,0,32.577449599994,None,"['3', '2', '1', '3', '2']",0,"[-0.04324250000354368, -0.014796200004639104, 0.11903699999675155, 0.26963749999413267, 0.4243621999921743]",32.577449599994,None,,001,2022_May_10_1115,TMT_fmri,2021.2.3,117.71879805739613,
TMTstop-Control_1_3.xlsx,52:78,1,['2'],2,TMTstop-control_1_3.png,TMTstop-control_1_3.png,TMTstop-control_1_3.png,TMT_Control,3,51,0,2,2,2,0,0,0,0,,,,,,,,,,,,,,,,,,,,,,,,,,,,,,,,,,,,,,,,,,,,,,,1,1,36.782989200000884,None,['2'],1,[0.6158966000075452],36.782989200000884,None,,001,2022_May_10_1115,TMT_fmri,2021.2.3,117.71879805739613,
TMTstop-Control_1_3.xlsx,52:78,2,['1'],1,TMTstop-control_1_3.png,TMTstop-control_1_3firstgreen.png,TMTstop-control_1_3firstred.png,TMT_Control,3,52,0,2,2,2,0,1,1,1,,,,,,,,,,,,,,,,,,,,,,,,,,,,,,,,,,,,,,,,,,,,,,,1,1,37.59272200000123,None,['1'],1,[-0.021222199997282587],37.59272200000123,None,,001,2022_May_10_1115,TMT_fmri,2021.2.3,117.71879805739613,
TMTstop-Control_1_3.xlsx,52:78,3,['2'],2,TMTstop-control_1_3linestimulus0.png,TMTstop-control_1_3greenlinestimulus0.png,TMTstop-control_1_3redlinestimulus0.png,TMT_Control,3,53,0,2,2,2,0,2,2,2,,,,,,,,,,,,,,,,,,,,,,,,,,,,,,,,,,,,,,,,,,,,,,,6,0,37.73475189998862,None,"['3', '1', '3', '1', '3', '2']",1,"[-0.003942399998777546, 0.19734949999838136, 0.3454363999917405, 0.5409196999971755, 0.6912538999895332, 0.7096574999886798]",37.73475189998862,None,,001,2022_May_10_1115,TMT_fmri,2021.2.3,117.71879805739613,
TMTstop-Control_1_3.xlsx,52:78,4,['1'],1,TMTstop-control_1_3linestimulus1.png,TMTstop-control_1_3greenlinestimulus1.png,TMTstop-control_1_3redlinestimulus1.png,TMT_Control,3,54,0,2,2,2,0,3,3,3,,,,,,,,,,,,,,,,,,,,,,,,,,,,,,,,,,,,,,,,,,,,,,,1,1,38.64965549999033,None,['1'],1,[-0.03984890000720043],38.64965549999033,None,,001,2022_May_10_1115,TMT_fmri,2021.2.3,117.71879805739613,
TMTstop-Control_1_3.xlsx,52:78,5,['3'],3,TMTstop-control_1_3linestimulus2.png,TMTstop-control_1_3greenlinestimulus2.png,TMTstop-control_1_3redlinestimulus2.png,TMT_Control,3,55,0,2,2,2,0,4,4,4,,,,,,,,,,,,,,,,,,,,,,,,,,,,,,,,,,,,,,,,,,,,,,,1,1,38.77591749999556,None,['3'],1,[-0.004616100006387569],38.77591749999556,None,,001,2022_May_10_1115,TMT_fmri,2021.2.3,117.71879805739613,
TMTstop-Control_1_3.xlsx,52:78,6,['1'],1,TMTstop-control_1_3linestimulus3.png,TMTstop-control_1_3greenlinestimulus3.png,TMTstop-control_1_3redlinestimulus3.png,TMT_Control,3,56,0,2,2,2,0,5,5,5,,,,,,,,,,,,,,,,,,,,,,,,,,,,,,,,,,,,,,,,,,,,,,,2,0,38.902491799992276,None,"['2', '1']",1,"[-0.06588850000116508, 0.05683610000414774]",38.902491799992276,None,,001,2022_May_10_1115,TMT_fmri,2021.2.3,117.71879805739613,
TMTstop-Control_1_3.xlsx,52:78,7,['2'],2,TMTstop-control_1_3linestimulus4.png,TMTstop-control_1_3greenlinestimulus4.png,TMTstop-control_1_3redlinestimulus4.png,TMT_Control,3,57,0,2,2,2,0,6,6,6,,,,,,,,,,,,,,,,,,,,,,,,,,,,,,,,,,,,,,,,,,,,,,,2,0,39.185794799996074,None,"['3', '2']",1,"[-0.09465919999638572, -0.07225779999862425]",39.185794799996074,None,,001,2022_May_10_1115,TMT_fmri,2021.2.3,117.71879805739613,
TMTstop-Control_1_3.xlsx,52:78,8,['3'],3,TMTstop-control_1_3linestimulus4.png,TMTstop-control_1_3greenlinestimulus5.png,TMTstop-control_1_3redlinestimulus5.png,TMT_Control,3,58,0,2,2,2,0,7,7,7,,,,,,,,,,,,,,,,,,,,,,,,,,,,,,,,,,,,,,,,,,,,,,,8,0,39.31214149999141,None,"['1', '3', '2', '1', '3', '2', '1', '3']",1,"[-0.042506400001002476, 0.09097810000821482, 0.12030579999554902, 0.2794052999961423, 0.41650780000782106, 0.42918079999799374, 0.5870618000044487, 0.718987800006289]",39.31214149999141,None,,001,2022_May_10_1115,TMT_fmri,2021.2.3,117.71879805739613,
TMTstop-Control_1_3.xlsx,52:78,9,['1'],1,TMTstop-control_1_3linestimulus6.png,TMTstop-control_1_3greenlinestimulus6.png,TMTstop-control_1_3redlinestimulus6.png,TMT_Control,3,59,0,2,2,2,0,8,8,8,,,,,,,,,,,,,,,,,,,,,,,,,,,,,,,,,,,,,,,,,,,,,,,2,0,40.160680699991644,None,"['2', '1']",1,"[-0.112422999998671, 0.06313239999872167]",40.160680699991644,None,,001,2022_May_10_1115,TMT_fmri,2021.2.3,117.71879805739613,
TMTstop-Control_1_3.xlsx,52:78,10,['2'],2,TMTstop-control_1_3linestimulus7.png,TMTstop-control_1_3greenlinestimulus7.png,TMTstop-control_1_3redlinestimulus7.png,TMT_Control,3,60,0,2,2,2,0,9,9,9,,,,,,,,,,,,,,,,,,,,,,,,,,,,,,,,,,,,,,,,,,,,,,,2,0,40.439375499991,None,"['3', '2']",1,"[-0.06779770000139251, -0.05848270001297351]",40.439375499991,None,,001,2022_May_10_1115,TMT_fmri,2021.2.3,117.71879805739613,
TMTstop-Control_1_3.xlsx,52:78,11,['1'],1,TMTstop-control_1_3linestimulus8.png,TMTstop-control_1_3greenlinestimulus8.png,TMTstop-control_1_3redlinestimulus8.png,TMT_Control,3,61,0,2,2,2,0,10,10,10,,,,,,,,,,,,,,,,,,,,,,,,,,,,,,,,,,,,,,,,,,,,,,,1,1,40.56441019999329,None,['1'],1,[-0.03409780000220053],40.56441019999329,None,,001,2022_May_10_1115,TMT_fmri,2021.2.3,117.71879805739613,
TMTstop-Control_1_3.xlsx,52:78,12,['2'],2,TMTstop-control_1_3linestimulus9.png,TMTstop-control_1_3greenlinestimulus9.png,TMTstop-control_1_3redlinestimulus9.png,TMT_Control,3,62,0,2,2,2,0,11,11,11,,,,,,,,,,,,,,,,,,,,,,,,,,,,,,,,,,,,,,,,,,,,,,,2,0,40.68964799999958,None,"['3', '2']",1,"[-0.004100300007849, 0.041086600002017803]",40.68964799999958,None,,001,2022_May_10_1115,TMT_fmri,2021.2.3,117.71879805739613,
TMTstop-Control_1_3.xlsx,52:78,13,['3'],3,TMTstop-control_1_3linestimulus10.png,TMTstop-control_1_3greenlinestimulus10.png,TMTstop-control_1_3redlinestimulus10.png,TMT_Control,3,63,0,2,2,2,0,12,12,12,,,,,,,,,,,,,,,,,,,,,,,,,,,,,,,,,,,,,,,,,,,,,,,5,0,40.81810889999906,None,"['1', '3', '2', '1', '3']",1,"[0.05017570000200067, 0.18890120000287425, 0.21499130000302102, 0.3863778000086313, 0.5323379000037676]",40.81810889999906,None,,001,2022_May_10_1115,TMT_fmri,2021.2.3,117.71879805739613,
TMTstop-Control_1_3.xlsx,52:78,14,['2'],2,TMTstop-control_1_3linestimulus11.png,TMTstop-control_1_3greenlinestimulus11.png,TMTstop-control_1_3redlinestimulus11.png,TMT_Control,3,64,0,2,2,2,0,13,13,13,,,,,,,,,,,,,,,,,,,,,,,,,,,,,,,,,,,,,,,,,,,,,,,1,1,41.50791039998876,None,['2'],1,[-0.13382509999792092],41.50791039998876,None,,001,2022_May_10_1115,TMT_fmri,2021.2.3,117.71879805739613,
TMTstop-Control_1_3.xlsx,52:78,15,['1'],1,TMTstop-control_1_3linestimulus12.png,TMTstop-control_1_3greenlinestimulus12.png,TMTstop-control_1_3redlinestimulus12.png,TMT_Control,3,65,0,2,2,2,0,14,14,14,,,,,,,,,,,,,,,,,,,,,,,,,,,,,,,,,,,,,,,,,,,,,,,1,1,41.649754300000495,None,['1'],1,[-0.12519769999198616],41.649754300000495,None,,001,2022_May_10_1115,TMT_fmri,2021.2.3,117.71879805739613,
TMTstop-Control_1_3.xlsx,52:78,16,['3'],3,TMTstop-control_1_3linestimulus13.png,TMTstop-control_1_3greenlinestimulus13.png,TMTstop-control_1_3redlinestimulus13.png,TMT_Control,3,66,0,2,2,2,0,15,15,15,,,,,,,,,,,,,,,,,,,,,,,,,,,,,,,,,,,,,,,,,,,,,,,4,0,41.79120199999306,None,"['3', '2', '1', '3']",1,"[-0.09322220001195092, -0.06737250000878703, 0.08075909999024589, 0.22773279999091756]",41.79120199999306,None,,001,2022_May_10_1115,TMT_fmri,2021.2.3,117.71879805739613,
TMTstop-Control_1_3.xlsx,52:78,17,['1'],1,TMTstop-control_1_3linestimulus14.png,TMTstop-control_1_3greenlinestimulus14.png,TMTstop-control_1_3redlinestimulus14.png,TMT_Control,3,67,0,2,2,2,0,16,16,16,,,,,,,,,,,,,,,,,,,,,,,,,,,,,,,,,,,,,,,,,,,,,,,2,0,42.121478899993235,None,"['2', '1']",1,"[-0.07489940000232309, 0.08306000000447966]",42.121478899993235,None,,001,2022_May_10_1115,TMT_fmri,2021.2.3,117.71879805739613,
TMTstop-Control_1_3.xlsx,52:78,18,['3'],3,TMTstop-control_1_3linestimulus15.png,TMTstop-control_1_3greenlinestimulus15.png,TMTstop-control_1_3redlinestimulus15.png,TMT_Control,3,68,0,2,2,2,0,17,17,17,,,,,,,,,,,,,,,,,,,,,,,,,,,,,,,,,,,,,,,,,,,,,,,1,1,42.376724499990814,None,['3'],1,[-0.028293800001847558],42.376724499990814,None,,001,2022_May_10_1115,TMT_fmri,2021.2.3,117.71879805739613,
TMTstop-Control_1_3.xlsx,52:78,19,['2'],2,TMTstop-control_1_3linestimulus16.png,TMTstop-control_1_3greenlinestimulus16.png,TMTstop-control_1_3redlinestimulus16.png,TMT_Control,3,69,0,2,2,2,0,18,18,18,,,,,,,,,,,,,,,,,,,,,,,,,,,,,,,,,,,,,,,,,,,,,,,1,1,42.50363330000255,None,['2'],1,[-0.06289270000706892],42.50363330000255,None,,001,2022_May_10_1115,TMT_fmri,2021.2.3,117.71879805739613,
TMTstop-Control_1_3.xlsx,52:78,20,['1'],1,TMTstop-control_1_3linestimulus17.png,TMTstop-control_1_3greenlinestimulus17.png,TMTstop-control_1_3redlinestimulus17.png,TMT_Control,3,70,0,2,2,2,0,19,19,19,,,,,,,,,,,,,,,,,,,,,,,,,,,,,,,,,,,,,,,,,,,,,,,1,1,42.62951339999563,None,['1'],1,[-0.10232430000905879],42.62951339999563,None,,001,2022_May_10_1115,TMT_fmri,2021.2.3,117.71879805739613,
TMTstop-Control_1_3.xlsx,52:78,21,['3'],3,TMTstop-control_1_3linestimulus18.png,TMTstop-control_1_3greenlinestimulus18.png,TMTstop-control_1_3redlinestimulus18.png,TMT_Control,3,71,0,2,2,2,0,20,20,20,,,,,,,,,,,,,,,,,,,,,,,,,,,,,,,,,,,,,,,,,,,,,,,4,0,42.757413400002406,None,"['3', '2', '1', '3']",1,"[-0.10917280000285245, -0.09554989999742247, 0.04931770000257529, 0.18037420000473503]",42.757413400002406,None,,001,2022_May_10_1115,TMT_fmri,2021.2.3,117.71879805739613,
TMTstop-Control_1_3.xlsx,52:78,22,['2'],2,TMTstop-control_1_3linestimulus19.png,TMTstop-control_1_3greenlinestimulus19.png,TMTstop-control_1_3redlinestimulus19.png,TMT_Control,3,72,0,2,2,2,0,21,21,21,,,,,,,,,,,,,,,,,,,,,,,,,,,,,,,,,,,,,,,,,,,,,,,4,0,43.14975009999762,None,"['2', '1', '3', '2']",1,"[-0.062031900000874884, -0.018052200000965968, 0.11680129999876954, 0.15755360000184737]",43.14975009999762,None,,001,2022_May_10_1115,TMT_fmri,2021.2.3,117.71879805739613,
TMTstop-Control_1_3.xlsx,52:78,23,['3'],3,TMTstop-control_1_3linestimulus20.png,TMTstop-control_1_3greenlinestimulus20.png,TMTstop-control_1_3redlinestimulus20.png,TMT_Control,3,73,0,2,2,2,0,22,22,22,,,,,,,,,,,,,,,,,,,,,,,,,,,,,,,,,,,,,,,,,,,,,,,8,0,43.40246919999481,None,"['1', '3', '2', '1', '3', '2', '1', '3']",1,"[0.03941630000190344, 0.1793755999970017, 0.21394829999189824, 0.37276070000370964, 0.4998693999950774, 0.5274115999927744, 0.6849523999990197, 0.834667699993588]",43.40246919999481,None,,001,2022_May_10_1115,TMT_fmri,2021.2.3,117.71879805739613,
TMTstop-Control_1_3.xlsx,52:78,24,['1'],1,TMTstop-control_1_3linestimulus21.png,TMTstop-control_1_3greenlinestimulus21.png,TMTstop-control_1_3redlinestimulus21.png,TMT_Control,3,74,0,2,2,2,0,23,23,23,,,,,,,,,,,,,,,,,,,,,,,,,,,,,,,,,,,,,,,,,,,,,,,1,1,44.34135209998931,None,['1'],1,[0.13588189998699818],44.34135209998931,None,,001,2022_May_10_1115,TMT_fmri,2021.2.3,117.71879805739613,
TMTstop-Control_1_3.xlsx,52:78,25,['2'],2,TMTstop-control_1_3linestimulus22.png,TMTstop-control_1_3greenlinestimulus22.png,TMTstop-control_1_3redlinestimulus22.png,TMT_Control,3,75,0,2,2,2,0,24,24,24,,,,,,,,,,,,,,,,,,,,,,,,,,,,,,,,,,,,,,,,,,,,,,,2,0,44.609362000002875,None,"['3', '2']",1,"[0.009656700000050478, 0.04746139999770094]",44.609362000002875,None,,001,2022_May_10_1115,TMT_fmri,2021.2.3,117.71879805739613,
TMTstop-Control_1_3.xlsx,52:78,None,None,None,TMTstop-control_1_3linestimulus23.png,TMTstop-control_1_3greenlinestimulus23.png,TMTstop-control_1_3redlinestimulus23.png,TMT_Control,3,Feedback_last,0,2,2,2,0,25,25,25,,,,,,,,,,,,,,,,,,,,,,,,,,,,,,,,,,,,,,,,,,,,,,,3,0,44.75341869999829,None,"['1', '3', '2']",0,"[0.09110639999562409, 0.2550978999934159, 0.2949213999963831]",44.75341869999829,None,,001,2022_May_10_1115,TMT_fmri,2021.2.3,117.71879805739613,
TMTstop-Control_1_4.xlsx,78:104,1,['2'],2,TMTstop-control_1_4.png,TMTstop-control_1_4.png,TMTstop-control_1_4.png,TMT_Control,4,76,0,3,3,3,0,0,0,0,,,,,,,,,,,,,,,,,,,,,,,,,,,,,,,,,,,,,,,,,,,,,,,4,0,48.893923800002085,None,"['3', '1', '3', '2']",1,"[0.4031487000029301, 0.5974606999952812, 0.8065003999945475, 0.8169969000009587]",48.893923800002085,None,,001,2022_May_10_1115,TMT_fmri,2021.2.3,117.71879805739613,
TMTstop-Control_1_4.xlsx,78:104,2,['1'],1,TMTstop-control_1_4.png,TMTstop-control_1_4firstgreen.png,TMTstop-control_1_4firstred.png,TMT_Control,4,77,0,3,3,3,0,1,1,1,,,,,,,,,,,,,,,,,,,,,,,,,,,,,,,,,,,,,,,,,,,,,,,1,1,49.85526549999486,None,['1'],1,[-0.001836600000387989],49.85526549999486,None,,001,2022_May_10_1115,TMT_fmri,2021.2.3,117.71879805739613,
TMTstop-Control_1_4.xlsx,78:104,3,['3'],3,TMTstop-control_1_4linestimulus0.png,TMTstop-control_1_4greenlinestimulus0.png,TMTstop-control_1_4redlinestimulus0.png,TMT_Control,4,78,0,3,3,3,0,2,2,2,,,,,,,,,,,,,,,,,,,,,,,,,,,,,,,,,,,,,,,,,,,,,,,1,1,49.98280959999829,None,['3'],1,[-0.009719900001073256],49.98280959999829,None,,001,2022_May_10_1115,TMT_fmri,2021.2.3,117.71879805739613,
TMTstop-Control_1_4.xlsx,78:104,4,['1'],1,TMTstop-control_1_4linestimulus1.png,TMTstop-control_1_4greenlinestimulus1.png,TMTstop-control_1_4redlinestimulus1.png,TMT_Control,4,79,0,3,3,3,0,3,3,3,,,,,,,,,,,,,,,,,,,,,,,,,,,,,,,,,,,,,,,,,,,,,,,2,0,50.107927099990775,None,"['2', '1']",1,"[-0.11338799999793991, 0.04258609999669716]",50.107927099990775,None,,001,2022_May_10_1115,TMT_fmri,2021.2.3,117.71879805739613,
TMTstop-Control_1_4.xlsx,78:104,5,['3'],3,TMTstop-control_1_4linestimulus2.png,TMTstop-control_1_4greenlinestimulus2.png,TMTstop-control_1_4redlinestimulus2.png,TMT_Control,4,80,0,3,3,3,0,4,4,4,,,,,,,,,,,,,,,,,,,,,,,,,,,,,,,,,,,,,,,,,,,,,,,1,1,50.250004799992894,None,['3'],1,[0.04443740000715479],50.250004799992894,None,,001,2022_May_10_1115,TMT_fmri,2021.2.3,117.71879805739613,
TMTstop-Control_1_4.xlsx,78:104,6,['1'],1,TMTstop-control_1_4linestimulus3.png,TMTstop-control_1_4greenlinestimulus3.png,TMTstop-control_1_4redlinestimulus3.png,TMT_Control,4,81,0,3,3,3,0,5,5,5,,,,,,,,,,,,,,,,,,,,,,,,,,,,,,,,,,,,,,,,,,,,,,,2,0,50.39103569999861,None,"['2', '1']",1,"[-0.08243450000009034, 0.06304179999278858]",50.39103569999861,None,,001,2022_May_10_1115,TMT_fmri,2021.2.3,117.71879805739613,
TMTstop-Control_1_4.xlsx,78:104,7,['3'],3,TMTstop-control_1_4linestimulus4.png,TMTstop-control_1_4greenlinestimulus4.png,TMTstop-control_1_4redlinestimulus4.png,TMT_Control,4,82,0,3,3,3,0,6,6,6,,,,,,,,,,,,,,,,,,,,,,,,,,,,,,,,,,,,,,,,,,,,,,,1,1,50.592165599999134,None,['3'],1,[-0.01661700000113342],50.592165599999134,None,,001,2022_May_10_1115,TMT_fmri,2021.2.3,117.71879805739613,
TMTstop-Control_1_4.xlsx,78:104,8,['1'],1,TMTstop-control_1_4linestimulus4.png,TMTstop-control_1_4greenlinestimulus5.png,TMTstop-control_1_4redlinestimulus5.png,TMT_Control,4,83,0,3,3,3,0,7,7,7,,,,,,,,,,,,,,,,,,,,,,,,,,,,,,,,,,,,,,,,,,,,,,,2,0,50.71635799999058,None,"['2', '1']",1,"[0.0020779000042239204, 0.03998580000188667]",50.71635799999058,None,,001,2022_May_10_1115,TMT_fmri,2021.2.3,117.71879805739613,
TMTstop-Control_1_4.xlsx,78:104,9,['3'],3,TMTstop-control_1_4linestimulus6.png,TMTstop-control_1_4greenlinestimulus6.png,TMTstop-control_1_4redlinestimulus6.png,TMT_Control,4,84,0,3,3,3,0,8,8,8,,,,,,,,,,,,,,,,,,,,,,,,,,,,,,,,,,,,,,,,,,,,,,,1,1,50.862096500000916,None,['3'],1,[0.034321300001465715],50.862096500000916,None,,001,2022_May_10_1115,TMT_fmri,2021.2.3,117.71879805739613,
TMTstop-Control_1_4.xlsx,78:104,10,['2'],2,TMTstop-control_1_4linestimulus7.png,TMTstop-control_1_4greenlinestimulus7.png,TMTstop-control_1_4redlinestimulus7.png,TMT_Control,4,85,0,3,3,3,0,9,9,9,,,,,,,,,,,,,,,,,,,,,,,,,,,,,,,,,,,,,,,,,,,,,,,1,1,50.984522200000356,None,['2'],1,[-0.07544799998868257],50.984522200000356,None,,001,2022_May_10_1115,TMT_fmri,2021.2.3,117.71879805739613,
TMTstop-Control_1_4.xlsx,78:104,11,['1'],1,TMTstop-control_1_4linestimulus8.png,TMTstop-control_1_4greenlinestimulus8.png,TMTstop-control_1_4redlinestimulus8.png,TMT_Control,4,86,0,3,3,3,0,10,10,10,,,,,,,,,,,,,,,,,,,,,,,,,,,,,,,,,,,,,,,,,,,,,,,1,1,51.12240510000265,None,['1'],1,[-0.061762800003634766],51.12240510000265,None,,001,2022_May_10_1115,TMT_fmri,2021.2.3,117.71879805739613,
TMTstop-Control_1_4.xlsx,78:104,12,['3'],3,TMTstop-control_1_4linestimulus9.png,TMTstop-control_1_4greenlinestimulus9.png,TMTstop-control_1_4redlinestimulus9.png,TMT_Control,4,87,0,3,3,3,0,11,11,11,,,,,,,,,,,,,,,,,,,,,,,,,,,,,,,,,,,,,,,,,,,,,,,1,1,51.26222969999071,None,['3'],1,[-0.04998599999817088],51.26222969999071,None,,001,2022_May_10_1115,TMT_fmri,2021.2.3,117.71879805739613,
TMTstop-Control_1_4.xlsx,78:104,13,['2'],2,TMTstop-control_1_4linestimulus10.png,TMTstop-control_1_4greenlinestimulus10.png,TMTstop-control_1_4redlinestimulus10.png,TMT_Control,4,88,0,3,3,3,0,12,12,12,,,,,,,,,,,,,,,,,,,,,,,,,,,,,,,,,,,,,,,,,,,,,,,4,0,51.38583509999444,None,"['2', '1', '3', '2']",1,"[-0.07602269999915734, -0.012928500000271015, 0.13455850000900682, 0.13806440000189468]",51.38583509999444,None,,001,2022_May_10_1115,TMT_fmri,2021.2.3,117.71879805739613,
TMTstop-Control_1_4.xlsx,78:104,14,['3'],3,TMTstop-control_1_4linestimulus11.png,TMTstop-control_1_4greenlinestimulus11.png,TMTstop-control_1_4redlinestimulus11.png,TMT_Control,4,89,0,3,3,3,0,13,13,13,,,,,,,,,,,,,,,,,,,,,,,,,,,,,,,,,,,,,,,,,,,,,,,2,0,51.66693989999476,None,"['1', '3']",1,"[0.004707000000053085, 0.15743979999388102]",51.66693989999476,None,,001,2022_May_10_1115,TMT_fmri,2021.2.3,117.71879805739613,
TMTstop-Control_1_4.xlsx,78:104,15,['2'],2,TMTstop-control_1_4linestimulus12.png,TMTstop-control_1_4greenlinestimulus12.png,TMTstop-control_1_4redlinestimulus12.png,TMT_Control,4,90,0,3,3,3,0,14,14,14,,,,,,,,,,,,,,,,,,,,,,,,,,,,,,,,,,,,,,,,,,,,,,,1,1,51.91736759999185,None,['2'],1,[-0.04349390001152642],51.91736759999185,None,,001,2022_May_10_1115,TMT_fmri,2021.2.3,117.71879805739613,
TMTstop-Control_1_4.xlsx,78:104,16,['1'],1,TMTstop-control_1_4linestimulus13.png,TMTstop-control_1_4greenlinestimulus13.png,TMTstop-control_1_4redlinestimulus13.png,TMT_Control,4,91,0,3,3,3,0,15,15,15,,,,,,,,,,,,,,,,,,,,,,,,,,,,,,,,,,,,,,,,,,,,,,,1,1,52.04512789999717,None,['1'],1,[-0.04887840000446886],52.04512789999717,None,,001,2022_May_10_1115,TMT_fmri,2021.2.3,117.71879805739613,
TMTstop-Control_1_4.xlsx,78:104,17,['3'],3,TMTstop-control_1_4linestimulus14.png,TMTstop-control_1_4greenlinestimulus14.png,TMTstop-control_1_4redlinestimulus14.png,TMT_Control,4,92,0,3,3,3,0,16,16,16,,,,,,,,,,,,,,,,,,,,,,,,,,,,,,,,,,,,,,,,,,,,,,,18,0,52.18442479999794,None,"['3', '2', '1', '3', '2', '1', '3', '2', '1', '3', '2', '1', '2', '1', '3', '2', '1', '3']",1,"[-0.0586087999981828, -0.02565189999586437, 0.10571380000328645, 0.24307860000408255, 0.257075999994413, 0.4091731999942567, 0.5552883000054862, 0.5692531999957282, 0.7245169999951031, 0.8739031000004616, 0.9187275000003865, 1.1103576000023168, 1.2238828999979887, 1.370307999997749, 1.5658147000067402, 1.578125, 1.7856351000082213, 1.9812436000065645]",52.18442479999794,None,,001,2022_May_10_1115,TMT_fmri,2021.2.3,117.71879805739613,
TMTstop-Control_1_4.xlsx,78:104,18,['1'],1,TMTstop-control_1_4linestimulus15.png,TMTstop-control_1_4greenlinestimulus15.png,TMTstop-control_1_4redlinestimulus15.png,TMT_Control,4,93,0,3,3,3,0,17,17,17,,,,,,,,,,,,,,,,,,,,,,,,,,,,,,,,,,,,,,,,,,,,,,,2,0,54.29390419999254,None,"['2', '1']",1,"[-0.0748503999930108, 0.06308400000852998]",54.29390419999254,None,,001,2022_May_10_1115,TMT_fmri,2021.2.3,117.71879805739613,
TMTstop-Control_1_4.xlsx,78:104,19,['2'],2,TMTstop-control_1_4linestimulus16.png,TMTstop-control_1_4greenlinestimulus16.png,TMTstop-control_1_4redlinestimulus16.png,TMT_Control,4,94,0,3,3,3,0,18,18,18,,,,,,,,,,,,,,,,,,,,,,,,,,,,,,,,,,,,,,,,,,,,,,,5,0,54.56065339999623,None,"['2', '3', '1', '3', '2']",1,"[-0.07712990000436548, -0.07247540001117159, 0.15386819999548607, 0.29151669998827856, 0.3006851999962237]",54.56065339999623,None,,001,2022_May_10_1115,TMT_fmri,2021.2.3,117.71879805739613,
TMTstop-Control_1_4.xlsx,78:104,20,['1'],1,TMTstop-control_1_4linestimulus17.png,TMTstop-control_1_4greenlinestimulus17.png,TMTstop-control_1_4redlinestimulus17.png,TMT_Control,4,95,0,3,3,3,0,19,19,19,,,,,,,,,,,,,,,,,,,,,,,,,,,,,,,,,,,,,,,,,,,,,,,1,1,54.96666059999552,None,['1'],1,[0.08849470000131987],54.96666059999552,None,,001,2022_May_10_1115,TMT_fmri,2021.2.3,117.71879805739613,
TMTstop-Control_1_4.xlsx,78:104,21,['2'],2,TMTstop-control_1_4linestimulus18.png,TMTstop-control_1_4greenlinestimulus18.png,TMTstop-control_1_4redlinestimulus18.png,TMT_Control,4,96,0,3,3,3,0,20,20,20,,,,,,,,,,,,,,,,,,,,,,,,,,,,,,,,,,,,,,,,,,,,,,,2,0,55.23563670000294,None,"['3', '2']",1,"[-0.021772399995825253, 0.05613430000084918]",55.23563670000294,None,,001,2022_May_10_1115,TMT_fmri,2021.2.3,117.71879805739613,
TMTstop-Control_1_4.xlsx,78:104,22,['1'],1,TMTstop-control_1_4linestimulus19.png,TMTstop-control_1_4greenlinestimulus19.png,TMTstop-control_1_4redlinestimulus19.png,TMT_Control,4,97,0,3,3,3,0,21,21,21,,,,,,,,,,,,,,,,,,,,,,,,,,,,,,,,,,,,,,,,,,,,,,,1,1,55.520385499999975,None,['1'],1,[-0.13036990001273807],55.520385499999975,None,,001,2022_May_10_1115,TMT_fmri,2021.2.3,117.71879805739613,
TMTstop-Control_1_4.xlsx,78:104,23,['2'],2,TMTstop-control_1_4linestimulus20.png,TMTstop-control_1_4greenlinestimulus20.png,TMTstop-control_1_4redlinestimulus20.png,TMT_Control,4,98,0,3,3,3,0,22,22,22,,,,,,,,,,,,,,,,,,,,,,,,,,,,,,,,,,,,,,,,,,,,,,,2,0,55.64097349999065,None,"['3', '2']",1,"[-0.11501630001293961, -0.08588020000024699]",55.64097349999065,None,,001,2022_May_10_1115,TMT_fmri,2021.2.3,117.71879805739613,
TMTstop-Control_1_4.xlsx,78:104,24,['1'],1,TMTstop-control_1_4linestimulus21.png,TMTstop-control_1_4greenlinestimulus21.png,TMTstop-control_1_4redlinestimulus21.png,TMT_Control,4,99,0,3,3,3,0,23,23,23,,,,,,,,,,,,,,,,,,,,,,,,,,,,,,,,,,,,,,,,,,,,,,,1,1,55.76603559999785,None,['1'],1,[-0.055566800001543015],55.76603559999785,None,,001,2022_May_10_1115,TMT_fmri,2021.2.3,117.71879805739613,
TMTstop-Control_1_4.xlsx,78:104,25,['2'],2,TMTstop-control_1_4linestimulus22.png,TMTstop-control_1_4greenlinestimulus22.png,TMTstop-control_1_4redlinestimulus22.png,TMT_Control,4,100,0,3,3,3,0,24,24,24,,,,,,,,,,,,,,,,,,,,,,,,,,,,,,,,,,,,,,,,,,,,,,,2,0,55.90684280000278,None,"['3', '2']",1,"[-0.06357729999581352, -0.05527749999600928]",55.90684280000278,None,,001,2022_May_10_1115,TMT_fmri,2021.2.3,117.71879805739613,
TMTstop-Control_1_4.xlsx,78:104,None,None,None,TMTstop-control_1_4linestimulus23.png,TMTstop-control_1_4greenlinestimulus23.png,TMTstop-control_1_4redlinestimulus23.png,TMT_Control,4,Feedback_last,0,3,3,3,0,25,25,25,,,,,,,,,,,,,,,,,,,,,,,,,,,,,,,,,,,,,,,,,,,,,,,2,0,56.03104919999896,None,"['1', '3']",0,"[-0.017014299999573268, 0.0857691999990493]",56.03104919999896,None,,001,2022_May_10_1115,TMT_fmri,2021.2.3,117.71879805739613,
TMTstop-A_1_1.xlsx,0:26,1,['1'],1,TMTstop-A_1_1.png,TMTstop-A_1_1.png,TMTstop-A_1_1.png,TMT_A,1,1,,,,,,,,,0,0,0,0,0,0,0,0,,,,,,,,,,,,,,,,,,,,,,,,,,,,,,,,,,,,,,,1,1,70.25047379999887,None,['1'],1,[3.887926499999594],70.25047379999887,None,,001,2022_May_10_1115,TMT_fmri,2021.2.3,117.71879805739613,
TMTstop-A_1_1.xlsx,0:26,2,['3'],3,TMTstop-A_1_1.png,TMTstop-A_1_1firstgreen.png,TMTstop-A_1_1firstred.png,TMT_A,1,2,,,,,,,,,0,0,0,0,0,1,1,1,,,,,,,,,,,,,,,,,,,,,,,,,,,,,,,,,,,,,,,3,0,74.33585249999305,None,"['3', '2', '3']",1,"[0.20915799999784213, 0.22215570000116713, 0.8980020000017248]",74.33585249999305,None,,001,2022_May_10_1115,TMT_fmri,2021.2.3,117.71879805739613,
TMTstop-A_1_1.xlsx,0:26,3,['1'],1,TMTstop-A_1_1linestimulus0.png,TMTstop-A_1_1greenlinestimulus0.png,TMTstop-A_1_1redlinestimulus0.png,TMT_A,1,3,,,,,,,,,0,0,0,0,0,2,2,2,,,,,,,,,,,,,,,,,,,,,,,,,,,,,,,,,,,,,,,1,1,75.42058399999223,None,['1'],1,[0.5149944000004325],75.42058399999223,None,,001,2022_May_10_1115,TMT_fmri,2021.2.3,117.71879805739613,
TMTstop-A_1_1.xlsx,0:26,4,['3'],3,TMTstop-A_1_1linestimulus1.png,TMTstop-A_1_1greenlinestimulus1.png,TMTstop-A_1_1redlinestimulus1.png,TMT_A,1,4,,,,,,,,,0,0,0,0,0,3,3,3,,,,,,,,,,,,,,,,,,,,,,,,,,,,,,,,,,,,,,,1,1,76.07888289999391,None,['3'],1,[1.8689164999959758],76.07888289999391,None,,001,2022_May_10_1115,TMT_fmri,2021.2.3,117.71879805739613,
TMTstop-A_1_1.xlsx,0:26,5,['1'],1,TMTstop-A_1_1linestimulus2.png,TMTstop-A_1_1greenlinestimulus2.png,TMTstop-A_1_1redlinestimulus2.png,TMT_A,1,5,,,,,,,,,0,0,0,0,0,4,4,4,,,,,,,,,,,,,,,,,,,,,,,,,,,,,,,,,,,,,,,1,1,78.09652749999077,None,['1'],1,[0.7084567999991123],78.09652749999077,None,,001,2022_May_10_1115,TMT_fmri,2021.2.3,117.71879805739613,
TMTstop-A_1_1.xlsx,0:26,6,['3'],3,TMTstop-A_1_1linestimulus3.png,TMTstop-A_1_1greenlinestimulus3.png,TMTstop-A_1_1redlinestimulus3.png,TMT_A,1,6,,,,,,,,,0,0,0,0,0,5,5,5,,,,,,,,,,,,,,,,,,,,,,,,,,,,,,,,,,,,,,,1,1,78.9049481999973,None,['3'],1,[0.5212292000069283],78.9049481999973,None,,001,2022_May_10_1115,TMT_fmri,2021.2.3,117.71879805739613,
TMTstop-A_1_1.xlsx,0:26,7,['1'],1,TMTstop-A_1_1linestimulus4.png,TMTstop-A_1_1greenlinestimulus4.png,TMTstop-A_1_1redlinestimulus4.png,TMT_A,1,7,,,,,,,,,0,0,0,0,0,6,6,6,,,,,,,,,,,,,,,,,,,,,,,,,,,,,,,,,,,,,,,1,1,79.56656269999803,None,['1'],1,[0.40357749999384396],79.56656269999803,None,,001,2022_May_10_1115,TMT_fmri,2021.2.3,117.71879805739613,
TMTstop-A_1_1.xlsx,0:26,8,['2'],2,TMTstop-A_1_1linestimulus5.png,TMTstop-A_1_1greenlinestimulus5.png,TMTstop-A_1_1redlinestimulus5.png,TMT_A,1,8,,,,,,,,,0,0,0,0,0,7,7,7,,,,,,,,,,,,,,,,,,,,,,,,,,,,,,,,,,,,,,,1,1,80.08737300000212,None,['2'],1,[0.36951450000924524],80.08737300000212,None,,001,2022_May_10_1115,TMT_fmri,2021.2.3,117.71879805739613,
TMTstop-A_1_1.xlsx,0:26,9,['3'],3,TMTstop-A_1_1linestimulus6.png,TMTstop-A_1_1greenlinestimulus6.png,TMTstop-A_1_1redlinestimulus6.png,TMT_A,1,9,,,,,,,,,0,0,0,0,0,8,8,8,,,,,,,,,,,,,,,,,,,,,,,,,,,,,,,,,,,,,,,1,1,80.64971879999212,None,['3'],1,[0.3995388000039384],80.64971879999212,None,,001,2022_May_10_1115,TMT_fmri,2021.2.3,117.71879805739613,
TMTstop-A_1_1.xlsx,0:26,10,['1'],1,TMTstop-A_1_1linestimulus7.png,TMTstop-A_1_1greenlinestimulus7.png,TMTstop-A_1_1redlinestimulus7.png,TMT_A,1,10,,,,,,,,,0,0,0,0,0,9,9,9,,,,,,,,,,,,,,,,,,,,,,,,,,,,,,,,,,,,,,,1,1,81.2081685000012,None,['1'],1,[1.2437075999914669],81.2081685000012,None,,001,2022_May_10_1115,TMT_fmri,2021.2.3,117.71879805739613,
TMTstop-A_1_1.xlsx,0:26,11,['3'],3,TMTstop-A_1_1linestimulus8.png,TMTstop-A_1_1greenlinestimulus8.png,TMTstop-A_1_1redlinestimulus8.png,TMT_A,1,11,,,,,,,,,0,0,0,0,0,10,10,10,,,,,,,,,,,,,,,,,,,,,,,,,,,,,,,,,,,,,,,1,1,82.55347800000163,None,['3'],1,[0.6723232000076678],82.55347800000163,None,,001,2022_May_10_1115,TMT_fmri,2021.2.3,117.71879805739613,
TMTstop-A_1_1.xlsx,0:26,12,['2'],2,TMTstop-A_1_1linestimulus9.png,TMTstop-A_1_1greenlinestimulus9.png,TMTstop-A_1_1redlinestimulus9.png,TMT_A,1,12,,,,,,,,,0,0,0,0,0,11,11,11,,,,,,,,,,,,,,,,,,,,,,,,,,,,,,,,,,,,,,,1,1,83.32897589998902,None,['2'],1,[0.9680670999950962],83.32897589998902,None,,001,2022_May_10_1115,TMT_fmri,2021.2.3,117.71879805739613,
TMTstop-A_1_1.xlsx,0:26,13,['1'],1,TMTstop-A_1_1linestimulus10.png,TMTstop-A_1_1greenlinestimulus10.png,TMTstop-A_1_1redlinestimulus10.png,TMT_A,1,13,,,,,,,,,0,0,0,0,0,12,12,12,,,,,,,,,,,,,,,,,,,,,,,,,,,,,,,,,,,,,,,1,1,84.4122728999937,None,['1'],1,[0.5100716000015382],84.4122728999937,None,,001,2022_May_10_1115,TMT_fmri,2021.2.3,117.71879805739613,
TMTstop-A_1_1.xlsx,0:26,14,['2'],2,TMTstop-A_1_1linestimulus11.png,TMTstop-A_1_1greenlinestimulus11.png,TMTstop-A_1_1redlinestimulus11.png,TMT_A,1,14,,,,,,,,,0,0,0,0,0,13,13,13,,,,,,,,,,,,,,,,,,,,,,,,,,,,,,,,,,,,,,,1,1,85.08587199999602,None,['2'],1,[0.853612199993222],85.08587199999602,None,,001,2022_May_10_1115,TMT_fmri,2021.2.3,117.71879805739613,
TMTstop-A_1_1.xlsx,0:26,15,['1'],1,TMTstop-A_1_1linestimulus12.png,TMTstop-A_1_1greenlinestimulus12.png,TMTstop-A_1_1redlinestimulus12.png,TMT_A,1,15,,,,,,,,,0,0,0,0,0,14,14,14,,,,,,,,,,,,,,,,,,,,,,,,,,,,,,,,,,,,,,,1,1,86.15607630000159,None,['1'],1,[0.7839948999899207],86.15607630000159,None,,001,2022_May_10_1115,TMT_fmri,2021.2.3,117.71879805739613,
TMTstop-A_1_1.xlsx,0:26,16,['2'],2,TMTstop-A_1_1linestimulus13.png,TMTstop-A_1_1greenlinestimulus13.png,TMTstop-A_1_1redlinestimulus13.png,TMT_A,1,16,,,,,,,,,0,0,0,0,0,15,15,15,,,,,,,,,,,,,,,,,,,,,,,,,,,,,,,,,,,,,,,1,1,87.1389138999948,None,['2'],1,[0.5582671000011032],87.1389138999948,None,,001,2022_May_10_1115,TMT_fmri,2021.2.3,117.71879805739613,
TMTstop-A_1_1.xlsx,0:26,17,['1'],1,TMTstop-A_1_1linestimulus14.png,TMTstop-A_1_1greenlinestimulus14.png,TMTstop-A_1_1redlinestimulus14.png,TMT_A,1,17,,,,,,,,,0,0,0,0,0,16,16,16,,,,,,,,,,,,,,,,,,,,,,,,,,,,,,,,,,,,,,,2,0,87.8112003999995,None,"['3', '1']",1,"[0.3666123000002699, 1.4993995999975596]",87.8112003999995,None,,001,2022_May_10_1115,TMT_fmri,2021.2.3,117.71879805739613,
TMTstop-A_1_1.xlsx,0:26,18,['3'],3,TMTstop-A_1_1linestimulus15.png,TMTstop-A_1_1greenlinestimulus15.png,TMTstop-A_1_1redlinestimulus15.png,TMT_A,1,18,,,,,,,,,0,0,0,0,0,17,17,17,,,,,,,,,,,,,,,,,,,,,,,,,,,,,,,,,,,,,,,1,1,89.50402039999608,None,['3'],1,[0.24228099999891128],89.50402039999608,None,,001,2022_May_10_1115,TMT_fmri,2021.2.3,117.71879805739613,
TMTstop-A_1_1.xlsx,0:26,19,['2'],2,TMTstop-A_1_1linestimulus16.png,TMTstop-A_1_1greenlinestimulus16.png,TMTstop-A_1_1redlinestimulus16.png,TMT_A,1,19,,,,,,,,,0,0,0,0,0,18,18,18,,,,,,,,,,,,,,,,,,,,,,,,,,,,,,,,,,,,,,,1,1,89.91065369998978,None,['2'],1,[0.48713880000286736],89.91065369998978,None,,001,2022_May_10_1115,TMT_fmri,2021.2.3,117.71879805739613,
TMTstop-A_1_1.xlsx,0:26,20,['3'],3,TMTstop-A_1_1linestimulus17.png,TMTstop-A_1_1greenlinestimulus17.png,TMTstop-A_1_1redlinestimulus17.png,TMT_A,1,20,,,,,,,,,0,0,0,0,0,19,19,19,,,,,,,,,,,,,,,,,,,,,,,,,,,,,,,,,,,,,,,0,0,90.58640139999625,None,None,0,,90.58640139999625,None,,001,2022_May_10_1115,TMT_fmri,2021.2.3,117.71879805739613,
TMTstop-A_1_2.xlsx,26:52,1,['1'],1,TMTstop-A_1_2.png,TMTstop-A_1_2.png,TMTstop-A_1_2.png,TMT_A,2,26,,,,,,,,,0,1,1,1,0,0,0,0,,,,,,,,,,,,,,,,,,,,,,,,,,,,,,,,,,,,,,,0,0,118.3332163333301,None,None,0,,118.3332163333301,None,,001,2022_May_10_1115,TMT_fmri,2021.2.3,117.71879805739613,
TMTstop-A_1_3.xlsx,52:78,1,['1'],1,TMTstop-A_1_3.png,TMTstop-A_1_3.png,TMTstop-A_1_3.png,TMT_A,3,51,,,,,,,,,0,2,2,2,0,0,0,0,,,,,,,,,,,,,,,,,,,,,,,,,,,,,,,,,,,,,,,0,0,118.51654966666344,None,None,0,,118.51654966666344,None,,001,2022_May_10_1115,TMT_fmri,2021.2.3,117.71879805739613,
TMTstop-B_1_1.xlsx,0:26,1,['3'],3,TMTstop-B_1_1.png,TMTstop-B_1_1.png,TMTstop-B_1_1.png,TMT_B,1,1,,,,,,,,,,,,,,,,,0,0,0,0,0,0,0,0,,,,,,,,,,,,,,,,,,,,,,,,,,,,,,,2,0,128.7735929999908,None,"['1', '3']",1,"[1.5932931999996072, 1.8320482000126503]",128.7735929999908,None,,001,2022_May_10_1115,TMT_fmri,2021.2.3,117.71879805739613,
TMTstop-B_1_1.xlsx,0:26,A,['1'],1,TMTstop-B_1_1.png,TMTstop-B_1_1firstgreen.png,TMTstop-B_1_1firstred.png,TMT_B,1,2,,,,,,,,,,,,,,,,,0,0,0,0,0,1,1,1,,,,,,,,,,,,,,,,,,,,,,,,,,,,,,,2,0,130.72104239999317,None,"['2', '1']",1,"[-0.10145089999423362, 0.1760614000086207]",130.72104239999317,None,,001,2022_May_10_1115,TMT_fmri,2021.2.3,117.71879805739613,
TMTstop-B_1_1.xlsx,0:26,2,['3'],3,TMTstop-B_1_1linestimulus0.png,TMTstop-B_1_1greenlinestimulus0.png,TMTstop-B_1_1redlinestimulus0.png,TMT_B,1,3,,,,,,,,,,,,,,,,,0,0,0,0,0,2,2,2,,,,,,,,,,,,,,,,,,,,,,,,,,,,,,,4,0,130.98907179999514,None,"['3', '2', '1', '3']",1,"[-0.0723423999879742, -0.0360818999906769, 0.1579519000079017, 0.29851060001237784]",130.98907179999514,None,,001,2022_May_10_1115,TMT_fmri,2021.2.3,117.71879805739613,
TMTstop-B_1_1.xlsx,0:26,B,['2'],2,TMTstop-B_1_1linestimulus1.png,TMTstop-B_1_1greenlinestimulus1.png,TMTstop-B_1_1redlinestimulus1.png,TMT_B,1,4,,,,,,,,,,,,,,,,,0,0,0,0,0,3,3,3,,,,,,,,,,,,,,,,,,,,,,,,,,,,,,,1,1,131.4546021999995,None,['2'],1,[-0.13459609998972155],131.4546021999995,None,,001,2022_May_10_1115,TMT_fmri,2021.2.3,117.71879805739613,
TMTstop-B_1_1.xlsx,0:26,3,['1'],1,TMTstop-B_1_1linestimulus2.png,TMTstop-B_1_1greenlinestimulus2.png,TMTstop-B_1_1redlinestimulus2.png,TMT_B,1,5,,,,,,,,,,,,,,,,,0,0,0,0,0,4,4,4,,,,,,,,,,,,,,,,,,,,,,,,,,,,,,,1,1,131.59628869999142,None,['1'],1,[-0.10932709999906365],131.59628869999142,None,,001,2022_May_10_1115,TMT_fmri,2021.2.3,117.71879805739613,
TMTstop-B_1_1.xlsx,0:26,C,['3'],3,TMTstop-B_1_1linestimulus3.png,TMTstop-B_1_1greenlinestimulus3.png,TMTstop-B_1_1redlinestimulus3.png,TMT_B,1,6,,,,,,,,,,,,,,,,,0,0,0,0,0,5,5,5,,,,,,,,,,,,,,,,,,,,,,,,,,,,,,,4,0,131.73630439999397,None,"['3', '2', '1', '3']",1,"[-0.11213789999601431, -0.0914753999968525, 0.07038940000347793, 0.21735160000389442]",131.73630439999397,None,,001,2022_May_10_1115,TMT_fmri,2021.2.3,117.71879805739613,
TMTstop-B_1_1.xlsx,0:26,4,['2'],2,TMTstop-B_1_1linestimulus4.png,TMTstop-B_1_1greenlinestimulus4.png,TMTstop-B_1_1redlinestimulus4.png,TMT_B,1,7,,,,,,,,,,,,,,,,,0,0,0,0,0,6,6,6,,,,,,,,,,,,,,,,,,,,,,,,,,,,,,,4,0,132.1266356999986,None,"['2', '1', '3', '2']",1,"[-0.1337855000019772, -0.0009174000006169081, 0.14993949999916367, 0.17983860000094865]",132.1266356999986,None,,001,2022_May_10_1115,TMT_fmri,2021.2.3,117.71879805739613,
TMTstop-B_1_1.xlsx,0:26,D,['1'],1,TMTstop-B_1_1linestimulus5.png,TMTstop-B_1_1greenlinestimulus5.png,TMTstop-B_1_1redlinestimulus5.png,TMT_B,1,8,,,,,,,,,,,,,,,,,0,0,0,0,0,7,7,7,,,,,,,,,,,,,,,,,,,,,,,,,,,,,,,1,1,132.5361189999967,None,['1'],1,[-0.0893936000065878],132.5361189999967,None,,001,2022_May_10_1115,TMT_fmri,2021.2.3,117.71879805739613,
TMTstop-B_1_1.xlsx,0:26,5,['3'],3,TMTstop-B_1_1linestimulus6.png,TMTstop-B_1_1greenlinestimulus6.png,TMTstop-B_1_1redlinestimulus6.png,TMT_B,1,9,,,,,,,,,,,,,,,,,0,0,0,0,0,8,8,8,,,,,,,,,,,,,,,,,,,,,,,,,,,,,,,16,0,132.66220169998996,None,"['3', '2', '1', '3', '2', '1', '3', '2', '1', '2', '1', '2', '2', '1', '2', '3']",1,"[-0.07116680000035558, -0.04741179999837186, 0.12600460000976454, 0.266902300005313, 0.32057710000663064, 0.4679400000022724, 0.6336872000101721, 0.6559542000031797, 0.8288315000099828, 1.3765253000019584, 1.4072167000122136, 2.3068991000036476, 3.8870831000094768, 3.912932000006549, 4.20564960000047, 4.217873300003703]",132.66220169998996,None,,001,2022_May_10_1115,TMT_fmri,2021.2.3,117.71879805739613,
TMTstop-B_1_1.xlsx,0:26,E,['1'],1,TMTstop-B_1_1linestimulus7.png,TMTstop-B_1_1greenlinestimulus7.png,TMTstop-B_1_1redlinestimulus7.png,TMT_B,1,10,,,,,,,,,,,,,,,,,0,0,0,0,0,9,9,9,,,,,,,,,,,,,,,,,,,,,,,,,,,,,,,1,1,136.9636579999933,None,['1'],1,[0.11018599999079015],136.9636579999933,None,,001,2022_May_10_1115,TMT_fmri,2021.2.3,117.71879805739613,
TMTstop-B_1_1.xlsx,0:26,6,['3'],3,TMTstop-B_1_1linestimulus8.png,TMTstop-B_1_1greenlinestimulus8.png,TMTstop-B_1_1redlinestimulus8.png,TMT_B,1,11,,,,,,,,,,,,,,,,,0,0,0,0,0,10,10,10,,,,,,,,,,,,,,,,,,,,,,,,,,,,,,,6,0,137.2306716000021,None,"['2', '1', '3', '2', '1', '3']",1,"[0.04253420000895858, 0.1619018000055803, 0.33304189999762457, 0.3496530999982497, 0.5197904000087874, 0.666131599995424]",137.2306716000021,None,,001,2022_May_10_1115,TMT_fmri,2021.2.3,117.71879805739613,
TMTstop-B_1_1.xlsx,0:26,F,['1'],1,TMTstop-B_1_1linestimulus9.png,TMTstop-B_1_1greenlinestimulus9.png,TMTstop-B_1_1redlinestimulus9.png,TMT_B,1,12,,,,,,,,,,,,,,,,,0,0,0,0,0,11,11,11,,,,,,,,,,,,,,,,,,,,,,,,,,,,,,,2,0,138.02800999999454,None,"['2', '1']",1,"[-0.10255969999707304, 0.0709043999959249]",138.02800999999454,None,,001,2022_May_10_1115,TMT_fmri,2021.2.3,117.71879805739613,
TMTstop-B_1_1.xlsx,0:26,7,['3'],3,TMTstop-B_1_1linestimulus10.png,TMTstop-B_1_1greenlinestimulus10.png,TMTstop-B_1_1redlinestimulus10.png,TMT_B,1,13,,,,,,,,,,,,,,,,,0,0,0,0,0,12,12,12,,,,,,,,,,,,,,,,,,,,,,,,,,,,,,,1,1,138.29185549999238,None,['3'],1,[-0.02742769999895245],138.29185549999238,None,,001,2022_May_10_1115,TMT_fmri,2021.2.3,117.71879805739613,
TMTstop-B_1_1.xlsx,0:26,G,['2'],2,TMTstop-B_1_1linestimulus11.png,TMTstop-B_1_1greenlinestimulus11.png,TMTstop-B_1_1redlinestimulus11.png,TMT_B,1,14,,,,,,,,,,,,,,,,,0,0,0,0,0,13,13,13,,,,,,,,,,,,,,,,,,,,,,,,,,,,,,,1,1,138.41956070000015,None,['2'],1,[-0.10502649999398272],138.41956070000015,None,,001,2022_May_10_1115,TMT_fmri,2021.2.3,117.71879805739613,
TMTstop-B_1_1.xlsx,0:26,8,['3'],3,TMTstop-B_1_1linestimulus12.png,TMTstop-B_1_1greenlinestimulus12.png,TMTstop-B_1_1redlinestimulus12.png,TMT_B,1,15,,,,,,,,,,,,,,,,,0,0,0,0,0,14,14,14,,,,,,,,,,,,,,,,,,,,,,,,,,,,,,,5,0,138.5442345999909,None,"['1', '3', '2', '1', '3']",1,"[-0.08602180000161752, 0.07873649999964982, 0.08918920000724029, 0.2517309999966528, 0.39400250000471715]",138.5442345999909,None,,001,2022_May_10_1115,TMT_fmri,2021.2.3,117.71879805739613,
TMTstop-B_1_1.xlsx,0:26,H,['1'],1,TMTstop-B_1_1linestimulus13.png,TMTstop-B_1_1greenlinestimulus13.png,TMTstop-B_1_1redlinestimulus13.png,TMT_B,1,16,,,,,,,,,,,,,,,,,0,0,0,0,0,15,15,15,,,,,,,,,,,,,,,,,,,,,,,,,,,,,,,2,0,139.07856529999117,None,"['2', '1']",1,"[-0.09368879999965429, 0.05274420000205282]",139.07856529999117,None,,001,2022_May_10_1115,TMT_fmri,2021.2.3,117.71879805739613,
TMTstop-B_1_1.xlsx,0:26,9,['3'],3,TMTstop-B_1_1linestimulus14.png,TMTstop-B_1_1greenlinestimulus14.png,TMTstop-B_1_1redlinestimulus14.png,TMT_B,1,17,,,,,,,,,,,,,,,,,0,0,0,0,0,16,16,16,,,,,,,,,,,,,,,,,,,,,,,,,,,,,,,1,1,139.32804279999982,None,['3'],1,[0.013877299992600456],139.32804279999982,None,,001,2022_May_10_1115,TMT_fmri,2021.2.3,117.71879805739613,
TMTstop-B_1_1.xlsx,0:26,I,['2'],2,TMTstop-B_1_1linestimulus15.png,TMTstop-B_1_1greenlinestimulus15.png,TMTstop-B_1_1redlinestimulus15.png,TMT_B,1,18,,,,,,,,,,,,,,,,,0,0,0,0,0,17,17,17,,,,,,,,,,,,,,,,,,,,,,,,,,,,,,,1,1,139.45475350000197,None,['2'],1,[-0.0583792999968864],139.45475350000197,None,,001,2022_May_10_1115,TMT_fmri,2021.2.3,117.71879805739613,
TMTstop-B_1_1.xlsx,0:26,10,['3'],3,TMTstop-B_1_1linestimulus16.png,TMTstop-B_1_1greenlinestimulus16.png,TMTstop-B_1_1redlinestimulus16.png,TMT_B,1,19,,,,,,,,,,,,,,,,,0,0,0,0,0,18,18,18,,,,,,,,,,,,,,,,,,,,,,,,,,,,,,,2,0,139.5939614999952,None,"['1', '3']",1,"[-0.06285980000393465, 0.11219099999289028]",139.5939614999952,None,,001,2022_May_10_1115,TMT_fmri,2021.2.3,117.71879805739613,
TMTstop-B_1_1.xlsx,0:26,J,['2'],2,TMTstop-B_1_1linestimulus17.png,TMTstop-B_1_1greenlinestimulus17.png,TMTstop-B_1_1redlinestimulus17.png,TMT_B,1,20,,,,,,,,,,,,,,,,,0,0,0,0,0,19,19,19,,,,,,,,,,,,,,,,,,,,,,,,,,,,,,,1,1,139.84645969999838,None,['2'],1,[-0.09335900000587571],139.84645969999838,None,,001,2022_May_10_1115,TMT_fmri,2021.2.3,117.71879805739613,
TMTstop-B_1_1.xlsx,0:26,11,['1'],1,TMTstop-B_1_1linestimulus18.png,TMTstop-B_1_1greenlinestimulus18.png,TMTstop-B_1_1redlinestimulus18.png,TMT_B,1,21,,,,,,,,,,,,,,,,,0,0,0,0,0,20,20,20,,,,,,,,,,,,,,,,,,,,,,,,,,,,,,,1,1,139.9888850999996,None,['1'],1,[-0.08342840000113938],139.9888850999996,None,,001,2022_May_10_1115,TMT_fmri,2021.2.3,117.71879805739613,
TMTstop-B_1_1.xlsx,0:26,K,['2'],2,TMTstop-B_1_1linestimulus19.png,TMTstop-B_1_1greenlinestimulus19.png,TMTstop-B_1_1redlinestimulus19.png,TMT_B,1,22,,,,,,,,,,,,,,,,,0,0,0,0,0,21,21,21,,,,,,,,,,,,,,,,,,,,,,,,,,,,,,,2,0,140.11450199999672,None,"['3', '2']",1,"[-0.07631970000511501, -0.048352199999499135]",140.11450199999672,None,,001,2022_May_10_1115,TMT_fmri,2021.2.3,117.71879805739613,
TMTstop-B_1_1.xlsx,0:26,12,['1'],1,TMTstop-B_1_1linestimulus20.png,TMTstop-B_1_1greenlinestimulus20.png,TMTstop-B_1_1redlinestimulus20.png,TMT_B,1,23,,,,,,,,,,,,,,,,,0,0,0,0,0,22,22,22,,,,,,,,,,,,,,,,,,,,,,,,,,,,,,,1,1,140.2431416999898,None,['1'],1,[-0.012723599997116253],140.2431416999898,None,,001,2022_May_10_1115,TMT_fmri,2021.2.3,117.71879805739613,
TMTstop-B_1_1.xlsx,0:26,L,['2'],2,TMTstop-B_1_1linestimulus21.png,TMTstop-B_1_1greenlinestimulus21.png,TMTstop-B_1_1redlinestimulus21.png,TMT_B,1,24,,,,,,,,,,,,,,,,,0,0,0,0,0,23,23,23,,,,,,,,,,,,,,,,,,,,,,,,,,,,,,,2,0,140.38357249999535,None,"['3', '2']",1,"[0.040508399993996136, 0.15328519999457058]",140.38357249999535,None,,001,2022_May_10_1115,TMT_fmri,2021.2.3,117.71879805739613,
TMTstop-B_1_1.xlsx,0:26,13,['1'],1,TMTstop-B_1_1linestimulus22.png,TMTstop-B_1_1greenlinestimulus22.png,TMTstop-B_1_1redlinestimulus22.png,TMT_B,1,25,,,,,,,,,,,,,,,,,0,0,0,0,0,24,24,24,,,,,,,,,,,,,,,,,,,,,,,,,,,,,,,3,0,140.65095830000064,None,"['2', '3', '1']",1,"[0.4185504999913974, 0.4814073000015924, 1.0677022000018042]",140.65095830000064,None,,001,2022_May_10_1115,TMT_fmri,2021.2.3,117.71879805739613,
TMTstop-B_1_1.xlsx,0:26,None,None,None,TMTstop-B_1_1linestimulus23.png,TMTstop-B_1_1greenlinestimulus23.png,TMTstop-B_1_1redlinestimulus23.png,TMT_B,1,Feedback_last,,,,,,,,,,,,,,,,,0,0,0,0,0,25,25,25,,,,,,,,,,,,,,,,,,,,,,,,,,,,,,,0,0,141.86787770000228,None,None,1,,141.86787770000228,None,,001,2022_May_10_1115,TMT_fmri,2021.2.3,117.71879805739613,
TMTstop-B_1_2.xlsx,26:52,1,['1'],1,TMTstop-B_1_2.png,TMTstop-B_1_2.png,TMTstop-B_1_2.png,TMT_B,2,26,,,,,,,,,,,,,,,,,0,1,1,1,0,0,0,0,,,,,,,,,,,,,,,,,,,,,,,,,,,,,,,2,0,146.02632969999104,None,"['2', '1']",1,"[2.199386599997524, 2.641930700003286]",146.02632969999104,None,,001,2022_May_10_1115,TMT_fmri,2021.2.3,117.71879805739613,
TMTstop-B_1_2.xlsx,26:52,A,['2'],2,TMTstop-B_1_2.png,TMTstop-B_1_2firstgreen.png,TMTstop-B_1_2firstred.png,TMT_B,2,27,,,,,,,,,,,,,,,,,0,1,1,1,0,1,1,1,,,,,,,,,,,,,,,,,,,,,,,,,,,,,,,10,0,148.81690890000027,None,"['2', '3', '2', '3', '1', '3', '2', '1', '3', '2']",1,"[0.20245089998934418, 0.21728159999474883, 0.5074649000016507, 0.5109259000018938, 0.6681138999992982, 0.8099441999947885, 1.0297100999887334, 1.0701930999930482, 1.2080394999939017, 1.2633672999945702]",148.81690890000027,None,,001,2022_May_10_1115,TMT_fmri,2021.2.3,117.71879805739613,
TMTstop-B_1_2.xlsx,26:52,2,['1'],1,TMTstop-B_1_2linestimulus0.png,TMTstop-B_1_2greenlinestimulus0.png,TMTstop-B_1_2redlinestimulus0.png,TMT_B,2,28,,,,,,,,,,,,,,,,,0,1,1,1,0,2,2,2,,,,,,,,,,,,,,,,,,,,,,,,,,,,,,,1,1,150.1766082999966,None,['1'],1,[0.5401724999974249],150.1766082999966,None,,001,2022_May_10_1115,TMT_fmri,2021.2.3,117.71879805739613,
TMTstop-B_1_2.xlsx,26:52,B,['2'],2,TMTstop-B_1_2linestimulus1.png,TMTstop-B_1_2greenlinestimulus1.png,TMTstop-B_1_2redlinestimulus1.png,TMT_B,2,29,,,,,,,,,,,,,,,,,0,1,1,1,0,3,3,3,,,,,,,,,,,,,,,,,,,,,,,,,,,,,,,2,0,150.86080229999789,None,"['3', '2']",1,"[0.10406830000283662, 0.10779229999752715]",150.86080229999789,None,,001,2022_May_10_1115,TMT_fmri,2021.2.3,117.71879805739613,
TMTstop-B_1_2.xlsx,26:52,3,['1'],1,TMTstop-B_1_2linestimulus2.png,TMTstop-B_1_2greenlinestimulus2.png,TMTstop-B_1_2redlinestimulus2.png,TMT_B,2,30,,,,,,,,,,,,,,,,,0,1,1,1,0,4,4,4,,,,,,,,,,,,,,,,,,,,,,,,,,,,,,,1,1,151.13824190000014,None,['1'],1,[0.03677390000666492],151.13824190000014,None,,001,2022_May_10_1115,TMT_fmri,2021.2.3,117.71879805739613,
TMTstop-B_1_2.xlsx,26:52,C,['3'],3,TMTstop-B_1_2linestimulus3.png,TMTstop-B_1_2greenlinestimulus3.png,TMTstop-B_1_2redlinestimulus3.png,TMT_B,2,31,,,,,,,,,,,,,,,,,0,1,1,1,0,5,5,5,,,,,,,,,,,,,,,,,,,,,,,,,,,,,,,0,0,151.2879743999947,None,None,0,,151.2879743999947,None,,001,2022_May_10_1115,TMT_fmri,2021.2.3,117.71879805739613,
TMTstop-Control_1_5.xlsx,104:130,1,['3'],3,TMTstop-control_1_5.png,TMTstop-control_1_5.png,TMTstop-control_1_5.png,TMT_Control,5,101,,,,,,,,,,,,,,,,,,,,,,,,,0,0,0,0,0,0,0,0,,,,,,,,,,,,,,,,,,,,,,,0,0,186.87901489999206,None,None,0,,186.87901489999206,None,,001,2022_May_10_1115,TMT_fmri,2021.2.3,117.71879805739613,
TMTstop-Control_1_6.xlsx,130:156,1,['3'],3,TMTstop-control_1_6.png,TMTstop-control_1_6.png,TMTstop-control_1_6.png,TMT_Control,6,126,,,,,,,,,,,,,,,,,,,,,,,,,0,1,1,1,0,0,0,0,,,,,,,,,,,,,,,,,,,,,,,0,0,187.07901489999205,None,None,0,,187.07901489999205,None,,001,2022_May_10_1115,TMT_fmri,2021.2.3,117.71879805739613,
TMTstop-Control_1_7.xlsx,156:182,1,['1'],1,TMTstop-control_1_7.png,TMTstop-control_1_7.png,TMTstop-control_1_7.png,TMT_Control,7,151,,,,,,,,,,,,,,,,,,,,,,,,,0,2,2,2,0,0,0,0,,,,,,,,,,,,,,,,,,,,,,,0,0,187.29568156665871,None,None,0,,187.29568156665871,None,,001,2022_May_10_1115,TMT_fmri,2021.2.3,117.71879805739613,
TMTstop-Control_1_8.xlsx,182:208,1,['3'],3,TMTstop-control_1_8.png,TMTstop-control_1_8.png,TMTstop-control_1_8.png,TMT_Control,8,176,,,,,,,,,,,,,,,,,,,,,,,,,0,3,3,3,0,0,0,0,,,,,,,,,,,,,,,,,,,,,,,0,0,187.51234823332538,None,None,0,,187.51234823332538,None,,001,2022_May_10_1115,TMT_fmri,2021.2.3,117.71879805739613,
TMTstop-A_1_4.xlsx,78:104,1,['2'],2,TMTstop-A_1_4.png,TMTstop-A_1_4.png,TMTstop-A_1_4.png,TMT_A,4,76,,,,,,,,,,,,,,,,,,,,,,,,,,,,,,,,,0,0,0,0,0,0,0,0,,,,,,,,,,,,,,,0,0,197.79520743333464,None,None,0,,197.79520743333464,None,,001,2022_May_10_1115,TMT_fmri,2021.2.3,117.71879805739613,
TMTstop-A_1_5.xlsx,104:130,1,['2'],2,TMTstop-A_1_5.png,TMTstop-A_1_5.png,TMTstop-A_1_5.png,TMT_A,5,101,,,,,,,,,,,,,,,,,,,,,,,,,,,,,,,,,0,1,1,1,0,0,0,0,,,,,,,,,,,,,,,0,0,198.028540766668,None,None,0,,198.028540766668,None,,001,2022_May_10_1115,TMT_fmri,2021.2.3,117.71879805739613,
TMTstop-A_1_6.xlsx,130:156,1,['3'],3,TMTstop-A_1_6.png,TMTstop-A_1_6.png,TMTstop-A_1_6.png,TMT_A,6,126,,,,,,,,,,,,,,,,,,,,,,,,,,,,,,,,,0,2,2,2,0,0,0,0,,,,,,,,,,,,,,,0,0,198.2618741000013,None,None,0,,198.2618741000013,None,,001,2022_May_10_1115,TMT_fmri,2021.2.3,117.71879805739613,
TMTstop-B_1_3.xlsx,52:78,1,['2'],2,TMTstop-B_1_3.png,TMTstop-B_1_3.png,TMTstop-B_1_3.png,TMT_B,3,51,,,,,,,,,,,,,,,,,,,,,,,,,,,,,,,,,,,,,,,,,0,0,0,0,0,0,0,0,,,,,,,0,0,208.52040973332382,None,None,0,,208.52040973332382,None,,001,2022_May_10_1115,TMT_fmri,2021.2.3,117.71879805739613,
TMTstop-B_1_4.xlsx,78:104,1,['3'],3,TMTstop-B_1_4.png,TMTstop-B_1_4.png,TMTstop-B_1_4.png,TMT_B,4,76,,,,,,,,,,,,,,,,,,,,,,,,,,,,,,,,,,,,,,,,,0,1,1,1,0,0,0,0,,,,,,,0,0,208.80374306665715,None,None,0,,208.80374306665715,None,,001,2022_May_10_1115,TMT_fmri,2021.2.3,117.71879805739613,
TMTstop-B_1_5.xlsx,104:130,1,['1'],1,TMTstop-B_1_5.png,TMTstop-B_1_5.png,TMTstop-B_1_5.png,TMT_B,5,101,,,,,,,,,,,,,,,,,,,,,,,,,,,,,,,,,,,,,,,,,0,2,2,2,0,0,0,0,,,,,,,0,0,209.05374306665715,None,None,0,,209.05374306665715,None,,001,2022_May_10_1115,TMT_fmri,2021.2.3,117.71879805739613,
