Block_paper,Condition_rows,NumberLetter,corrAns,Correct,StimFile,Correct_StimFile,False_StimFile,Version,Paper,TrialNumber_Version,Round,Block,Blocks_Control1.thisRepN,Blocks_Control1.thisTrialN,Blocks_Control1.thisN,Blocks_Control1.thisIndex,trials_Control1.thisRepN,trials_Control1.thisTrialN,trials_Control1.thisN,trials_Control1.thisIndex,Blocks_TMTA1.thisRepN,Blocks_TMTA1.thisTrialN,Blocks_TMTA1.thisN,Blocks_TMTA1.thisIndex,trials_TMTA1.thisRepN,trials_TMTA1.thisTrialN,trials_TMTA1.thisN,trials_TMTA1.thisIndex,Blocks_Control2.thisRepN,Blocks_Control2.thisTrialN,Blocks_Control2.thisN,Blocks_Control2.thisIndex,trials_Control2.thisRepN,trials_Control2.thisTrialN,trials_Control2.thisN,trials_Control2.thisIndex,Blocks_TMTB1.thisRepN,Blocks_TMTB1.thisTrialN,Blocks_TMTB1.thisN,Blocks_TMTB1.thisIndex,trials_TMTB1.thisRepN,trials_TMTB1.thisTrialN,trials_TMTB1.thisN,trials_TMTB1.thisIndex,key_resp_7.keys,key_resp_7.rt,key_resp_7.started,key_resp_7.stopped,polygon_2.started,polygon_2.stopped,Attempts,First_attempt,ResponseClock,Stim.started,Stim.stopped,key_resp_2.keys,key_resp_2.corr,key_resp_2.rt,key_resp_2.started,key_resp_2.stopped,Info2.started,Info2.stopped,participant,session,date,expName,psychopyVersion,frameRate,
,,,,,,,,,,,,,,,,,,,,,,,,,,,,,,,,,,,,,,,,,,,,,s,5.525272799990489,10.259755499995663,None,,,,,,,,,,,,,,,,001,2022_Nov_17_2348,TMT_fmri,2021.2.3,59.925847758175564,
C1,0:26,1,['2'],2,TMTstop-control_1_1.png,TMTstop-control_1_1.png,TMTstop-control_1_1.png,TMT_Control,C1,1,1,1,0,0,0,0,0,0,0,0,,,,,,,,,,,,,,,,,,,,,,,,,,,,,10.259755499995663,None,2,0,8.187355299989576,32.595252700004494,None,"['1', '2']",1,"[4.791359199996805, 4.873115299997153]",32.595252700004494,None,,,,001,2022_Nov_17_2348,TMT_fmri,2021.2.3,59.925847758175564,
C1,0:26,2,['1'],1,TMTstop-control_1_1.png,TMTstop-control_1_1firstgreen.png,TMTstop-control_1_1firstred.png,TMT_Control,C1,2,None,1,0,0,0,0,0,1,1,1,,,,,,,,,,,,,,,,,,,,,,,,,,,,,,,2,0,8.47130949998973,37.52401870000176,None,"['3', '1']",1,"[0.02965039999980945, 0.18780559999868274]",37.52401870000176,None,,,,001,2022_Nov_17_2348,TMT_fmri,2021.2.3,59.925847758175564,
C1,0:26,3,['3'],3,TMTstop-control_1_1linestimulus0.png,TMTstop-control_1_1greenlinestimulus0.png,TMTstop-control_1_1redlinestimulus0.png,TMT_Control,C1,3,None,1,0,0,0,0,0,2,2,2,,,,,,,,,,,,,,,,,,,,,,,,,,,,,,,2,0,8.571306899990304,37.80775770000764,None,"['2', '3']",1,"[-0.03707099999883212, 0.030282800013083033]",37.80775770000764,None,,,,001,2022_Nov_17_2348,TMT_fmri,2021.2.3,59.925847758175564,
C1,0:26,4,['1'],1,TMTstop-control_1_1linestimulus1.png,TMTstop-control_1_1greenlinestimulus1.png,TMTstop-control_1_1redlinestimulus1.png,TMT_Control,C1,4,None,1,0,0,0,0,0,3,3,3,,,,,,,,,,,,,,,,,,,,,,,,,,,,,,,0,0,,37.90767190000042,None,None,0,,37.90767190000042,None,,,,001,2022_Nov_17_2348,TMT_fmri,2021.2.3,59.925847758175564,
A1,208:234,1,['1'],1,TMTstop-A_1_1.png,TMTstop-A_1_1.png,TMTstop-A_1_1.png,TMT_A,A1,1,1,2,,,,,,,,,0,0,0,0,0,0,0,0,,,,,,,,,,,,,,,,,,,,,,,0,0,,83.01917202999903,None,None,0,,83.01917202999903,None,,,,001,2022_Nov_17_2348,TMT_fmri,2021.2.3,59.925847758175564,
C3,52:78,1,['2'],2,TMTstop-control_1_3.png,TMTstop-control_1_3.png,TMTstop-control_1_3.png,TMT_Control,C3,51,2,1,,,,,,,,,,,,,,,,,0,0,0,0,0,0,0,0,,,,,,,,,,,,,,,2,0,59.62179499999911,86.29572280000139,None,"['1', '2']",1,"[2.51133409999602, 2.5653893999988213]",86.29572280000139,None,,,,001,2022_Nov_17_2348,TMT_fmri,2021.2.3,59.925847758175564,
C3,52:78,2,['1'],1,TMTstop-control_1_3.png,TMTstop-control_1_3firstgreen.png,TMTstop-control_1_3firstred.png,TMT_Control,C3,52,None,1,,,,,,,,,,,,,,,,,0,0,0,0,0,1,1,1,,,,,,,,,,,,,,,2,0,59.8458219999884,88.95883400000457,None,"['3', '1']",1,"[0.021955699994578026, 0.15940299999783747]",88.95883400000457,None,,,,001,2022_Nov_17_2348,TMT_fmri,2021.2.3,59.925847758175564,
C3,52:78,3,['2'],2,TMTstop-control_1_3linestimulus0.png,TMTstop-control_1_3greenlinestimulus0.png,TMTstop-control_1_3redlinestimulus0.png,TMT_Control,C3,53,None,1,,,,,,,,,,,,,,,,,0,0,0,0,0,2,2,2,,,,,,,,,,,,,,,1,1,59.89479669999855,89.18227489999845,None,['2'],1,[-0.0162348000012571],89.18227489999845,None,,,,001,2022_Nov_17_2348,TMT_fmri,2021.2.3,59.925847758175564,
C3,52:78,4,['1'],1,TMTstop-control_1_3linestimulus1.png,TMTstop-control_1_3greenlinestimulus1.png,TMTstop-control_1_3redlinestimulus1.png,TMT_Control,C3,54,None,1,,,,,,,,,,,,,,,,,0,0,0,0,0,3,3,3,,,,,,,,,,,,,,,2,0,60.10982149999472,89.23270490000141,None,"['3', '1']",1,"[0.014363499998580664, 0.14567169999645557]",89.23270490000141,None,,,,001,2022_Nov_17_2348,TMT_fmri,2021.2.3,59.925847758175564,
C3,52:78,5,['3'],3,TMTstop-control_1_3linestimulus2.png,TMTstop-control_1_3greenlinestimulus2.png,TMTstop-control_1_3redlinestimulus2.png,TMT_Control,C3,55,None,1,,,,,,,,,,,,,,,,,0,0,0,0,0,4,4,4,,,,,,,,,,,,,,,2,0,60.259806899994146,89.44705550000072,None,"['2', '3']",1,"[-0.010090099996887147, 0.06401119999645744]",89.44705550000072,None,,,,001,2022_Nov_17_2348,TMT_fmri,2021.2.3,59.925847758175564,
C3,52:78,6,['1'],1,TMTstop-control_1_3linestimulus3.png,TMTstop-control_1_3greenlinestimulus3.png,TMTstop-control_1_3redlinestimulus3.png,TMT_Control,C3,56,None,1,,,,,,,,,,,,,,,,,0,0,0,0,0,5,5,5,,,,,,,,,,,,,,,1,1,60.376335299995844,89.59727840000414,None,['1'],1,[0.052935599989723414],89.59727840000414,None,,,,001,2022_Nov_17_2348,TMT_fmri,2021.2.3,59.925847758175564,
C3,52:78,7,['2'],2,TMTstop-control_1_3linestimulus4.png,TMTstop-control_1_3greenlinestimulus4.png,TMTstop-control_1_3redlinestimulus4.png,TMT_Control,C3,57,None,1,,,,,,,,,,,,,,,,,0,0,0,0,0,6,6,6,,,,,,,,,,,,,,,1,1,60.42641499999445,89.71396530000493,None,['2'],1,[-0.00897409999743104],89.71396530000493,None,,,,001,2022_Nov_17_2348,TMT_fmri,2021.2.3,59.925847758175564,
C3,52:78,8,['3'],3,TMTstop-control_1_3linestimulus4.png,TMTstop-control_1_3greenlinestimulus5.png,TMTstop-control_1_3redlinestimulus5.png,TMT_Control,C3,58,None,1,,,,,,,,,,,,,,,,,0,0,0,0,0,7,7,7,,,,,,,,,,,,,,,1,1,60.499483799998416,89.77020749999792,None,['3'],1,[0.0071370999939972535],89.77020749999792,None,,,,001,2022_Nov_17_2348,TMT_fmri,2021.2.3,59.925847758175564,
C3,52:78,9,['1'],1,TMTstop-control_1_3linestimulus6.png,TMTstop-control_1_3greenlinestimulus6.png,TMTstop-control_1_3redlinestimulus6.png,TMT_Control,C3,59,None,1,,,,,,,,,,,,,,,,,0,0,0,0,0,8,8,8,,,,,,,,,,,,,,,1,1,60.64119309998932,89.84212489999481,None,['1'],1,[0.08332000000518747],89.84212489999481,None,,,,001,2022_Nov_17_2348,TMT_fmri,2021.2.3,59.925847758175564,
C3,52:78,10,['2'],2,TMTstop-control_1_3linestimulus7.png,TMTstop-control_1_3greenlinestimulus7.png,TMTstop-control_1_3redlinestimulus7.png,TMT_Control,C3,60,None,1,,,,,,,,,,,,,,,,,0,0,0,0,0,9,9,9,,,,,,,,,,,,,,,1,1,60.72707029999583,89.97930489999999,None,['2'],1,[0.007971499988343567],89.97930489999999,None,,,,001,2022_Nov_17_2348,TMT_fmri,2021.2.3,59.925847758175564,
C3,52:78,11,['1'],1,TMTstop-control_1_3linestimulus8.png,TMTstop-control_1_3greenlinestimulus8.png,TMTstop-control_1_3redlinestimulus8.png,TMT_Control,C3,61,None,1,,,,,,,,,,,,,,,,,0,0,0,0,0,10,10,10,,,,,,,,,,,,,,,2,0,60.9310633999994,90.06834729999537,None,"['3', '1']",1,"[-0.008015899991733022, 0.12959870000486262]",90.06834729999537,None,,,,001,2022_Nov_17_2348,TMT_fmri,2021.2.3,59.925847758175564,
C3,52:78,12,['2'],2,TMTstop-control_1_3linestimulus9.png,TMTstop-control_1_3greenlinestimulus9.png,TMTstop-control_1_3redlinestimulus9.png,TMT_Control,C3,62,None,1,,,,,,,,,,,,,,,,,0,0,0,0,0,11,11,11,,,,,,,,,,,,,,,1,1,60.981053299998166,90.26860340000712,None,['2'],1,[-0.0018646999960765243],90.26860340000712,None,,,,001,2022_Nov_17_2348,TMT_fmri,2021.2.3,59.925847758175564,
C3,52:78,13,['3'],3,TMTstop-control_1_3linestimulus10.png,TMTstop-control_1_3greenlinestimulus10.png,TMTstop-control_1_3redlinestimulus10.png,TMT_Control,C3,63,None,1,,,,,,,,,,,,,,,,,0,0,0,0,0,12,12,12,,,,,,,,,,,,,,,1,1,61.0480697999883,90.3187265000015,None,['3'],1,[0.017281199994613416],90.3187265000015,None,,,,001,2022_Nov_17_2348,TMT_fmri,2021.2.3,59.925847758175564,
C3,52:78,14,['2'],2,TMTstop-control_1_3linestimulus11.png,TMTstop-control_1_3greenlinestimulus11.png,TMTstop-control_1_3redlinestimulus11.png,TMT_Control,C3,64,None,1,,,,,,,,,,,,,,,,,0,0,0,0,0,13,13,13,,,,,,,,,,,,,,,2,0,61.30501649998769,90.39264130000083,None,"['1', '2']",1,"[0.09835240000393242, 0.18077080001239665]",90.39264130000083,None,,,,001,2022_Nov_17_2348,TMT_fmri,2021.2.3,59.925847758175564,
C3,52:78,15,['1'],1,TMTstop-control_1_3linestimulus12.png,TMTstop-control_1_3greenlinestimulus12.png,TMTstop-control_1_3redlinestimulus12.png,TMT_Control,C3,65,None,1,,,,,,,,,,,,,,,,,0,0,0,0,0,14,14,14,,,,,,,,,,,,,,,2,0,61.56115159999172,90.64771479999763,None,"['3', '1']",1,"[-0.008274400010122918, 0.15428989999054465]",90.64771479999763,None,,,,001,2022_Nov_17_2348,TMT_fmri,2021.2.3,59.925847758175564,
C3,52:78,16,['3'],3,TMTstop-control_1_3linestimulus13.png,TMTstop-control_1_3greenlinestimulus13.png,TMTstop-control_1_3redlinestimulus13.png,TMT_Control,C3,66,None,1,,,,,,,,,,,,,,,,,0,0,0,0,0,15,15,15,,,,,,,,,,,,,,,2,0,61.71131619998778,90.89775350000127,None,"['2', '3']",1,"[-0.02440710000519175, 0.05258699999831151]",90.89775350000127,None,,,,001,2022_Nov_17_2348,TMT_fmri,2021.2.3,59.925847758175564,
C3,52:78,17,['1'],1,TMTstop-control_1_3linestimulus14.png,TMTstop-control_1_3greenlinestimulus14.png,TMTstop-control_1_3redlinestimulus14.png,TMT_Control,C3,67,None,1,,,,,,,,,,,,,,,,,0,0,0,0,0,16,16,16,,,,,,,,,,,,,,,1,1,61.846077999987756,91.06488499999978,None,['1'],1,[0.06437860000005458],91.06488499999978,None,,,,001,2022_Nov_17_2348,TMT_fmri,2021.2.3,59.925847758175564,
C3,52:78,18,['3'],3,TMTstop-control_1_3linestimulus15.png,TMTstop-control_1_3greenlinestimulus15.png,TMTstop-control_1_3redlinestimulus15.png,TMT_Control,C3,68,None,1,,,,,,,,,,,,,,,,,0,0,0,0,0,17,17,17,,,,,,,,,,,,,,,2,0,62.02611539998907,91.1834336000029,None,"['2', '3']",1,"[0.005595599999651313, 0.08665830000245478]",91.1834336000029,None,,,,001,2022_Nov_17_2348,TMT_fmri,2021.2.3,59.925847758175564,
C3,52:78,19,['2'],2,TMTstop-control_1_3linestimulus16.png,TMTstop-control_1_3greenlinestimulus16.png,TMTstop-control_1_3redlinestimulus16.png,TMT_Control,C3,69,None,1,,,,,,,,,,,,,,,,,0,0,0,0,0,18,18,18,,,,,,,,,,,,,,,2,0,62.26417609999771,91.36297970000305,None,"['1', '2']",1,"[0.07940670000971295, 0.14193540000997018]",91.36297970000305,None,,,,001,2022_Nov_17_2348,TMT_fmri,2021.2.3,59.925847758175564,
C3,52:78,20,['1'],1,TMTstop-control_1_3linestimulus17.png,TMTstop-control_1_3greenlinestimulus17.png,TMTstop-control_1_3redlinestimulus17.png,TMT_Control,C3,70,None,1,,,,,,,,,,,,,,,,,0,0,0,0,0,19,19,19,,,,,,,,,,,,,,,1,1,,91.60792490000313,None,['3'],0,[-0.028540299987071194],91.60792490000313,None,,,,001,2022_Nov_17_2348,TMT_fmri,2021.2.3,59.925847758175564,
C3,52:78,21,['3'],3,TMTstop-control_1_3linestimulus18.png,TMTstop-control_1_3greenlinestimulus18.png,TMTstop-control_1_3redlinestimulus18.png,TMT_Control,C3,71,None,1,,,,,,,,,,,,,,,,,0,0,0,0,0,20,20,20,,,,,,,,,,,,,,,0,0,,131.15489603999595,None,None,0,,131.15489603999595,None,,,,001,2022_Nov_17_2348,TMT_fmri,2021.2.3,59.925847758175564,
C3,52:78,22,['2'],2,TMTstop-control_1_3linestimulus19.png,TMTstop-control_1_3greenlinestimulus19.png,TMTstop-control_1_3redlinestimulus19.png,TMT_Control,C3,72,None,1,,,,,,,,,,,,,,,,,0,0,0,0,0,21,21,21,,,,,,,,,,,,,,,0,0,,131.18827005999628,None,None,0,,131.18827005999628,None,,,,001,2022_Nov_17_2348,TMT_fmri,2021.2.3,59.925847758175564,
C3,52:78,23,['3'],3,TMTstop-control_1_3linestimulus20.png,TMTstop-control_1_3greenlinestimulus20.png,TMTstop-control_1_3redlinestimulus20.png,TMT_Control,C3,73,None,1,,,,,,,,,,,,,,,,,0,0,0,0,0,22,22,22,,,,,,,,,,,,,,,0,0,,131.22164407999662,None,None,0,,131.22164407999662,None,,,,001,2022_Nov_17_2348,TMT_fmri,2021.2.3,59.925847758175564,
C3,52:78,24,['1'],1,TMTstop-control_1_3linestimulus21.png,TMTstop-control_1_3greenlinestimulus21.png,TMTstop-control_1_3redlinestimulus21.png,TMT_Control,C3,74,None,1,,,,,,,,,,,,,,,,,0,0,0,0,0,23,23,23,,,,,,,,,,,,,,,0,0,,131.25501809999696,None,None,0,,131.25501809999696,None,,,,001,2022_Nov_17_2348,TMT_fmri,2021.2.3,59.925847758175564,
C3,52:78,25,['2'],2,TMTstop-control_1_3linestimulus22.png,TMTstop-control_1_3greenlinestimulus22.png,TMTstop-control_1_3redlinestimulus22.png,TMT_Control,C3,75,None,1,,,,,,,,,,,,,,,,,0,0,0,0,0,24,24,24,,,,,,,,,,,,,,,0,0,,131.2883921199973,None,None,0,,131.2883921199973,None,,,,001,2022_Nov_17_2348,TMT_fmri,2021.2.3,59.925847758175564,
C3,52:78,None,None,None,TMTstop-control_1_3linestimulus23.png,TMTstop-control_1_3greenlinestimulus23.png,TMTstop-control_1_3redlinestimulus23.png,TMT_Control,C3,Feedback_last,None,1,,,,,,,,,,,,,,,,,0,0,0,0,0,25,25,25,,,,,,,,,,,,,,,0,0,,131.32176613999764,None,None,1,,131.32176613999764,None,,,,001,2022_Nov_17_2348,TMT_fmri,2021.2.3,59.925847758175564,
C4,78:104,1,['2'],2,TMTstop-control_1_4.png,TMTstop-control_1_4.png,TMTstop-control_1_4.png,TMT_Control,C4,76,None,1,,,,,,,,,,,,,,,,,0,1,1,1,0,0,0,0,,,,,,,,,,,,,,,0,0,,133.78847434000636,None,None,0,,133.78847434000636,None,,,,001,2022_Nov_17_2348,TMT_fmri,2021.2.3,59.925847758175564,
C4,78:104,2,['1'],1,TMTstop-control_1_4.png,TMTstop-control_1_4firstgreen.png,TMTstop-control_1_4firstred.png,TMT_Control,C4,77,None,1,,,,,,,,,,,,,,,,,0,1,1,1,0,1,1,1,,,,,,,,,,,,,,,0,0,,133.8218483600067,None,None,0,,133.8218483600067,None,,,,001,2022_Nov_17_2348,TMT_fmri,2021.2.3,59.925847758175564,
C4,78:104,3,['3'],3,TMTstop-control_1_4linestimulus0.png,TMTstop-control_1_4greenlinestimulus0.png,TMTstop-control_1_4redlinestimulus0.png,TMT_Control,C4,78,None,1,,,,,,,,,,,,,,,,,0,1,1,1,0,2,2,2,,,,,,,,,,,,,,,0,0,,133.8719093900072,None,None,0,,133.8719093900072,None,,,,001,2022_Nov_17_2348,TMT_fmri,2021.2.3,59.925847758175564,
C4,78:104,4,['1'],1,TMTstop-control_1_4linestimulus1.png,TMTstop-control_1_4greenlinestimulus1.png,TMTstop-control_1_4redlinestimulus1.png,TMT_Control,C4,79,None,1,,,,,,,,,,,,,,,,,0,1,1,1,0,3,3,3,,,,,,,,,,,,,,,0,0,,133.9219704200077,None,None,0,,133.9219704200077,None,,,,001,2022_Nov_17_2348,TMT_fmri,2021.2.3,59.925847758175564,
C4,78:104,5,['3'],3,TMTstop-control_1_4linestimulus2.png,TMTstop-control_1_4greenlinestimulus2.png,TMTstop-control_1_4redlinestimulus2.png,TMT_Control,C4,80,None,1,,,,,,,,,,,,,,,,,0,1,1,1,0,4,4,4,,,,,,,,,,,,,,,0,0,,133.95534444000805,None,None,0,,133.95534444000805,None,,,,001,2022_Nov_17_2348,TMT_fmri,2021.2.3,59.925847758175564,
C4,78:104,6,['1'],1,TMTstop-control_1_4linestimulus3.png,TMTstop-control_1_4greenlinestimulus3.png,TMTstop-control_1_4redlinestimulus3.png,TMT_Control,C4,81,None,1,,,,,,,,,,,,,,,,,0,1,1,1,0,5,5,5,,,,,,,,,,,,,,,0,0,,133.98871846000839,None,None,0,,133.98871846000839,None,,,,001,2022_Nov_17_2348,TMT_fmri,2021.2.3,59.925847758175564,
C4,78:104,7,['3'],3,TMTstop-control_1_4linestimulus4.png,TMTstop-control_1_4greenlinestimulus4.png,TMTstop-control_1_4redlinestimulus4.png,TMT_Control,C4,82,None,1,,,,,,,,,,,,,,,,,0,1,1,1,0,6,6,6,,,,,,,,,,,,,,,0,0,,134.02209248000872,None,None,0,,134.02209248000872,None,,,,001,2022_Nov_17_2348,TMT_fmri,2021.2.3,59.925847758175564,
C4,78:104,8,['1'],1,TMTstop-control_1_4linestimulus4.png,TMTstop-control_1_4greenlinestimulus5.png,TMTstop-control_1_4redlinestimulus5.png,TMT_Control,C4,83,None,1,,,,,,,,,,,,,,,,,0,1,1,1,0,7,7,7,,,,,,,,,,,,,,,0,0,,134.05546650000906,None,None,0,,134.05546650000906,None,,,,001,2022_Nov_17_2348,TMT_fmri,2021.2.3,59.925847758175564,
C4,78:104,9,['3'],3,TMTstop-control_1_4linestimulus6.png,TMTstop-control_1_4greenlinestimulus6.png,TMTstop-control_1_4redlinestimulus6.png,TMT_Control,C4,84,None,1,,,,,,,,,,,,,,,,,0,1,1,1,0,8,8,8,,,,,,,,,,,,,,,0,0,,134.0888405200094,None,None,0,,134.0888405200094,None,,,,001,2022_Nov_17_2348,TMT_fmri,2021.2.3,59.925847758175564,
C4,78:104,10,['2'],2,TMTstop-control_1_4linestimulus7.png,TMTstop-control_1_4greenlinestimulus7.png,TMTstop-control_1_4redlinestimulus7.png,TMT_Control,C4,85,None,1,,,,,,,,,,,,,,,,,0,1,1,1,0,9,9,9,,,,,,,,,,,,,,,0,0,,134.12221454000974,None,None,0,,134.12221454000974,None,,,,001,2022_Nov_17_2348,TMT_fmri,2021.2.3,59.925847758175564,
C4,78:104,11,['1'],1,TMTstop-control_1_4linestimulus8.png,TMTstop-control_1_4greenlinestimulus8.png,TMTstop-control_1_4redlinestimulus8.png,TMT_Control,C4,86,None,1,,,,,,,,,,,,,,,,,0,1,1,1,0,10,10,10,,,,,,,,,,,,,,,0,0,,134.15558856001007,None,None,0,,134.15558856001007,None,,,,001,2022_Nov_17_2348,TMT_fmri,2021.2.3,59.925847758175564,
C4,78:104,12,['3'],3,TMTstop-control_1_4linestimulus9.png,TMTstop-control_1_4greenlinestimulus9.png,TMTstop-control_1_4redlinestimulus9.png,TMT_Control,C4,87,None,1,,,,,,,,,,,,,,,,,0,1,1,1,0,11,11,11,,,,,,,,,,,,,,,0,0,,134.1889625800104,None,None,0,,134.1889625800104,None,,,,001,2022_Nov_17_2348,TMT_fmri,2021.2.3,59.925847758175564,
C4,78:104,13,['2'],2,TMTstop-control_1_4linestimulus10.png,TMTstop-control_1_4greenlinestimulus10.png,TMTstop-control_1_4redlinestimulus10.png,TMT_Control,C4,88,None,1,,,,,,,,,,,,,,,,,0,1,1,1,0,12,12,12,,,,,,,,,,,,,,,0,0,,134.22233660001075,None,None,0,,134.22233660001075,None,,,,001,2022_Nov_17_2348,TMT_fmri,2021.2.3,59.925847758175564,
C4,78:104,14,['3'],3,TMTstop-control_1_4linestimulus11.png,TMTstop-control_1_4greenlinestimulus11.png,TMTstop-control_1_4redlinestimulus11.png,TMT_Control,C4,89,None,1,,,,,,,,,,,,,,,,,0,1,1,1,0,13,13,13,,,,,,,,,,,,,,,0,0,,134.23902361001092,None,None,0,,134.23902361001092,None,,,,001,2022_Nov_17_2348,TMT_fmri,2021.2.3,59.925847758175564,
C4,78:104,15,['2'],2,TMTstop-control_1_4linestimulus12.png,TMTstop-control_1_4greenlinestimulus12.png,TMTstop-control_1_4redlinestimulus12.png,TMT_Control,C4,90,None,1,,,,,,,,,,,,,,,,,0,1,1,1,0,14,14,14,,,,,,,,,,,,,,,0,0,,134.27239763001126,None,None,0,,134.27239763001126,None,,,,001,2022_Nov_17_2348,TMT_fmri,2021.2.3,59.925847758175564,
C4,78:104,16,['1'],1,TMTstop-control_1_4linestimulus13.png,TMTstop-control_1_4greenlinestimulus13.png,TMTstop-control_1_4redlinestimulus13.png,TMT_Control,C4,91,None,1,,,,,,,,,,,,,,,,,0,1,1,1,0,15,15,15,,,,,,,,,,,,,,,0,0,,134.3057716500116,None,None,0,,134.3057716500116,None,,,,001,2022_Nov_17_2348,TMT_fmri,2021.2.3,59.925847758175564,
C4,78:104,17,['3'],3,TMTstop-control_1_4linestimulus14.png,TMTstop-control_1_4greenlinestimulus14.png,TMTstop-control_1_4redlinestimulus14.png,TMT_Control,C4,92,None,1,,,,,,,,,,,,,,,,,0,1,1,1,0,16,16,16,,,,,,,,,,,,,,,0,0,,134.33914567001193,None,None,0,,134.33914567001193,None,,,,001,2022_Nov_17_2348,TMT_fmri,2021.2.3,59.925847758175564,
C4,78:104,18,['1'],1,TMTstop-control_1_4linestimulus15.png,TMTstop-control_1_4greenlinestimulus15.png,TMTstop-control_1_4redlinestimulus15.png,TMT_Control,C4,93,None,1,,,,,,,,,,,,,,,,,0,1,1,1,0,17,17,17,,,,,,,,,,,,,,,0,0,,134.37251969001227,None,None,0,,134.37251969001227,None,,,,001,2022_Nov_17_2348,TMT_fmri,2021.2.3,59.925847758175564,
C4,78:104,19,['2'],2,TMTstop-control_1_4linestimulus16.png,TMTstop-control_1_4greenlinestimulus16.png,TMTstop-control_1_4redlinestimulus16.png,TMT_Control,C4,94,None,1,,,,,,,,,,,,,,,,,0,1,1,1,0,18,18,18,,,,,,,,,,,,,,,0,0,,134.4058937100126,None,None,0,,134.4058937100126,None,,,,001,2022_Nov_17_2348,TMT_fmri,2021.2.3,59.925847758175564,
C4,78:104,20,['1'],1,TMTstop-control_1_4linestimulus17.png,TMTstop-control_1_4greenlinestimulus17.png,TMTstop-control_1_4redlinestimulus17.png,TMT_Control,C4,95,None,1,,,,,,,,,,,,,,,,,0,1,1,1,0,19,19,19,,,,,,,,,,,,,,,0,0,,134.4559547400131,None,None,0,,134.4559547400131,None,,,,001,2022_Nov_17_2348,TMT_fmri,2021.2.3,59.925847758175564,
C4,78:104,21,['2'],2,TMTstop-control_1_4linestimulus18.png,TMTstop-control_1_4greenlinestimulus18.png,TMTstop-control_1_4redlinestimulus18.png,TMT_Control,C4,96,None,1,,,,,,,,,,,,,,,,,0,1,1,1,0,20,20,20,,,,,,,,,,,,,,,0,0,,134.48932876001345,None,None,0,,134.48932876001345,None,,,,001,2022_Nov_17_2348,TMT_fmri,2021.2.3,59.925847758175564,
C4,78:104,22,['1'],1,TMTstop-control_1_4linestimulus19.png,TMTstop-control_1_4greenlinestimulus19.png,TMTstop-control_1_4redlinestimulus19.png,TMT_Control,C4,97,None,1,,,,,,,,,,,,,,,,,0,1,1,1,0,21,21,21,,,,,,,,,,,,,,,0,0,,134.5227027800138,None,None,0,,134.5227027800138,None,,,,001,2022_Nov_17_2348,TMT_fmri,2021.2.3,59.925847758175564,
C4,78:104,23,['2'],2,TMTstop-control_1_4linestimulus20.png,TMTstop-control_1_4greenlinestimulus20.png,TMTstop-control_1_4redlinestimulus20.png,TMT_Control,C4,98,None,1,,,,,,,,,,,,,,,,,0,1,1,1,0,22,22,22,,,,,,,,,,,,,,,0,0,,134.55607680001413,None,None,0,,134.55607680001413,None,,,,001,2022_Nov_17_2348,TMT_fmri,2021.2.3,59.925847758175564,
C4,78:104,24,['1'],1,TMTstop-control_1_4linestimulus21.png,TMTstop-control_1_4greenlinestimulus21.png,TMTstop-control_1_4redlinestimulus21.png,TMT_Control,C4,99,None,1,,,,,,,,,,,,,,,,,0,1,1,1,0,23,23,23,,,,,,,,,,,,,,,0,0,,134.58945082001446,None,None,0,,134.58945082001446,None,,,,001,2022_Nov_17_2348,TMT_fmri,2021.2.3,59.925847758175564,
C4,78:104,25,['2'],2,TMTstop-control_1_4linestimulus22.png,TMTstop-control_1_4greenlinestimulus22.png,TMTstop-control_1_4redlinestimulus22.png,TMT_Control,C4,100,None,1,,,,,,,,,,,,,,,,,0,1,1,1,0,24,24,24,,,,,,,,,,,,,,,0,0,,134.63951185001497,None,None,0,,134.63951185001497,None,,,,001,2022_Nov_17_2348,TMT_fmri,2021.2.3,59.925847758175564,
C4,78:104,None,None,None,TMTstop-control_1_4linestimulus23.png,TMTstop-control_1_4greenlinestimulus23.png,TMTstop-control_1_4redlinestimulus23.png,TMT_Control,C4,Feedback_last,None,1,,,,,,,,,,,,,,,,,0,1,1,1,0,25,25,25,,,,,,,,,,,,,,,0,0,,134.6728858700153,None,None,1,,134.6728858700153,None,,,,001,2022_Nov_17_2348,TMT_fmri,2021.2.3,59.925847758175564,
B1,364:390,1,['3'],3,TMTstop-B_1_1.png,TMTstop-B_1_1.png,TMTstop-B_1_1.png,TMT_B,B1,1,1,3,,,,,,,,,,,,,,,,,,,,,,,,,0,0,0,0,0,0,0,0,,,,,,,3,0,113.80125599999155,141.9995951000019,None,"['1', '2', '3']",1,"[0.8468195000023115, 0.9739845000003697, 1.0774953000072856]",141.9995951000019,None,134.74481869999727,None,,001,2022_Nov_17_2348,TMT_fmri,2021.2.3,59.925847758175564,
B1,364:390,A,['1'],1,TMTstop-B_1_1.png,TMTstop-B_1_1firstgreen.png,TMTstop-B_1_1firstred.png,TMT_B,B1,2,None,3,,,,,,,,,,,,,,,,,,,,,,,,,0,0,0,0,0,1,1,1,,,,,,,1,1,114.05526319998899,143.14226659999986,None,['1'],1,[0.2009029000037117],143.14226659999986,None,,,,001,2022_Nov_17_2348,TMT_fmri,2021.2.3,59.925847758175564,
B1,364:390,2,['3'],3,TMTstop-B_1_1linestimulus0.png,TMTstop-B_1_1greenlinestimulus0.png,TMTstop-B_1_1redlinestimulus0.png,TMT_B,B1,3,None,3,,,,,,,,,,,,,,,,,,,,,,,,,0,0,0,0,0,2,2,2,,,,,,,2,0,114.23023259999172,143.39997399999993,None,"['2', '3']",1,"[0.01332640000327956, 0.09193029999732971]",143.39997399999993,None,,,,001,2022_Nov_17_2348,TMT_fmri,2021.2.3,59.925847758175564,
B1,364:390,B,['2'],2,TMTstop-B_1_1linestimulus1.png,TMTstop-B_1_1greenlinestimulus1.png,TMTstop-B_1_1redlinestimulus1.png,TMT_B,B1,4,None,3,,,,,,,,,,,,,,,,,,,,,,,,,0,0,0,0,0,3,3,3,,,,,,,2,0,114.47122609999496,143.57433299999684,None,"['1', '2']",1,"[0.0769021000014618, 0.14488379999238532]",143.57433299999684,None,,,,001,2022_Nov_17_2348,TMT_fmri,2021.2.3,59.925847758175564,
,,,,,,,,,,,,,,,,,,,,,,,,,,,,,,,,,,,,,,,,,,,,,,,,,,,0,0,,,,,,,,,,,,,,,,,
